"date","time","group","subject","build","blocknum","trialnum","blockcode","trialcode","pretrialpause","posttrialpause","trialduration","trialtimeout","response","correct","latency"
"012320","12:15:43","681132935","163889718","5.0.15.0","1","1","demographics","ProlificCode","0","0","0","0","5d3765af4a48920019c45a96","1","18277"
"012320","12:15:43","681132935","163889718","5.0.15.0","1","2","demographics","age","0","0","0","0","36","1","5220"
"012320","12:15:43","681132935","163889718","5.0.15.0","1","3","demographics","gender","0","0","0","0","Female","1","8105"
"012320","12:23:02","970224731","180926818","5.0.14.0","1","1","demographics","ProlificCode","0","0","0","0","5d4370e8caf7ea001562788b","1","20305"
"012320","12:23:02","970224731","180926818","5.0.14.0","1","2","demographics","age","0","0","0","0","31","1","3377"
"012320","12:23:02","970224731","180926818","5.0.14.0","1","3","demographics","gender","0","0","0","0","female","1","5876"
"012320","12:27:09","544936991","651705054","5.0.14.0","1","1","demographics","ProlificCode","0","0","0","0","5af093b0c36b060001f7dda4","1","36211"
"012320","12:27:09","544936991","651705054","5.0.14.0","1","2","demographics","age","0","0","0","0","32","1","2628"
"012320","12:27:09","544936991","651705054","5.0.14.0","1","3","demographics","gender","0","0","0","0","female","1","5014"
"012320","12:29:00","868971590","848717023","5.0.14.0","1","1","demographics","ProlificCode","0","0","0","0","5aa30be81eda41000136bec3","1","16280"
"012320","12:29:00","868971590","848717023","5.0.14.0","1","2","demographics","age","0","0","0","0","22","1","5149"
"012320","12:29:00","868971590","848717023","5.0.14.0","1","3","demographics","gender","0","0","0","0","male","1","3136"
"012320","12:31:09","118306684","614509532","5.0.14.0","1","1","demographics","ProlificCode","0","0","0","0","5e2597b5fcf95e7e4914a629","1","7457"
"012320","12:31:09","118306684","614509532","5.0.14.0","1","2","demographics","age","0","0","0","0","29","1","6819"
"012320","12:31:09","118306684","614509532","5.0.14.0","1","3","demographics","gender","0","0","0","0","female","1","7728"
"012320","12:35:53","544581221","266569838","5.0.14.0","1","1","demographics","ProlificCode","0","0","0","0","5e1224f958a5c78bf410d8e1","1","20343"
"012320","12:35:53","544581221","266569838","5.0.14.0","1","2","demographics","age","0","0","0","0","40","1","4019"
"012320","12:35:53","544581221","266569838","5.0.14.0","1","3","demographics","gender","0","0","0","0","Female","1","5514"
"012320","07:35:45","262939046","59842540","5.0.14.0","1","1","demographics","ProlificCode","0","0","0","0","5cf93fd6e7af560001769a43","1","39508"
"012320","07:35:45","262939046","59842540","5.0.14.0","1","2","demographics","age","0","0","0","0","38","1","3445"
"012320","07:35:45","262939046","59842540","5.0.14.0","1","3","demographics","gender","0","0","0","0","female","1","4031"
"012320","12:36:51","696662173","519776923","5.0.14.0","1","1","demographics","ProlificCode","0","0","0","0","5e0b80431333f9000d195faf","1","22783"
"012320","12:36:51","696662173","519776923","5.0.14.0","1","2","demographics","age","0","0","0","0","22","1","3025"
"012320","12:36:51","696662173","519776923","5.0.14.0","1","3","demographics","gender","0","0","0","0","Female","1","4213"
"012320","12:37:27","485081329","976702210","5.0.14.0","1","1","demographics","ProlificCode","0","0","0","0","5b8bcd411555240001c4d381","1","8242"
"012320","12:37:27","485081329","976702210","5.0.14.0","1","2","demographics","age","0","0","0","0","27","1","3347"
"012320","12:37:27","485081329","976702210","5.0.14.0","1","3","demographics","gender","0","0","0","0","Male","1","5291"
"012320","23:43:10","935637798","497674009","5.0.14.0","1","1","demographics","ProlificCode","0","0","0","0","5e11aacafe108584439c02c9","1","12958"
"012320","23:43:10","935637798","497674009","5.0.14.0","1","2","demographics","age","0","0","0","0","37","1","3226"
"012320","23:43:10","935637798","497674009","5.0.14.0","1","3","demographics","gender","0","0","0","0","Male","1","4499"
"012320","12:42:50","277149369","840659829","5.0.14.0","1","1","demographics","ProlificCode","0","0","0","0","5de4669f96e9b244a1e","1","81067"
"012320","12:42:50","277149369","840659829","5.0.14.0","1","2","demographics","age","0","0","0","0","21","1","7972"
"012320","12:42:50","277149369","840659829","5.0.14.0","1","3","demographics","gender","0","0","0","0","Female","1","4594"
"012320","12:44:06","864022536","301706853","5.0.14.0","1","1","demographics","ProlificCode","0","0","0","0","5e1b966e5bcd433c41dc18a1","1","25203"
"012320","12:44:06","864022536","301706853","5.0.14.0","1","2","demographics","age","0","0","0","0","38","1","3887"
"012320","12:44:06","864022536","301706853","5.0.14.0","1","3","demographics","gender","0","0","0","0","female","1","5040"
"012320","12:44:57","45991968","25737401","5.0.14.0","1","1","demographics","ProlificCode","0","0","0","0","5d14dd1e11f6fe00015b6dfb","1","4214"
"012320","12:44:57","45991968","25737401","5.0.14.0","1","2","demographics","age","0","0","0","0","34 ","1","4160"
"012320","12:44:57","45991968","25737401","5.0.14.0","1","3","demographics","gender","0","0","0","0","female","1","3586"
"012320","12:44:52","276451436","905803570","5.0.14.0","1","1","demographics","ProlificCode","0","0","0","0","5e13a93a8640209e59703481","1","89700"
"012320","12:44:52","276451436","905803570","5.0.14.0","1","2","demographics","age","0","0","0","0","26","1","3922"
"012320","12:44:52","276451436","905803570","5.0.14.0","1","3","demographics","gender","0","0","0","0","Female","1","8092"
"012320","12:47:30","245076170","377168445","5.0.14.0","1","1","demographics","ProlificCode","0","0","0","0","5e11cb793f291585b16ef640","1","5489"
"012320","12:47:30","245076170","377168445","5.0.14.0","1","2","demographics","age","0","0","0","0","40","1","3685"
"012320","12:47:30","245076170","377168445","5.0.14.0","1","3","demographics","gender","0","0","0","0","Female","1","7825"
"012320","12:48:31","953229763","543242284","5.0.14.0","1","1","demographics","ProlificCode","0","0","0","0","5e0ddb92b7b33052ac933947","1","26162"
"012320","12:48:31","953229763","543242284","5.0.14.0","1","2","demographics","age","0","0","0","0","49","1","4582"
"012320","12:48:31","953229763","543242284","5.0.14.0","1","3","demographics","gender","0","0","0","0","female","1","5299"
"012320","12:49:29","285875121","187010750","5.0.14.0","1","1","demographics","ProlificCode","0","0","0","0","5e109ccbb199e475d61f8b6c","1","6791"
"012320","12:49:29","285875121","187010750","5.0.14.0","1","2","demographics","age","0","0","0","0","44","1","4259"
"012320","12:49:29","285875121","187010750","5.0.14.0","1","3","demographics","gender","0","0","0","0","female","1","4854"
"012320","12:49:57","942106061","233265412","5.0.15.0","1","1","demographics","ProlificCode","0","0","0","0","5e008564a98a7ac8a2ad9aed ","1","18046"
"012320","12:49:57","942106061","233265412","5.0.15.0","1","2","demographics","age","0","0","0","0","23","1","5815"
"012320","12:49:57","942106061","233265412","5.0.15.0","1","3","demographics","gender","0","0","0","0","Male","1","4851"
"012320","12:51:09","120511134","226981072","5.0.14.0","1","1","demographics","ProlificCode","0","0","0","0","5dce02a5e10220052b35144a","1","18359"
"012320","12:51:09","120511134","226981072","5.0.14.0","1","2","demographics","age","0","0","0","0","28","1","6269"
"012320","12:51:09","120511134","226981072","5.0.14.0","1","3","demographics","gender","0","0","0","0","Male","1","7686"
"012320","12:51:38","125571996","722013934","5.0.14.0","1","1","demographics","ProlificCode","0","0","0","0","5de2d560cca54a305007c4d2","1","20706"
"012320","12:51:38","125571996","722013934","5.0.14.0","1","2","demographics","age","0","0","0","0","20","1","3572"
"012320","12:51:38","125571996","722013934","5.0.14.0","1","3","demographics","gender","0","0","0","0","Female","1","3258"
"012320","12:51:55","352286667","848191386","5.0.14.0","1","1","demographics","ProlificCode","0","0","0","0","5dea776adf55eb196607c30e","1","12020"
"012320","12:51:55","352286667","848191386","5.0.14.0","1","2","demographics","age","0","0","0","0","22","1","3259"
"012320","12:51:55","352286667","848191386","5.0.14.0","1","3","demographics","gender","0","0","0","0","Female","1","5285"
"012320","23:22:16","940354562","231513913","5.0.14.0","1","1","demographics","ProlificCode","0","0","0","0","5e2123cce8ff3a41ca1a0f01","1","12463"
"012320","23:22:16","940354562","231513913","5.0.14.0","1","2","demographics","age","0","0","0","0","18","1","3109"
"012320","23:22:16","940354562","231513913","5.0.14.0","1","3","demographics","gender","0","0","0","0","Male","1","2585"
"012320","07:52:29","508727915","789472107","5.0.14.0","1","1","demographics","ProlificCode","0","0","0","0","5c0beec1eea895000102990d","1","20643"
"012320","07:52:29","508727915","789472107","5.0.14.0","1","2","demographics","age","0","0","0","0","32","1","2058"
"012320","07:52:29","508727915","789472107","5.0.14.0","1","3","demographics","gender","0","0","0","0","Male","1","2442"
"012320","12:53:06","20224854","44174345","5.0.14.0","1","1","demographics","ProlificCode","0","0","0","0","5e18abd2fcfd380284f9ae42 ","1","19905"
"012320","12:53:06","20224854","44174345","5.0.14.0","1","2","demographics","age","0","0","0","0","26","1","4560"
"012320","12:53:06","20224854","44174345","5.0.14.0","1","3","demographics","gender","0","0","0","0","Female","1","49439"
"012320","12:53:46","15569066","991030644","5.0.14.0","1","1","demographics","ProlificCode","0","0","0","0","5e208b0c09f08f39add7fcec","1","20201"
"012320","12:53:46","15569066","991030644","5.0.14.0","1","2","demographics","age","0","0","0","0","38","1","33828"
"012320","12:53:46","15569066","991030644","5.0.14.0","1","3","demographics","gender","0","0","0","0","male","1","17151"
"012320","12:53:51","992330834","947123552","5.0.14.0","1","1","demographics","ProlificCode","0","0","0","0","5df78b5e01423f525d88cde8","1","8923"
"012320","12:53:51","992330834","947123552","5.0.14.0","1","2","demographics","age","0","0","0","0","31","1","3417"
"012320","12:53:51","992330834","947123552","5.0.14.0","1","3","demographics","gender","0","0","0","0","female","1","8102"
"012320","12:54:49","727186537","788034892","5.0.14.0","1","1","demographics","ProlificCode","0","0","0","0","5e1f7f7a7c5f5d06d052e3a8","1","16176"
"012320","12:54:49","727186537","788034892","5.0.14.0","1","2","demographics","age","0","0","0","0","36","1","3892"
"012320","12:54:49","727186537","788034892","5.0.14.0","1","3","demographics","gender","0","0","0","0","Male","1","4905"
"012320","12:54:47","226415490","534903639","5.0.14.0","1","1","demographics","ProlificCode","0","0","0","0","5e221aa6801e964f455dabf9","1","8389"
"012320","12:54:47","226415490","534903639","5.0.14.0","1","2","demographics","age","0","0","0","0","55","1","7000"
"012320","12:54:47","226415490","534903639","5.0.14.0","1","3","demographics","gender","0","0","0","0","female","1","6378"
"012320","07:54:28","44073385","104921735","5.0.14.0","1","1","demographics","ProlificCode","0","0","0","0","5cd84cea7cc3ca001585d6bc","1","122697"
"012320","07:54:28","44073385","104921735","5.0.14.0","1","2","demographics","age","0","0","0","0","50","1","4268"
"012320","07:54:28","44073385","104921735","5.0.14.0","1","3","demographics","gender","0","0","0","0","Female","1","5415"
"012320","12:57:56","901535782","570456235","5.0.14.0","1","1","demographics","ProlificCode","0","0","0","0","5ddc561ea1679a000e75f05c","1","54248"
"012320","12:57:56","901535782","570456235","5.0.14.0","1","2","demographics","age","0","0","0","0","29","1","3111"
"012320","12:57:56","901535782","570456235","5.0.14.0","1","3","demographics","gender","0","0","0","0","female","1","10749"
"012320","12:59:40","765242858","434163311","5.0.14.0","1","1","demographics","ProlificCode","0","0","0","0","5e0c773013064443636d7d91","1","23784"
"012320","12:59:40","765242858","434163311","5.0.14.0","1","2","demographics","age","0","0","0","0","45","1","5614"
"012320","12:59:40","765242858","434163311","5.0.14.0","1","3","demographics","gender","0","0","0","0","female","1","5741"
"012320","12:58:15","654649600","607594865","5.0.14.0","1","1","demographics","ProlificCode","0","0","0","0","5e16d8f5bf3d4eca3bcf290f","1","116726"
"012320","12:58:15","654649600","607594865","5.0.14.0","1","2","demographics","age","0","0","0","0","42","1","4756"
"012320","12:58:15","654649600","607594865","5.0.14.0","1","3","demographics","gender","0","0","0","0","female","1","4420"
"012320","13:01:12","325526053","820841853","5.0.14.0","1","1","demographics","ProlificCode","0","0","0","0","5e16ef52a2c696c9ecf3c849","1","8025"
"012320","13:01:12","325526053","820841853","5.0.14.0","1","2","demographics","age","0","0","0","0","53","1","4911"
"012320","13:01:12","325526053","820841853","5.0.14.0","1","3","demographics","gender","0","0","0","0","male","1","13090"
"012320","13:01:27","900949461","701547885","5.0.14.0","1","1","demographics","ProlificCode","0","0","0","0","5e237caac530bd62e210d540","1","17346"
"012320","13:01:27","900949461","701547885","5.0.14.0","1","2","demographics","age","0","0","0","0","30","1","3739"
"012320","13:01:27","900949461","701547885","5.0.14.0","1","3","demographics","gender","0","0","0","0","non-binary","1","7038"
"012320","13:01:56","389679923","727301907","5.0.14.0","1","1","demographics","ProlificCode","0","0","0","0","5e261f4731328709feda6be4","1","27332"
"012320","13:01:56","389679923","727301907","5.0.14.0","1","2","demographics","age","0","0","0","0","18","1","2710"
"012320","13:01:56","389679923","727301907","5.0.14.0","1","3","demographics","gender","0","0","0","0","female","1","3618"
"012320","13:02:09","788007180","614816861","5.0.14.0","1","1","demographics","ProlificCode","0","0","0","0","5e1e26bc677d6f1913ec0111","1","12480"
"012320","13:02:09","788007180","614816861","5.0.14.0","1","2","demographics","age","0","0","0","0","53","1","4255"
"012320","13:02:09","788007180","614816861","5.0.14.0","1","3","demographics","gender","0","0","0","0","Male","1","8754"
"012320","13:02:16","421081032","247890705","5.0.14.0","1","1","demographics","ProlificCode","0","0","0","0","5d5bf4eebb10640018afd238","1","7988"
"012320","13:02:16","421081032","247890705","5.0.14.0","1","2","demographics","age","0","0","0","0","34","1","4455"
"012320","13:02:16","421081032","247890705","5.0.14.0","1","3","demographics","gender","0","0","0","0","female","1","4113"
"012320","08:02:13","415058028","747909973","5.0.14.0","1","1","demographics","ProlificCode","0","0","0","0","5d85b64f3b2e8e0019b4071d","1","6818"
"012320","08:02:13","415058028","747909973","5.0.14.0","1","2","demographics","age","0","0","0","0","30","1","6168"
"012320","08:02:13","415058028","747909973","5.0.14.0","1","3","demographics","gender","0","0","0","0","Man","1","15034"
"012320","13:02:29","241235503","678354314","5.0.14.0","1","1","demographics","ProlificCode","0","0","0","0","5e03a03e54ff23e8ca6362c1","1","17944"
"012320","13:02:29","241235503","678354314","5.0.14.0","1","2","demographics","age","0","0","0","0","20","1","5360"
"012320","13:02:29","241235503","678354314","5.0.14.0","1","3","demographics","gender","0","0","0","0","female","1","3522"
"012320","07:02:39","551209149","578778494","5.0.14.0","1","1","demographics","ProlificCode","0","0","0","0","5cc34ac6ae1402001b745021","1","4436"
"012320","07:02:39","551209149","578778494","5.0.14.0","1","2","demographics","age","0","0","0","0","29","1","3481"
"012320","07:02:39","551209149","578778494","5.0.14.0","1","3","demographics","gender","0","0","0","0","Male","1","1984"
"012320","13:02:56","158507878","423455956","5.0.14.0","1","1","demographics","ProlificCode","0","0","0","0","5dfe3d47b199e4ae4333b3a4","1","12175"
"012320","13:02:56","158507878","423455956","5.0.14.0","1","2","demographics","age","0","0","0","0","39","1","5178"
"012320","13:02:56","158507878","423455956","5.0.14.0","1","3","demographics","gender","0","0","0","0","Female","1","6614"
"012320","13:03:12","717589791","307900444","5.0.14.0","1","1","demographics","ProlificCode","0","0","0","0","5e1cdd55537fe105f0841be2","1","13406"
"012320","13:03:12","717589791","307900444","5.0.14.0","1","2","demographics","age","0","0","0","0","21","1","2426"
"012320","13:03:12","717589791","307900444","5.0.14.0","1","3","demographics","gender","0","0","0","0","Male","1","6632"
"012320","13:03:15","779612990","606117205","5.0.14.0","1","1","demographics","ProlificCode","0","0","0","0","5dd5e16d332b34597ea2d5b3","1","16002"
"012320","13:03:15","779612990","606117205","5.0.14.0","1","2","demographics","age","0","0","0","0","29","1","3781"
"012320","13:03:15","779612990","606117205","5.0.14.0","1","3","demographics","gender","0","0","0","0","Female","1","4917"
"012420","00:02:02","719620786","309931438","5.0.14.0","1","1","demographics","ProlificCode","0","0","0","0","5d1d87fe3788ac0019cedca5","1","3121"
"012420","00:02:02","719620786","309931438","5.0.14.0","1","2","demographics","age","0","0","0","0","22","1","1660"
"012420","00:02:02","719620786","309931438","5.0.14.0","1","3","demographics","gender","0","0","0","0","male","1","4229"
"012320","13:04:17","517698931","802428840","5.0.14.0","1","1","demographics","ProlificCode","0","0","0","0","599b0464e344170001292ca3","1","3979"
"012320","13:04:17","517698931","802428840","5.0.14.0","1","2","demographics","age","0","0","0","0","37","1","4286"
"012320","13:04:17","517698931","802428840","5.0.14.0","1","3","demographics","gender","0","0","0","0","Male","1","2927"
"012320","13:04:49","22201625","1630295","5.0.14.0","1","1","demographics","ProlificCode","0","0","0","0","5e2439af26d9746c51e0b1db","1","14622"
"012320","13:04:49","22201625","1630295","5.0.14.0","1","2","demographics","age","0","0","0","0","34","1","2454"
"012320","13:04:49","22201625","1630295","5.0.14.0","1","3","demographics","gender","0","0","0","0","FEMALE","1","4710"
"012320","13:03:57","517949995","33934685","5.0.14.0","1","1","demographics","ProlificCode","0","0","0","0","5b22d5a51eef1b00016f3bbf","1","19546"
"012320","13:03:57","517949995","33934685","5.0.14.0","1","2","demographics","age","0","0","0","0","30","1","4760"
"012320","13:03:57","517949995","33934685","5.0.14.0","1","3","demographics","gender","0","0","0","0","Male","1","4785"
"012320","13:04:57","882698808","479140766","5.0.14.0","1","1","demographics","ProlificCode","0","0","0","0","5e15b3555777b5ba885c3a4d","1","10828"
"012320","13:04:57","882698808","479140766","5.0.14.0","1","2","demographics","age","0","0","0","0","25 ","1","3519"
"012320","13:04:57","882698808","479140766","5.0.14.0","1","3","demographics","gender","0","0","0","0","female","1","3884"
"012420","00:04:46","91052178","613813814","5.0.14.0","1","1","demographics","ProlificCode","0","0","0","0","5df75be94f849e4f230d6591","1","24466"
"012420","00:04:46","91052178","613813814","5.0.14.0","1","2","demographics","age","0","0","0","0","27","1","3578"
"012420","00:04:46","91052178","613813814","5.0.14.0","1","3","demographics","gender","0","0","0","0","Male","1","4153"
"012320","13:05:30","587924247","646279482","5.0.14.0","1","1","demographics","ProlificCode","0","0","0","0","5e1f947ec6d6f1000cbe0a8c","1","18434"
"012320","13:05:30","587924247","646279482","5.0.14.0","1","2","demographics","age","0","0","0","0","31 ","1","5645"
"012320","13:05:30","587924247","646279482","5.0.14.0","1","3","demographics","gender","0","0","0","0","female","1","4113"
"012320","13:04:47","678544069","507482707","5.0.14.0","1","1","demographics","ProlificCode","0","0","0","0","5e26300a1c55ad87dba","1","84141"
"012320","13:04:47","678544069","507482707","5.0.14.0","1","2","demographics","age","0","0","0","0","27","1","3994"
"012320","13:04:47","678544069","507482707","5.0.14.0","1","3","demographics","gender","0","0","0","0","Female","1","3393"
"012320","08:06:15","887673155","383876024","5.0.14.0","1","1","demographics","ProlificCode","0","0","0","0","5d77eb3007e8770001acdef8","1","7477"
"012320","08:06:15","887673155","383876024","5.0.14.0","1","2","demographics","age","0","0","0","0","18","1","2384"
"012320","08:06:15","887673155","383876024","5.0.14.0","1","3","demographics","gender","0","0","0","0","Male","1","2992"
"012320","13:06:43","435840804","947541640","5.0.14.0","1","1","demographics","ProlificCode","0","0","0","0","5e1f196988eb2e24bf332e3f","1","8007"
"012320","13:06:43","435840804","947541640","5.0.14.0","1","2","demographics","age","0","0","0","0","23","1","4207"
"012320","13:06:43","435840804","947541640","5.0.14.0","1","3","demographics","gender","0","0","0","0","female","1","4849"
"012320","13:06:41","239227130","40414465","5.0.14.0","1","1","demographics","ProlificCode","0","0","0","0","5e1db749a6a74012548dd5b5","1","17889"
"012320","13:06:41","239227130","40414465","5.0.14.0","1","2","demographics","age","0","0","0","0","27","1","5668"
"012320","13:06:41","239227130","40414465","5.0.14.0","1","3","demographics","gender","0","0","0","0","female","1","3666"
"012320","13:07:25","760749471","256654209","5.0.14.0","1","1","demographics","ProlificCode","0","0","0","0","5e242a62c530bd6afe798b2e","1","21409"
"012320","13:07:25","760749471","256654209","5.0.14.0","1","2","demographics","age","0","0","0","0","35","1","6099"
"012320","13:07:25","760749471","256654209","5.0.14.0","1","3","demographics","gender","0","0","0","0","female","1","6904"
"012320","13:07:32","732299585","172756511","5.0.14.0","1","1","demographics","ProlificCode","0","0","0","0","5e272cbaddb07c04bd862121","1","21895"
"012320","13:07:32","732299585","172756511","5.0.14.0","1","2","demographics","age","0","0","0","0","35","1","8015"
"012320","13:07:32","732299585","172756511","5.0.14.0","1","3","demographics","gender","0","0","0","0","Male","1","4793"
"012320","13:07:50","420908617","444858110","5.0.14.0","1","1","demographics","ProlificCode","0","0","0","0","5e20dced705d3f000ebcb44f","1","6839"
"012320","13:07:50","420908617","444858110","5.0.14.0","1","2","demographics","age","0","0","0","0","19","1","5289"
"012320","13:07:50","420908617","444858110","5.0.14.0","1","3","demographics","gender","0","0","0","0","Male","1","6370"
"012320","13:08:19","582003595","177856627","5.0.14.0","1","1","demographics","ProlificCode","0","0","0","0","5d5953319cd0f20015e1b1b3","1","50430"
"012320","13:08:19","582003595","177856627","5.0.14.0","1","2","demographics","age","0","0","0","0","23","1","3681"
"012320","13:08:19","582003595","177856627","5.0.14.0","1","3","demographics","gender","0","0","0","0","male","1","2866"
"012320","13:08:54","313875144","231035127","5.0.14.0","1","1","demographics","ProlificCode","0","0","0","0","5e18762ae80b8e1495d584d7","1","8246"
"012320","13:08:54","313875144","231035127","5.0.14.0","1","2","demographics","age","0","0","0","0","50","1","7656"
"012320","13:08:54","313875144","231035127","5.0.14.0","1","3","demographics","gender","0","0","0","0","female","1","9161"
"012320","13:09:28","358013253","32435442","5.0.14.0","1","1","demographics","ProlificCode","0","0","0","0","5de520da7dd34a0a31e28046","1","13873"
"012320","13:09:28","358013253","32435442","5.0.14.0","1","2","demographics","age","0","0","0","0","22","1","2691"
"012320","13:09:28","358013253","32435442","5.0.14.0","1","3","demographics","gender","0","0","0","0","M","1","3179"
"012320","13:08:48","711601591","612737229","5.0.15.0","1","1","demographics","ProlificCode","0","0","0","0","5e1f8b86d3ba572bf0c66650","1","30391"
"012320","13:08:48","711601591","612737229","5.0.15.0","1","2","demographics","age","0","0","0","0","27","1","5136"
"012320","13:08:48","711601591","612737229","5.0.15.0","1","3","demographics","gender","0","0","0","0","Female","1","5502"
"012320","13:09:51","762221696","702019007","5.0.14.0","1","1","demographics","ProlificCode","0","0","0","0","5d2d0643a792670017d0994e","1","18694"
"012320","13:09:51","762221696","702019007","5.0.14.0","1","2","demographics","age","0","0","0","0","57","1","5875"
"012320","13:09:51","762221696","702019007","5.0.14.0","1","3","demographics","gender","0","0","0","0","female","1","8495"
"012320","08:11:14","247193329","918606882","5.0.14.0","1","1","demographics","ProlificCode","0","0","0","0","5dd9850ee4bf2090766c21d8","1","11859"
"012320","08:11:14","247193329","918606882","5.0.14.0","1","2","demographics","age","0","0","0","0","32","1","2777"
"012320","08:11:14","247193329","918606882","5.0.14.0","1","3","demographics","gender","0","0","0","0","Female","1","6776"
"012320","13:12:27","789852597","749797574","5.0.14.0","1","1","demographics","ProlificCode","0","0","0","0","5e1eec82173db42211c0fa76","1","13210"
"012320","13:12:27","789852597","749797574","5.0.14.0","1","2","demographics","age","0","0","0","0","28 ","1","6721"
"012320","13:12:27","789852597","749797574","5.0.14.0","1","3","demographics","gender","0","0","0","0","Male","1","3892"
"012320","08:13:56","78039471","316187377","5.0.15.0","1","1","demographics","ProlificCode","0","0","0","0","5d8aa25549747c000171c202","1","44162"
"012320","08:13:56","78039471","316187377","5.0.15.0","1","2","demographics","age","0","0","0","0","32","1","3986"
"012320","08:13:56","78039471","316187377","5.0.15.0","1","3","demographics","gender","0","0","0","0","Female","1","5527"
"012320","13:14:46","830323408","789988893","5.0.14.0","1","1","demographics","ProlificCode","0","0","0","0","5e1479759a993faa6bb70c10","1","21472"
"012320","13:14:46","830323408","789988893","5.0.14.0","1","2","demographics","age","0","0","0","0","27","1","4614"
"012320","13:14:46","830323408","789988893","5.0.14.0","1","3","demographics","gender","0","0","0","0","Male","1","5004"
"012320","13:14:57","943648226","459632917","5.0.14.0","1","1","demographics","ProlificCode","0","0","0","0","5e20e7b3ed7a203f748184f6","1","6690"
"012320","13:14:57","943648226","459632917","5.0.14.0","1","2","demographics","age","0","0","0","0","30","1","6896"
"012320","13:14:57","943648226","459632917","5.0.14.0","1","3","demographics","gender","0","0","0","0","Female","1","11631"
"012320","13:15:44","32564339","397460714","5.0.14.0","1","1","demographics","ProlificCode","0","0","0","0","5dd91d3f7d45958a035c62cf","1","40096"
"012320","13:15:44","32564339","397460714","5.0.14.0","1","2","demographics","age","0","0","0","0","20","1","2951"
"012320","13:15:44","32564339","397460714","5.0.14.0","1","3","demographics","gender","0","0","0","0","male","1","3849"
"012320","13:18:05","154278897","645899775","5.0.14.0","1","1","demographics","ProlificCode","0","0","0","0","5dcff490b043890effa91b55","1","55084"
"012320","13:18:05","154278897","645899775","5.0.14.0","1","2","demographics","age","0","0","0","0","53","1","4425"
"012320","13:18:05","154278897","645899775","5.0.14.0","1","3","demographics","gender","0","0","0","0","Female","1","7081"
"012420","00:19:03","464370924","443860297","5.0.14.0","1","1","demographics","ProlificCode","0","0","0","0","5cfa72b09635b60001e85c56","1","8565"
"012420","00:19:03","464370924","443860297","5.0.14.0","1","2","demographics","age","0","0","0","0","30","1","3041"
"012420","00:19:03","464370924","443860297","5.0.14.0","1","3","demographics","gender","0","0","0","0","female","1","5154"
"012320","13:17:47","28935451","168393599","5.0.14.0","1","1","demographics","ProlificCode","0","0","0","0","5e197354efafa52185f71","1","60293"
"012320","13:17:47","28935451","168393599","5.0.14.0","1","2","demographics","age","0","0","0","0","47","1","16011"
"012320","13:17:47","28935451","168393599","5.0.14.0","1","3","demographics","gender","0","0","0","0","Male","1","7941"
"012320","13:18:28","617049490","292746900","5.0.14.0","1","1","demographics","ProlificCode","0","0","0","0","5e0d01d211999f4b2eb6c698","1","97879"
"012320","13:18:28","617049490","292746900","5.0.14.0","1","2","demographics","age","0","0","0","0","47","1","5975"
"012320","13:18:28","617049490","292746900","5.0.14.0","1","3","demographics","gender","0","0","0","0","female","1","6932"
"012320","09:19:30","451840922","475790417","5.0.14.0","1","1","demographics","ProlificCode","0","0","0","0","5dcccec0092079953154f997","1","23863"
"012320","09:19:30","451840922","475790417","5.0.14.0","1","2","demographics","age","0","0","0","0","36","1","10600"
"012320","09:19:30","451840922","475790417","5.0.14.0","1","3","demographics","gender","0","0","0","0","male","1","6553"
"012320","13:20:32","930182712","519606322","5.0.14.0","1","1","demographics","ProlificCode","0","0","0","0","5de27ca05fb5c82a37c2b8ae","1","10652"
"012320","13:20:32","930182712","519606322","5.0.14.0","1","2","demographics","age","0","0","0","0","21","1","2941"
"012320","13:20:32","930182712","519606322","5.0.14.0","1","3","demographics","gender","0","0","0","0","Male","1","2992"
"012320","08:20:37","979355131","263496132","5.0.14.0","1","1","demographics","ProlificCode","0","0","0","0","5e1fe1c6cf445f30a7342433","1","10968"
"012320","08:20:37","979355131","263496132","5.0.14.0","1","2","demographics","age","0","0","0","0","22","1","2331"
"012320","08:20:37","979355131","263496132","5.0.14.0","1","3","demographics","gender","0","0","0","0","Male","1","3562"
"012320","13:21:27","237975087","26378635","5.0.14.0","1","1","demographics","ProlificCode","0","0","0","0","5e15cac7820526bbd068f309","1","41645"
"012320","13:21:27","237975087","26378635","5.0.14.0","1","2","demographics","age","0","0","0","0","20","1","3378"
"012320","13:21:27","237975087","26378635","5.0.14.0","1","3","demographics","gender","0","0","0","0","female","1","4840"
"012320","09:21:32","892812998","157172179","5.0.14.0","1","1","demographics","ProlificCode","0","0","0","0","5caa534a19731a00190bb935","1","25125"
"012320","09:21:32","892812998","157172179","5.0.14.0","1","2","demographics","age","0","0","0","0","52","1","5238"
"012320","09:21:32","892812998","157172179","5.0.14.0","1","3","demographics","gender","0","0","0","0","male","1","7157"
"012320","13:22:08","980752605","265191732","5.0.14.0","1","1","demographics","ProlificCode","0","0","0","0","5e281bb2843527a3c193aae4","1","4011"
"012320","13:22:08","980752605","265191732","5.0.14.0","1","2","demographics","age","0","0","0","0","30","1","4781"
"012320","13:22:08","980752605","265191732","5.0.14.0","1","3","demographics","gender","0","0","0","0","Male","1","4233"
"012320","06:22:26","938522367","740073869","5.0.14.0","1","1","demographics","ProlificCode","0","0","0","0","5d13b698926cfc001a1234b9","1","19823"
"012320","06:22:26","938522367","740073869","5.0.14.0","1","2","demographics","age","0","0","0","0","52","1","5074"
"012320","06:22:26","938522367","740073869","5.0.14.0","1","3","demographics","gender","0","0","0","0","female","1","9507"
"012320","08:23:08","996810161","256587365","5.0.14.0","1","1","demographics","ProlificCode","0","0","0","0","5d51be438f170e0015abeff0","1","15427"
"012320","08:23:08","996810161","256587365","5.0.14.0","1","2","demographics","age","0","0","0","0","39","1","4342"
"012320","08:23:08","996810161","256587365","5.0.14.0","1","3","demographics","gender","0","0","0","0","female","1","5963"
"012320","07:22:45","320241318","299397832","5.0.14.0","1","1","demographics","ProlificCode","0","0","0","0","5df18b726f6c630ae1fbcf0b","1","54223"
"012320","07:22:45","320241318","299397832","5.0.14.0","1","2","demographics","age","0","0","0","0","31","1","3802"
"012320","07:22:45","320241318","299397832","5.0.14.0","1","3","demographics","gender","0","0","0","0","Male","1","4760"
"012320","08:24:15","946452754","54181250","5.0.14.0","1","1","demographics","ProlificCode","0","0","0","0","5da8d0f95af0e400163fdfe6","1","3901"
"012320","08:24:15","946452754","54181250","5.0.14.0","1","2","demographics","age","0","0","0","0","23","1","3988"
"012320","08:24:15","946452754","54181250","5.0.14.0","1","3","demographics","gender","0","0","0","0","Female","1","6213"
"012320","07:24:31","546162756","142604711","5.0.14.0","1","1","demographics","ProlificCode","0","0","0","0","5dee44454d7bea4e3f4b44a6","1","15071"
"012320","07:24:31","546162756","142604711","5.0.14.0","1","2","demographics","age","0","0","0","0","32","1","2859"
"012320","07:24:31","546162756","142604711","5.0.14.0","1","3","demographics","gender","0","0","0","0","Female","1","4514"
"012320","13:20:56","977424563","956581077","5.0.14.0","1","1","demographics","ProlificCode","0","0","0","0","5e18ca0eba65e719f09679ba","1","240216"
"012320","13:20:56","977424563","956581077","5.0.14.0","1","2","demographics","age","0","0","0","0","29","1","3776"
"012320","13:20:56","977424563","956581077","5.0.14.0","1","3","demographics","gender","0","0","0","0","female","1","5826"
"012320","08:24:39","805066421","858548903","5.0.14.0","1","1","demographics","ProlificCode","0","0","0","0","5cd864ee31d19f001742571d","1","4477"
"012320","08:24:39","805066421","858548903","5.0.14.0","1","2","demographics","age","0","0","0","0","28","1","3148"
"012320","08:24:39","805066421","858548903","5.0.14.0","1","3","demographics","gender","0","0","0","0","Female","1","3165"
"012320","13:24:56","285672358","33872229","5.0.14.0","1","1","demographics","ProlificCode","0","0","0","0","5e21808f27b7894617c03395","1","15649"
"012320","13:24:56","285672358","33872229","5.0.14.0","1","2","demographics","age","0","0","0","0","28 ","1","4543"
"012320","13:24:56","285672358","33872229","5.0.14.0","1","3","demographics","gender","0","0","0","0","male","1","4539"
"012320","13:25:44","369526916","962919588","5.0.14.0","1","1","demographics","ProlificCode","0","0","0","0","5db1c65b9b8c70000c5229a6","1","5394"
"012320","13:25:44","369526916","962919588","5.0.14.0","1","2","demographics","age","0","0","0","0","28","1","4569"
"012320","13:25:44","369526916","962919588","5.0.14.0","1","3","demographics","gender","0","0","0","0","male","1","3380"
"012320","13:25:24","723148221","981965007","5.0.14.0","1","1","demographics","ProlificCode","0","0","0","0","5debb7511e806c2a59cad664","1","79429"
"012320","13:25:24","723148221","981965007","5.0.14.0","1","2","demographics","age","0","0","0","0","21","1","8069"
"012320","13:25:24","723148221","981965007","5.0.14.0","1","3","demographics","gender","0","0","0","0","female","1","2881"
"012320","08:25:31","673285867","543926415","5.0.14.0","1","1","demographics","ProlificCode","0","0","0","0","5e1d34c02418b30c65d69c8e","1","35741"
"012320","08:25:31","673285867","543926415","5.0.14.0","1","2","demographics","age","0","0","0","0","27","1","3848"
"012320","08:25:31","673285867","543926415","5.0.14.0","1","3","demographics","gender","0","0","0","0","female","1","7011"
"012320","08:26:42","770130563","241082593","5.0.15.0","1","1","demographics","ProlificCode","0","0","0","0","5e14d1702e4725adf9302ea3","1","22590"
"012320","08:26:42","770130563","241082593","5.0.15.0","1","2","demographics","age","0","0","0","0","28","1","5071"
"012320","08:26:42","770130563","241082593","5.0.15.0","1","3","demographics","gender","0","0","0","0","Female","1","8591"
"012320","13:27:25","28737137","706281989","5.0.14.0","1","1","demographics","ProlificCode","0","0","0","0","5a6c4138ab58b500015f4913","1","22211"
"012320","13:27:25","28737137","706281989","5.0.14.0","1","2","demographics","age","0","0","0","0","27","1","3868"
"012320","13:27:25","28737137","706281989","5.0.14.0","1","3","demographics","gender","0","0","0","0","Female","1","5283"
"012320","08:28:21","871907090","237392409","5.0.14.0","1","1","demographics","ProlificCode","0","0","0","0","5be5f7390e366e0001759709","1","9761"
"012320","08:28:21","871907090","237392409","5.0.14.0","1","2","demographics","age","0","0","0","0","28","1","2269"
"012320","08:28:21","871907090","237392409","5.0.14.0","1","3","demographics","gender","0","0","0","0","Male","1","4136"
"012320","15:28:36","230824238","132548792","5.0.14.0","1","1","demographics","ProlificCode","0","0","0","0","5e27570518a04b0294691391","1","27684"
"012320","15:28:36","230824238","132548792","5.0.14.0","1","2","demographics","age","0","0","0","0","39","1","4440"
"012320","15:28:36","230824238","132548792","5.0.14.0","1","3","demographics","gender","0","0","0","0","female","1","8301"
"012320","08:29:27","809150755","925038743","5.0.14.0","1","1","demographics","ProlificCode","0","0","0","0","5e23351bfa970c5db84b57a1","1","8889"
"012320","08:29:27","809150755","925038743","5.0.14.0","1","2","demographics","age","0","0","0","0","23","1","3225"
"012320","08:29:27","809150755","925038743","5.0.14.0","1","3","demographics","gender","0","0","0","0","Female","1","4712"
"012320","07:31:27","553629149","48944973","5.0.14.0","1","1","demographics","ProlificCode","0","0","0","0","5c58630535c78b00010d0641","1","7057"
"012320","07:31:27","553629149","48944973","5.0.14.0","1","2","demographics","age","0","0","0","0","32","1","5460"
"012320","07:31:27","553629149","48944973","5.0.14.0","1","3","demographics","gender","0","0","0","0","male","1","4831"
"012320","08:31:53","368315343","190841178","5.0.14.0","1","1","demographics","ProlificCode","0","0","0","0","56874655369319000b268ef1","1","8691"
"012320","08:31:53","368315343","190841178","5.0.14.0","1","2","demographics","age","0","0","0","0","52","1","4354"
"012320","08:31:53","368315343","190841178","5.0.14.0","1","3","demographics","gender","0","0","0","0","female","1","11480"
"012320","08:33:35","843090930","107450118","5.0.14.0","1","1","demographics","ProlificCode","0","0","0","0","","1","40485"
"012320","13:33:58","305593888","58666523","5.0.14.0","1","1","demographics","ProlificCode","0","0","0","0","5e21998fe37cd947ae04565b","1","25490"
"012320","13:33:58","305593888","58666523","5.0.14.0","1","2","demographics","age","0","0","0","0","19","1","3048"
"012320","13:33:58","305593888","58666523","5.0.14.0","1","3","demographics","gender","0","0","0","0","female","1","4705"
"012320","13:34:44","655798540","714153786","5.0.14.0","1","1","demographics","ProlificCode","0","0","0","0","5d17acf5f0b3c1001a263d57","1","4333"
"012320","13:34:44","655798540","714153786","5.0.14.0","1","2","demographics","age","0","0","0","0","42","1","2330"
"012320","13:34:44","655798540","714153786","5.0.14.0","1","3","demographics","gender","0","0","0","0","Female","1","3887"
"012320","13:35:28","2509983","366147815","5.0.14.0","1","1","demographics","ProlificCode","0","0","0","0","5e23","1","9614"
"012320","13:35:28","2509983","366147815","5.0.14.0","1","2","demographics","age","0","0","0","0","52","1","6887"
"012320","13:35:28","2509983","366147815","5.0.14.0","1","3","demographics","gender","0","0","0","0","female","1","5958"
"012320","13:35:48","891988616","176427757","5.0.14.0","1","1","demographics","ProlificCode","0","0","0","0","5e21998fe37cd947ae04565b","1","30526"
"012320","13:35:48","891988616","176427757","5.0.14.0","1","2","demographics","age","0","0","0","0","19","1","3283"
"012320","13:35:48","891988616","176427757","5.0.14.0","1","3","demographics","gender","0","0","0","0","female","1","4253"
"012320","13:35:58","972584711","821297833","5.0.14.0","1","1","demographics","ProlificCode","0","0","0","0","5e24a248233c6c71ca692068","1","17875"
"012320","13:35:58","972584711","821297833","5.0.14.0","1","2","demographics","age","0","0","0","0","23","1","3354"
"012320","13:35:58","972584711","821297833","5.0.14.0","1","3","demographics","gender","0","0","0","0","Male","1","3992"
"012320","07:37:29","197947255","873644651","5.0.14.0","1","1","demographics","ProlificCode","0","0","0","0","5e260ea4e8ff3a85e65395ac","1","96293"
"012320","07:37:29","197947255","873644651","5.0.14.0","1","2","demographics","age","0","0","0","0","63","1","5154"
"012320","07:37:29","197947255","873644651","5.0.14.0","1","3","demographics","gender","0","0","0","0","male","1","8632"
"012320","13:44:22","825653551","31170097","5.0.14.0","1","1","demographics","ProlificCode","0","0","0","0","5e1e4356262a5b1b0927fd37","1","6792"
"012320","13:44:22","825653551","31170097","5.0.14.0","1","2","demographics","age","0","0","0","0","35","1","6482"
"012320","13:44:22","825653551","31170097","5.0.14.0","1","3","demographics","gender","0","0","0","0","female","1","5509"
"012320","08:41:26","682757294","973916649","5.0.14.0","1","1","demographics","ProlificCode","0","0","0","0","5e07aaaf6e8aab10e91884fb","1","19044"
"012320","08:41:26","682757294","973916649","5.0.14.0","1","2","demographics","age","0","0","0","0","18","1","3270"
"012320","08:41:26","682757294","973916649","5.0.14.0","1","3","demographics","gender","0","0","0","0","Male","1","3445"
"012320","13:41:32","655385461","946544815","5.0.14.0","1","1","demographics","ProlificCode","0","0","0","0","5e136526b199e499e81522c7","1","21110"
"012320","13:41:32","655385461","946544815","5.0.14.0","1","2","demographics","age","0","0","0","0","52","1","3710"
"012320","13:41:32","655385461","946544815","5.0.14.0","1","3","demographics","gender","0","0","0","0","Male","1","4660"
"012320","13:41:31","830622320","633068216","5.0.14.0","1","1","demographics","ProlificCode","0","0","0","0","5e1e6eccd727e91c36a943fd","1","4770"
"012320","13:41:31","830622320","633068216","5.0.14.0","1","2","demographics","age","0","0","0","0","44","1","2928"
"012320","13:41:31","830622320","633068216","5.0.14.0","1","3","demographics","gender","0","0","0","0","Male","1","6937"
"012320","13:43:03","46652458","337513661","5.0.14.0","1","1","demographics","ProlificCode","0","0","0","0","5e175840214d1f066ef051a3","1","18642"
"012320","13:43:03","46652458","337513661","5.0.14.0","1","2","demographics","age","0","0","0","0","30","1","2452"
"012320","13:43:03","46652458","337513661","5.0.14.0","1","3","demographics","gender","0","0","0","0","male","1","3755"
"012320","13:42:09","150786166","204268642","5.0.14.0","1","1","demographics","ProlificCode","0","0","0","0","5df27a77194d291938f3bea5","1","59968"
"012320","13:42:09","150786166","204268642","5.0.14.0","1","2","demographics","age","0","0","0","0","22","1","5061"
"012320","13:42:09","150786166","204268642","5.0.14.0","1","3","demographics","gender","0","0","0","0","Female","1","5125"
"012320","08:43:19","197655622","404662778","5.0.14.0","1","1","demographics","ProlificCode","0","0","0","0","5e138d63398bb69ca0651a67","1","13555"
"012320","08:43:19","197655622","404662778","5.0.14.0","1","2","demographics","age","0","0","0","0","22","1","1783"
"012320","08:43:19","197655622","404662778","5.0.14.0","1","3","demographics","gender","0","0","0","0","male","1","4666"
"012320","13:43:11","882579311","404695321","5.0.14.0","1","1","demographics","ProlificCode","0","0","0","0","5e25b9cb801e96807c6d9060","1","19906"
"012320","13:43:11","882579311","404695321","5.0.14.0","1","2","demographics","age","0","0","0","0","35","1","3985"
"012320","13:43:11","882579311","404695321","5.0.14.0","1","3","demographics","gender","0","0","0","0","Female","1","3798"
"012320","13:43:33","206586013","549554979","5.0.14.0","1","1","demographics","ProlificCode","0","0","0","0","5e14e7927855d3b0720521c8","1","27180"
"012320","13:43:33","206586013","549554979","5.0.14.0","1","2","demographics","age","0","0","0","0","55","1","2722"
"012320","13:43:33","206586013","549554979","5.0.14.0","1","3","demographics","gender","0","0","0","0","female","1","5346"
"012320","08:44:21","366671882","494480318","5.0.14.0","1","1","demographics","ProlificCode","0","0","0","0","5e1fc8d45427912f6143b012","1","5744"
"012320","08:44:21","366671882","494480318","5.0.14.0","1","2","demographics","age","0","0","0","0","57","1","2748"
"012320","08:44:21","366671882","494480318","5.0.14.0","1","3","demographics","gender","0","0","0","0","female","1","6443"
"012320","13:45:16","334095548","751390472","5.0.14.0","1","1","demographics","ProlificCode","0","0","0","0","5e136526b199e499e81522c7","1","19059"
"012320","13:45:16","334095548","751390472","5.0.14.0","1","2","demographics","age","0","0","0","0","52","1","4357"
"012320","13:45:16","334095548","751390472","5.0.14.0","1","3","demographics","gender","0","0","0","0","Male","1","4424"
"012320","14:46:23","317776857","836843570","5.0.14.0","1","1","demographics","ProlificCode","0","0","0","0","5e18e9c40c89d90139d2a289","1","9982"
"012320","14:46:23","317776857","836843570","5.0.14.0","1","2","demographics","age","0","0","0","0","28","1","4620"
"012320","14:46:23","317776857","836843570","5.0.14.0","1","3","demographics","gender","0","0","0","0","Female","1","7992"
"012320","13:46:10","351966937","842998902","5.0.14.0","1","1","demographics","ProlificCode","0","0","0","0","5e25b2ac26d974818086e0ee","1","29009"
"012320","13:46:10","351966937","842998902","5.0.14.0","1","2","demographics","age","0","0","0","0","33","1","2752"
"012320","13:46:10","351966937","842998902","5.0.14.0","1","3","demographics","gender","0","0","0","0","Female","1","3394"
"012320","08:46:02","30029814","6080319","5.0.14.0","1","1","demographics","ProlificCode","0","0","0","0","5dbec8af4a8eb43937c03d2b","1","39225"
"012320","08:46:02","30029814","6080319","5.0.14.0","1","2","demographics","age","0","0","0","0","20","1","5054"
"012320","08:46:02","30029814","6080319","5.0.14.0","1","3","demographics","gender","0","0","0","0","Male","1","7346"
"012320","13:47:38","447169891","355671407","5.0.14.0","1","1","demographics","ProlificCode","0","0","0","0","5dfbabdfdd997b8ccc6ece2b","1","16982"
"012320","13:47:38","447169891","355671407","5.0.14.0","1","2","demographics","age","0","0","0","0","23","1","4090"
"012320","13:47:38","447169891","355671407","5.0.14.0","1","3","demographics","gender","0","0","0","0","female","1","7386"
"012320","13:47:43","103371520","899686086","5.0.14.0","1","1","demographics","ProlificCode","0","0","0","0","5dea9ee2828afe1c64a0dea2","1","24688"
"012320","13:47:43","103371520","899686086","5.0.14.0","1","2","demographics","age","0","0","0","0","22","1","6088"
"012320","13:47:43","103371520","899686086","5.0.14.0","1","3","demographics","gender","0","0","0","0","Male","1","2178"
"012320","13:49:37","472935089","375894219","5.0.14.0","1","1","demographics","ProlificCode","0","0","0","0","5a24facd7413810001521f7a","1","5960"
"012320","13:49:37","472935089","375894219","5.0.14.0","1","2","demographics","age","0","0","0","0","22","1","3000"
"012320","13:49:37","472935089","375894219","5.0.14.0","1","3","demographics","gender","0","0","0","0","female","1","6460"
"012320","13:50:40","891970807","3983155","5.0.14.0","1","1","demographics","ProlificCode","0","0","0","0","5e1e1f9494ee10000d2fa33c","1","3029"
"012320","13:50:40","891970807","3983155","5.0.14.0","1","2","demographics","age","0","0","0","0","23","1","2939"
"012320","13:50:40","891970807","3983155","5.0.14.0","1","3","demographics","gender","0","0","0","0","Male","1","4148"
"012320","08:48:39","511268121","875800345","5.0.14.0","1","1","demographics","ProlificCode","0","0","0","0","5e1fa60088eb2e2d97c4a4a7","1","40125"
"012320","08:48:39","511268121","875800345","5.0.14.0","1","2","demographics","age","0","0","0","0","49","1","3940"
"012320","08:48:39","511268121","875800345","5.0.14.0","1","3","demographics","gender","0","0","0","0","female","1","7393"
"012320","13:50:08","385536854","161771481","5.0.14.0","1","1","demographics","ProlificCode","0","0","0","0","5e1a08fad65aef28cd8937f2","1","47901"
"012320","13:50:08","385536854","161771481","5.0.14.0","1","2","demographics","age","0","0","0","0","30","1","3407"
"012320","13:50:08","385536854","161771481","5.0.14.0","1","3","demographics","gender","0","0","0","0","male","1","2894"
"012320","13:50:54","256692459","515509239","5.0.14.0","1","1","demographics","ProlificCode","0","0","0","0","5e22f8f46e850f000a7f7a0e","1","81589"
"012320","13:50:54","256692459","515509239","5.0.14.0","1","2","demographics","age","0","0","0","0","23","1","2590"
"012320","13:50:54","256692459","515509239","5.0.14.0","1","3","demographics","gender","0","0","0","0","Female","1","3101"
"012320","13:52:52","112358680","865431302","5.0.14.0","1","1","demographics","ProlificCode","0","0","0","0","5e07dcb369a11714d628ec22","1","9832"
"012320","13:52:52","112358680","865431302","5.0.14.0","1","2","demographics","age","0","0","0","0","45","1","3087"
"012320","13:52:52","112358680","865431302","5.0.14.0","1","3","demographics","gender","0","0","0","0","male","1","4119"
"012320","08:53:14","689916440","412493991","5.0.14.0","1","1","demographics","ProlificCode","0","0","0","0","5aea88ec1aff900001cc0e55","1","11799"
"012320","08:53:14","689916440","412493991","5.0.14.0","1","2","demographics","age","0","0","0","0","24","1","3468"
"012320","08:53:14","689916440","412493991","5.0.14.0","1","3","demographics","gender","0","0","0","0","Female","1","3463"
"012320","13:53:07","622647308","965895774","5.0.14.0","1","1","demographics","ProlificCode","0","0","0","0","5e184b1cb55f891211794ea6","1","45068"
"012320","13:53:07","622647308","965895774","5.0.14.0","1","2","demographics","age","0","0","0","0","35","1","5936"
"012320","13:53:07","622647308","965895774","5.0.14.0","1","3","demographics","gender","0","0","0","0","Male","1","3466"
"012320","07:54:39","699916139","417315467","5.0.14.0","1","1","demographics","ProlificCode","0","0","0","0","55f079ba4779250012dd2bc4","1","12464"
"012320","07:54:39","699916139","417315467","5.0.14.0","1","2","demographics","age","0","0","0","0","28","1","2151"
"012320","07:54:39","699916139","417315467","5.0.14.0","1","3","demographics","gender","0","0","0","0","female","1","2823"
"012320","13:54:38","311744679","290603070","5.0.14.0","1","1","demographics","ProlificCode","0","0","0","0","5aeb43377ed5460001572b4f","1","17265"
"012320","13:54:38","311744679","290603070","5.0.14.0","1","2","demographics","age","0","0","0","0","19","1","6728"
"012320","13:54:38","311744679","290603070","5.0.14.0","1","3","demographics","gender","0","0","0","0","female","1","3274"
"012320","08:55:38","201212065","723328040","5.0.14.0","1","1","demographics","ProlificCode","0","0","0","0","5c79da9fc44ec60016182566","1","33028"
"012320","08:55:38","201212065","723328040","5.0.14.0","1","2","demographics","age","0","0","0","0","18","1","3028"
"012320","08:55:38","201212065","723328040","5.0.14.0","1","3","demographics","gender","0","0","0","0","female","1","3387"
"012320","07:56:17","158704829","748426545","5.0.14.0","1","1","demographics","ProlificCode","0","0","0","0","5e23af71bdc7666533a51fd4","1","6082"
"012320","07:56:17","158704829","748426545","5.0.14.0","1","2","demographics","age","0","0","0","0","43","1","4169"
"012320","07:56:17","158704829","748426545","5.0.14.0","1","3","demographics","gender","0","0","0","0","female","1","8809"
"012320","13:59:49","499174432","790333779","5.0.14.0","1","1","demographics","ProlificCode","0","0","0","0","5e1e474965b6d31a987aacfc","1","14775"
"012320","13:59:49","499174432","790333779","5.0.14.0","1","2","demographics","age","0","0","0","0","28","1","4044"
"012320","13:59:49","499174432","790333779","5.0.14.0","1","3","demographics","gender","0","0","0","0","Female","1","5692"
"012320","13:53:17","879533072","754748258","5.0.14.0","1","1","demographics","ProlificCode","0","0","0","0","5e263388efffb6000d807f91","1","33368"
"012320","13:53:17","879533072","754748258","5.0.14.0","1","2","demographics","age","0","0","0","0","56","1","11440"
"012320","13:53:17","879533072","754748258","5.0.14.0","1","3","demographics","gender","0","0","0","0","female","1","5596"
"012320","14:00:41","835777001","331390964","5.0.14.0","1","1","demographics","ProlificCode","0","0","0","0","5e26052bdac57484bff2bfe6","1","19048"
"012320","14:00:41","835777001","331390964","5.0.14.0","1","2","demographics","age","0","0","0","0","20","1","3195"
"012320","14:00:41","835777001","331390964","5.0.14.0","1","3","demographics","gender","0","0","0","0","female","1","2532"
"012320","14:00:52","213078391","420085544","5.0.14.0","1","1","demographics","ProlificCode","0","0","0","0","5e2722125e7a88029b13e794","1","13910"
"012320","14:00:52","213078391","420085544","5.0.14.0","1","2","demographics","age","0","0","0","0","34","1","6773"
"012320","14:00:52","213078391","420085544","5.0.14.0","1","3","demographics","gender","0","0","0","0","Female","1","4915"
"012320","20:00:59","306829700","442771668","5.0.14.0","1","1","demographics","ProlificCode","0","0","0","0","5e15ca7bf6191fbb43eef1f1","1","10018"
"012320","20:00:59","306829700","442771668","5.0.14.0","1","2","demographics","age","0","0","0","0","38","1","8581"
"012320","20:00:59","306829700","442771668","5.0.14.0","1","3","demographics","gender","0","0","0","0","male","1","6978"
"012320","14:02:21","46846399","412331690","5.0.14.0","1","1","demographics","ProlificCode","0","0","0","0","5e1f52deaab404037a5a19de","1","18572"
"012320","14:02:21","46846399","412331690","5.0.14.0","1","2","demographics","age","0","0","0","0","43","1","3931"
"012320","14:02:21","46846399","412331690","5.0.14.0","1","3","demographics","gender","0","0","0","0","female","1","5263"
"012320","14:02:43","337462522","907104286","5.0.14.0","1","1","demographics","ProlificCode","0","0","0","0","5de4e677e3e0cc47d22a3860","1","8815"
"012320","14:02:43","337462522","907104286","5.0.14.0","1","2","demographics","age","0","0","0","0","24","1","2567"
"012320","14:02:43","337462522","907104286","5.0.14.0","1","3","demographics","gender","0","0","0","0","male","1","5560"
"012320","14:03:20","781146003","578049515","5.0.14.0","1","1","demographics","ProlificCode","0","0","0","0","5d5433e27add170018c5f65a","1","5975"
"012320","14:03:20","781146003","578049515","5.0.14.0","1","2","demographics","age","0","0","0","0","45","1","3816"
"012320","14:03:20","781146003","578049515","5.0.14.0","1","3","demographics","gender","0","0","0","0","female","1","4213"
"012320","14:01:25","995852877","101733908","5.0.14.0","1","1","demographics","ProlificCode","0","0","0","0","5e1db4ca1bad6c12ae83","1","151173"
"012320","14:01:25","995852877","101733908","5.0.14.0","1","2","demographics","age","0","0","0","0","27","1","3016"
"012320","14:01:25","995852877","101733908","5.0.14.0","1","3","demographics","gender","0","0","0","0","Male","1","11675"
"012320","14:05:02","869448463","125640820","5.0.14.0","1","1","demographics","ProlificCode","0","0","0","0","5e249f815e04db720e47d872","1","74178"
"012320","14:05:02","869448463","125640820","5.0.14.0","1","2","demographics","age","0","0","0","0","18","1","3175"
"012320","14:05:02","869448463","125640820","5.0.14.0","1","3","demographics","gender","0","0","0","0","F","1","2764"
"012320","07:06:15","439801230","805286532","5.0.14.0","1","1","demographics","ProlificCode","0","0","0","0","5dced33fc944d1018c53c520  ","1","5230"
"012320","07:06:15","439801230","805286532","5.0.14.0","1","2","demographics","age","0","0","0","0","44","1","3374"
"012320","07:06:15","439801230","805286532","5.0.14.0","1","3","demographics","gender","0","0","0","0","Female","1","4670"
"012320","09:05:14","298522866","948621894","5.0.14.0","1","1","demographics","ProlificCode","0","0","0","0","5e0e71742cf388000cd7c","1","112518"
"012320","09:05:14","298522866","948621894","5.0.14.0","1","2","demographics","age","0","0","0","0","48","1","3300"
"012320","09:05:14","298522866","948621894","5.0.14.0","1","3","demographics","gender","0","0","0","0","Female","1","5590"
"012320","14:07:44","772493593","64887535","5.0.14.0","1","1","demographics","ProlificCode","0","0","0","0","5d0e9a059193b80001e7fcb0","1","6547"
"012320","14:07:44","772493593","64887535","5.0.14.0","1","2","demographics","age","0","0","0","0","30","1","4131"
"012320","14:07:44","772493593","64887535","5.0.14.0","1","3","demographics","gender","0","0","0","0","Female","1","4835"
"012320","14:06:26","856688179","812069835","5.0.14.0","1","1","demographics","ProlificCode","0","0","0","0","5e1f7b5450f6aa0122fcef8b","1","86007"
"012320","14:06:26","856688179","812069835","5.0.14.0","1","2","demographics","age","0","0","0","0","33","1","3580"
"012320","14:06:26","856688179","812069835","5.0.14.0","1","3","demographics","gender","0","0","0","0","female","1","4324"
"012320","14:08:26","402973373","766611210","5.0.15.0","1","1","demographics","ProlificCode","0","0","0","0","","1","18180"
"012320","09:09:29","839112868","230196566","5.0.14.0","1","1","demographics","ProlificCode","0","0","0","0","","1","27928"
"012320","07:13:25","743081517","264899398","5.0.14.0","1","1","demographics","ProlificCode","0","0","0","0","5e1f8f1bcf46ff2b6765b45b","1","12905"
"012320","07:13:25","743081517","264899398","5.0.14.0","1","2","demographics","age","0","0","0","0","32","1","3546"
"012320","07:13:25","743081517","264899398","5.0.14.0","1","3","demographics","gender","0","0","0","0","Male","1","6125"
"012320","14:12:43","456276598","674344557","5.0.14.0","1","1","demographics","ProlificCode","0","0","0","0","5e20b90a699ac43c800d7e9e","1","68725"
"012320","14:12:43","456276598","674344557","5.0.14.0","1","2","demographics","age","0","0","0","0","28","1","3114"
"012320","14:12:43","456276598","674344557","5.0.14.0","1","3","demographics","gender","0","0","0","0","female","1","4762"
"012320","14:17:55","162742222","654363103","5.0.14.0","1","1","demographics","ProlificCode","0","0","0","0","5e277040a6a7409aa0b3b980","1","26293"
"012320","14:17:55","162742222","654363103","5.0.14.0","1","2","demographics","age","0","0","0","0","55","1","7935"
"012320","14:17:55","162742222","654363103","5.0.14.0","1","3","demographics","gender","0","0","0","0","female","1","8554"
"012320","14:18:53","345267809","451148831","5.0.14.0","1","1","demographics","ProlificCode","0","0","0","0","5df00180618c1506c3980f98","1","4853"
"012320","14:18:53","345267809","451148831","5.0.14.0","1","2","demographics","age","0","0","0","0","23","1","3304"
"012320","14:18:53","345267809","451148831","5.0.14.0","1","3","demographics","gender","0","0","0","0","female","1","7597"
"012320","09:25:35","124638464","389586549","5.0.14.0","1","1","demographics","ProlificCode","0","0","0","0","5b211ec09ffb8a000184070e","1","7330"
"012320","09:25:35","124638464","389586549","5.0.14.0","1","2","demographics","age","0","0","0","0","32","1","2928"
"012320","09:25:35","124638464","389586549","5.0.14.0","1","3","demographics","gender","0","0","0","0","Male","1","8813"
"012320","09:30:55","386699898","824074773","5.0.14.0","1","1","demographics","ProlificCode","0","0","0","0","5de80c443cfa79000e44d478","1","12194"
"012320","09:30:55","386699898","824074773","5.0.14.0","1","2","demographics","age","0","0","0","0","23","1","4420"
"012320","09:30:55","386699898","824074773","5.0.14.0","1","3","demographics","gender","0","0","0","0","female","1","5124"
"012320","14:32:45","902284902","705319709","5.0.14.0","1","1","demographics","ProlificCode","0","0","0","0","5e175f6bf932de02bb2e4972","1","3489"
"012320","14:32:45","902284902","705319709","5.0.14.0","1","2","demographics","age","0","0","0","0","35","1","2802"
"012320","14:32:45","902284902","705319709","5.0.14.0","1","3","demographics","gender","0","0","0","0","Male","1","2709"
"012320","20:31:14","196557243","949629863","5.0.14.0","1","1","demographics","ProlificCode","0","0","0","0","5e1532e40db892b4508c72e0","1","2933"
"012320","20:31:14","196557243","949629863","5.0.14.0","1","2","demographics","age","0","0","0","0","40 ","1","152231"
"012320","20:31:14","196557243","949629863","5.0.14.0","1","3","demographics","gender","0","0","0","0","Male","1","93266"
"012320","09:36:06","163024454","521789528","5.0.14.0","1","1","demographics","ProlificCode","0","0","0","0","5c3e19892ae6030001c74cc8","1","5653"
"012320","09:36:06","163024454","521789528","5.0.14.0","1","2","demographics","age","0","0","0","0","43","1","3209"
"012320","09:36:06","163024454","521789528","5.0.14.0","1","3","demographics","gender","0","0","0","0","Female","1","5473"
"012320","08:43:33","103600218","462365299","5.0.14.0","1","1","demographics","ProlificCode","0","0","0","0","","1","3734364"
"012320","09:47:10","810981346","181985090","5.0.14.0","1","1","demographics","ProlificCode","0","0","0","0","5dcdef4dd30a0e0acb5b6fba","1","3720"
"012320","09:47:10","810981346","181985090","5.0.14.0","1","2","demographics","age","0","0","0","0","45","1","2998"
"012320","09:47:10","810981346","181985090","5.0.14.0","1","3","demographics","gender","0","0","0","0","male","1","4628"
"012320","14:53:32","84770644","734869675","5.0.14.0","1","1","demographics","ProlificCode","0","0","0","0","5e1b4375cd15fa36d5f2c3bd","1","8418"
"012320","14:53:32","84770644","734869675","5.0.14.0","1","2","demographics","age","0","0","0","0","30","1","4947"
"012320","14:53:32","84770644","734869675","5.0.14.0","1","3","demographics","gender","0","0","0","0","male","1","11957"
"012320","08:57:40","407504384","440582805","5.0.14.0","1","1","demographics","ProlificCode","0","0","0","0","5e1cee7be8ff3a08469e8743","1","7309"
"012320","08:57:40","407504384","440582805","5.0.14.0","1","2","demographics","age","0","0","0","0","18","1","2024"
"012320","08:57:40","407504384","440582805","5.0.14.0","1","3","demographics","gender","0","0","0","0","Female","1","3103"
"012320","15:01:52","685520733","587890964","5.0.14.0","1","1","demographics","ProlificCode","0","0","0","0","5e1750eb1b9484000d0790dd","1","25922"
"012320","15:01:52","685520733","587890964","5.0.14.0","1","2","demographics","age","0","0","0","0","19","1","3844"
"012320","15:01:52","685520733","587890964","5.0.14.0","1","3","demographics","gender","0","0","0","0","female","1","3989"
"012320","07:03:51","806986538","244105383","5.0.14.0","1","1","demographics","ProlificCode","0","0","0","0","5dcec8859595a10144aa910e","1","14892"
"012320","07:03:51","806986538","244105383","5.0.14.0","1","2","demographics","age","0","0","0","0","41","1","6503"
"012320","07:03:51","806986538","244105383","5.0.14.0","1","3","demographics","gender","0","0","0","0","female","1","5450"
"012320","10:09:23","339200660","546207815","5.0.14.0","1","1","demographics","ProlificCode","0","0","0","0","5de13649e3e0cc187a49411a","1","15922"
"012320","10:09:23","339200660","546207815","5.0.14.0","1","2","demographics","age","0","0","0","0","36","1","2318"
"012320","10:09:23","339200660","546207815","5.0.14.0","1","3","demographics","gender","0","0","0","0","Male","1","3712"
"012320","10:09:47","729633616","294991570","5.0.14.0","1","1","demographics","ProlificCode","0","0","0","0","5d446af8687d6c0019c0ca03","1","14497"
"012320","10:09:47","729633616","294991570","5.0.14.0","1","2","demographics","age","0","0","0","0","26","1","2865"
"012320","10:09:47","729633616","294991570","5.0.14.0","1","3","demographics","gender","0","0","0","0","F","1","2816"
"012320","10:21:38","521460871","264118372","5.0.14.0","1","1","demographics","ProlificCode","0","0","0","0","599ec7dc617ca80001fcd124","1","5207"
"012320","10:21:38","521460871","264118372","5.0.14.0","1","2","demographics","age","0","0","0","0","58","1","2868"
"012320","10:21:38","521460871","264118372","5.0.14.0","1","3","demographics","gender","0","0","0","0","male","1","3474"
"012320","11:42:10","943252819","3455531","5.0.14.0","1","1","demographics","ProlificCode","0","0","0","0","5d7989d048563d00169163f3","1","3368"
"012320","11:42:10","943252819","3455531","5.0.14.0","1","2","demographics","age","0","0","0","0","41","1","2965"
"012320","11:42:10","943252819","3455531","5.0.14.0","1","3","demographics","gender","0","0","0","0","Female","1","4170"
"012320","11:42:52","599449943","938723995","5.0.14.0","1","1","demographics","ProlificCode","0","0","0","0","5e276413061ea89a4e2a03f6","1","15525"
"012320","11:42:52","599449943","938723995","5.0.14.0","1","2","demographics","age","0","0","0","0","23","1","10735"
"012320","11:42:52","599449943","938723995","5.0.14.0","1","3","demographics","gender","0","0","0","0","male","1","4458"
"012320","08:43:50","492672398","618633380","5.0.14.0","1","1","demographics","ProlificCode","0","0","0","0","5b073dcbb5d8140001aa0fff ","1","2703"
"012320","08:43:50","492672398","618633380","5.0.14.0","1","2","demographics","age","0","0","0","0","35","1","2384"
"012320","08:43:50","492672398","618633380","5.0.14.0","1","3","demographics","gender","0","0","0","0","Male","1","4561"
"012320","11:43:42","985344706","961395216","5.0.14.0","1","1","demographics","ProlificCode","0","0","0","0","56f046e2a808e7000bcc4e3a","1","4385"
"012320","11:43:42","985344706","961395216","5.0.14.0","1","2","demographics","age","0","0","0","0","28 ","1","3822"
"012320","11:43:42","985344706","961395216","5.0.14.0","1","3","demographics","gender","0","0","0","0","male","1","3438"
"012320","08:43:42","790224061","762347576","5.0.14.0","1","1","demographics","ProlificCode","0","0","0","0","5cba8ffdbd78c0001337fbc6","1","12002"
"012320","08:43:42","790224061","762347576","5.0.14.0","1","2","demographics","age","0","0","0","0","25","1","5144"
"012320","08:43:42","790224061","762347576","5.0.14.0","1","3","demographics","gender","0","0","0","0","Female","1","4376"
"012320","10:43:47","199199181","256965497","5.0.14.0","1","1","demographics","ProlificCode","0","0","0","0","5dd6eec3dcec8768a0c1f881","1","17660"
"012320","10:43:47","199199181","256965497","5.0.14.0","1","2","demographics","age","0","0","0","0","32","1","2510"
"012320","10:43:47","199199181","256965497","5.0.14.0","1","3","demographics","gender","0","0","0","0","Female","1","2358"
"012320","11:44:18","130227439","952966724","5.0.14.0","1","1","demographics","ProlificCode","0","0","0","0","5c7dd776137b9900166d8da6","1","7059"
"012320","11:44:18","130227439","952966724","5.0.14.0","1","2","demographics","age","0","0","0","0","30","1","3656"
"012320","11:44:18","130227439","952966724","5.0.14.0","1","3","demographics","gender","0","0","0","0","male","1","4705"
"012320","11:44:35","880648113","396043905","5.0.14.0","1","1","demographics","ProlificCode","0","0","0","0","5e1625a253b56ec136feccf2","1","16713"
"012320","11:44:35","880648113","396043905","5.0.14.0","1","2","demographics","age","0","0","0","0","24","1","3897"
"012320","11:44:35","880648113","396043905","5.0.14.0","1","3","demographics","gender","0","0","0","0","female","1","6983"
"012320","10:44:53","533589834","329904423","5.0.14.0","1","1","demographics","ProlificCode","0","0","0","0","5d3e6776c99d69001a762a33","1","10453"
"012320","10:44:53","533589834","329904423","5.0.14.0","1","2","demographics","age","0","0","0","0","29","1","4026"
"012320","10:44:53","533589834","329904423","5.0.14.0","1","3","demographics","gender","0","0","0","0","Lady :)","1","14546"
"012320","11:45:28","130678482","493727402","5.0.14.0","1","1","demographics","ProlificCode","0","0","0","0","5e100eb453b56e71503d7205","1","14194"
"012320","11:45:28","130678482","493727402","5.0.14.0","1","2","demographics","age","0","0","0","0","20","1","2590"
"012320","11:45:28","130678482","493727402","5.0.14.0","1","3","demographics","gender","0","0","0","0","Non Binary","1","6161"
"012320","11:45:03","180573731","1841020","5.0.14.0","1","1","demographics","ProlificCode","0","0","0","0","5df7d36bdc853556a6747900","1","106822"
"012320","11:45:03","180573731","1841020","5.0.14.0","1","2","demographics","age","0","0","0","0","21","1","4656"
"012320","11:45:03","180573731","1841020","5.0.14.0","1","3","demographics","gender","0","0","0","0","Female","1","5261"
"012320","11:47:30","819977140","641244452","5.0.14.0","1","1","demographics","ProlificCode","0","0","0","0","5d9d2e421af9ed0011c31894","1","24094"
"012320","11:47:30","819977140","641244452","5.0.14.0","1","2","demographics","age","0","0","0","0","47","1","4772"
"012320","11:47:30","819977140","641244452","5.0.14.0","1","3","demographics","gender","0","0","0","0","Female","1","5213"
"012320","11:49:24","604390261","91611240","5.0.14.0","1","1","demographics","ProlificCode","0","0","0","0","5de66aea7e0115000c6affc3","1","107851"
"012320","11:49:24","604390261","91611240","5.0.14.0","1","2","demographics","age","0","0","0","0","34","1","3109"
"012320","11:49:24","604390261","91611240","5.0.14.0","1","3","demographics","gender","0","0","0","0","Female","1","4757"
"012320","11:45:11","476748653","450362792","5.0.14.0","1","1","demographics","ProlificCode","0","0","0","0","","1","457873"
"012320","16:52:36","750689358","262187716","5.0.14.0","1","1","demographics","ProlificCode","0","0","0","0","5e2819bfe9133a000cdbd842","1","13923"
"012320","16:52:36","750689358","262187716","5.0.14.0","1","2","demographics","age","0","0","0","0","48","1","3742"
"012320","16:52:36","750689358","262187716","5.0.14.0","1","3","demographics","gender","0","0","0","0","Male","1","4658"
"012320","16:52:10","916600478","822019964","5.0.14.0","1","1","demographics","ProlificCode","0","0","0","0","5e26f291ab132b92d1bb6544","1","67387"
"012320","16:52:10","916600478","822019964","5.0.14.0","1","2","demographics","age","0","0","0","0","31","1","3376"
"012320","16:52:10","916600478","822019964","5.0.14.0","1","3","demographics","gender","0","0","0","0","female","1","4619"
"012320","16:53:57","504811556","580624736","5.0.14.0","1","1","demographics","ProlificCode","0","0","0","0","5e25f47427b78983dc68a86a","1","4223"
"012320","16:53:57","504811556","580624736","5.0.14.0","1","2","demographics","age","0","0","0","0","24 ","1","4693"
"012320","16:53:57","504811556","580624736","5.0.14.0","1","3","demographics","gender","0","0","0","0","female","1","6674"
"012320","11:56:20","391782841","400552752","5.0.14.0","1","1","demographics","ProlificCode","0","0","0","0","5d34fd40eac3d50015df0391","1","6601"
"012320","11:56:20","391782841","400552752","5.0.14.0","1","2","demographics","age","0","0","0","0","37","1","4558"
"012320","11:56:20","391782841","400552752","5.0.14.0","1","3","demographics","gender","0","0","0","0","female","1","5929"
"012320","10:54:11","988619660","108998539","5.0.14.0","1","1","demographics","ProlificCode","0","0","0","0","5dcf143582a5270687e`","1","214354"
"012320","10:54:11","988619660","108998539","5.0.14.0","1","2","demographics","age","0","0","0","0","59","1","4865"
"012320","10:54:11","988619660","108998539","5.0.14.0","1","3","demographics","gender","0","0","0","0","female","1","6252"
"012320","12:00:36","487309173","451241954","5.0.14.0","1","1","demographics","ProlificCode","0","0","0","0","5c454961f5e3bc00014ed20b","1","15291"
"012320","12:00:36","487309173","451241954","5.0.14.0","1","2","demographics","age","0","0","0","0","24","1","16987"
"012320","12:00:36","487309173","451241954","5.0.14.0","1","3","demographics","gender","0","0","0","0","Male","1","9239"
