"","date","time","group","subject","build","blocknum","trialnum","blockcode","trialcode","pretrialpause","posttrialpause","trialduration","trialtimeout","response","correct","latency"
"1",12320,"12:15:43",681132935,163889718,"5.0.15.0",1,2,"demographics","age",0,0,0,0,"36",1,5220
"2",12320,"12:15:43",681132935,163889718,"5.0.15.0",1,3,"demographics","gender",0,0,0,0,"Female",1,8105
"3",12320,"12:23:02",970224731,180926818,"5.0.14.0",1,2,"demographics","age",0,0,0,0,"31",1,3377
"4",12320,"12:23:02",970224731,180926818,"5.0.14.0",1,3,"demographics","gender",0,0,0,0,"female",1,5876
"5",12320,"12:27:09",544936991,651705054,"5.0.14.0",1,2,"demographics","age",0,0,0,0,"32",1,2628
"6",12320,"12:27:09",544936991,651705054,"5.0.14.0",1,3,"demographics","gender",0,0,0,0,"female",1,5014
"7",12320,"12:29:00",868971590,848717023,"5.0.14.0",1,2,"demographics","age",0,0,0,0,"22",1,5149
"8",12320,"12:29:00",868971590,848717023,"5.0.14.0",1,3,"demographics","gender",0,0,0,0,"male",1,3136
"9",12320,"12:31:09",118306684,614509532,"5.0.14.0",1,2,"demographics","age",0,0,0,0,"29",1,6819
"10",12320,"12:31:09",118306684,614509532,"5.0.14.0",1,3,"demographics","gender",0,0,0,0,"female",1,7728
"11",12320,"12:35:53",544581221,266569838,"5.0.14.0",1,2,"demographics","age",0,0,0,0,"40",1,4019
"12",12320,"12:35:53",544581221,266569838,"5.0.14.0",1,3,"demographics","gender",0,0,0,0,"Female",1,5514
"13",12320,"07:35:45",262939046,59842540,"5.0.14.0",1,2,"demographics","age",0,0,0,0,"38",1,3445
"14",12320,"07:35:45",262939046,59842540,"5.0.14.0",1,3,"demographics","gender",0,0,0,0,"female",1,4031
"15",12320,"12:36:51",696662173,519776923,"5.0.14.0",1,2,"demographics","age",0,0,0,0,"22",1,3025
"16",12320,"12:36:51",696662173,519776923,"5.0.14.0",1,3,"demographics","gender",0,0,0,0,"Female",1,4213
"17",12320,"12:37:27",485081329,976702210,"5.0.14.0",1,2,"demographics","age",0,0,0,0,"27",1,3347
"18",12320,"12:37:27",485081329,976702210,"5.0.14.0",1,3,"demographics","gender",0,0,0,0,"Male",1,5291
"19",12320,"23:43:10",935637798,497674009,"5.0.14.0",1,2,"demographics","age",0,0,0,0,"37",1,3226
"20",12320,"23:43:10",935637798,497674009,"5.0.14.0",1,3,"demographics","gender",0,0,0,0,"Male",1,4499
"21",12320,"12:42:50",277149369,840659829,"5.0.14.0",1,2,"demographics","age",0,0,0,0,"21",1,7972
"22",12320,"12:42:50",277149369,840659829,"5.0.14.0",1,3,"demographics","gender",0,0,0,0,"Female",1,4594
"23",12320,"12:44:06",864022536,301706853,"5.0.14.0",1,2,"demographics","age",0,0,0,0,"38",1,3887
"24",12320,"12:44:06",864022536,301706853,"5.0.14.0",1,3,"demographics","gender",0,0,0,0,"female",1,5040
"25",12320,"12:44:57",45991968,25737401,"5.0.14.0",1,2,"demographics","age",0,0,0,0,"34 ",1,4160
"26",12320,"12:44:57",45991968,25737401,"5.0.14.0",1,3,"demographics","gender",0,0,0,0,"female",1,3586
"27",12320,"12:44:52",276451436,905803570,"5.0.14.0",1,2,"demographics","age",0,0,0,0,"26",1,3922
"28",12320,"12:44:52",276451436,905803570,"5.0.14.0",1,3,"demographics","gender",0,0,0,0,"Female",1,8092
"29",12320,"12:47:30",245076170,377168445,"5.0.14.0",1,2,"demographics","age",0,0,0,0,"40",1,3685
"30",12320,"12:47:30",245076170,377168445,"5.0.14.0",1,3,"demographics","gender",0,0,0,0,"Female",1,7825
"31",12320,"12:48:31",953229763,543242284,"5.0.14.0",1,2,"demographics","age",0,0,0,0,"49",1,4582
"32",12320,"12:48:31",953229763,543242284,"5.0.14.0",1,3,"demographics","gender",0,0,0,0,"female",1,5299
"33",12320,"12:49:29",285875121,187010750,"5.0.14.0",1,2,"demographics","age",0,0,0,0,"44",1,4259
"34",12320,"12:49:29",285875121,187010750,"5.0.14.0",1,3,"demographics","gender",0,0,0,0,"female",1,4854
"35",12320,"12:49:57",942106061,233265412,"5.0.15.0",1,2,"demographics","age",0,0,0,0,"23",1,5815
"36",12320,"12:49:57",942106061,233265412,"5.0.15.0",1,3,"demographics","gender",0,0,0,0,"Male",1,4851
"37",12320,"12:51:09",120511134,226981072,"5.0.14.0",1,2,"demographics","age",0,0,0,0,"28",1,6269
"38",12320,"12:51:09",120511134,226981072,"5.0.14.0",1,3,"demographics","gender",0,0,0,0,"Male",1,7686
"39",12320,"12:51:38",125571996,722013934,"5.0.14.0",1,2,"demographics","age",0,0,0,0,"20",1,3572
"40",12320,"12:51:38",125571996,722013934,"5.0.14.0",1,3,"demographics","gender",0,0,0,0,"Female",1,3258
"41",12320,"12:51:55",352286667,848191386,"5.0.14.0",1,2,"demographics","age",0,0,0,0,"22",1,3259
"42",12320,"12:51:55",352286667,848191386,"5.0.14.0",1,3,"demographics","gender",0,0,0,0,"Female",1,5285
"43",12320,"23:22:16",940354562,231513913,"5.0.14.0",1,2,"demographics","age",0,0,0,0,"18",1,3109
"44",12320,"23:22:16",940354562,231513913,"5.0.14.0",1,3,"demographics","gender",0,0,0,0,"Male",1,2585
"45",12320,"07:52:29",508727915,789472107,"5.0.14.0",1,2,"demographics","age",0,0,0,0,"32",1,2058
"46",12320,"07:52:29",508727915,789472107,"5.0.14.0",1,3,"demographics","gender",0,0,0,0,"Male",1,2442
"47",12320,"12:53:06",20224854,44174345,"5.0.14.0",1,2,"demographics","age",0,0,0,0,"26",1,4560
"48",12320,"12:53:06",20224854,44174345,"5.0.14.0",1,3,"demographics","gender",0,0,0,0,"Female",1,49439
"49",12320,"12:53:46",15569066,991030644,"5.0.14.0",1,2,"demographics","age",0,0,0,0,"38",1,33828
"50",12320,"12:53:46",15569066,991030644,"5.0.14.0",1,3,"demographics","gender",0,0,0,0,"male",1,17151
"51",12320,"12:53:51",992330834,947123552,"5.0.14.0",1,2,"demographics","age",0,0,0,0,"31",1,3417
"52",12320,"12:53:51",992330834,947123552,"5.0.14.0",1,3,"demographics","gender",0,0,0,0,"female",1,8102
"53",12320,"12:54:49",727186537,788034892,"5.0.14.0",1,2,"demographics","age",0,0,0,0,"36",1,3892
"54",12320,"12:54:49",727186537,788034892,"5.0.14.0",1,3,"demographics","gender",0,0,0,0,"Male",1,4905
"55",12320,"12:54:47",226415490,534903639,"5.0.14.0",1,2,"demographics","age",0,0,0,0,"55",1,7000
"56",12320,"12:54:47",226415490,534903639,"5.0.14.0",1,3,"demographics","gender",0,0,0,0,"female",1,6378
"57",12320,"07:54:28",44073385,104921735,"5.0.14.0",1,2,"demographics","age",0,0,0,0,"50",1,4268
"58",12320,"07:54:28",44073385,104921735,"5.0.14.0",1,3,"demographics","gender",0,0,0,0,"Female",1,5415
"59",12320,"12:57:56",901535782,570456235,"5.0.14.0",1,2,"demographics","age",0,0,0,0,"29",1,3111
"60",12320,"12:57:56",901535782,570456235,"5.0.14.0",1,3,"demographics","gender",0,0,0,0,"female",1,10749
"61",12320,"12:59:40",765242858,434163311,"5.0.14.0",1,2,"demographics","age",0,0,0,0,"45",1,5614
"62",12320,"12:59:40",765242858,434163311,"5.0.14.0",1,3,"demographics","gender",0,0,0,0,"female",1,5741
"63",12320,"12:58:15",654649600,607594865,"5.0.14.0",1,2,"demographics","age",0,0,0,0,"42",1,4756
"64",12320,"12:58:15",654649600,607594865,"5.0.14.0",1,3,"demographics","gender",0,0,0,0,"female",1,4420
"65",12320,"13:01:12",325526053,820841853,"5.0.14.0",1,2,"demographics","age",0,0,0,0,"53",1,4911
"66",12320,"13:01:12",325526053,820841853,"5.0.14.0",1,3,"demographics","gender",0,0,0,0,"male",1,13090
"67",12320,"13:01:27",900949461,701547885,"5.0.14.0",1,2,"demographics","age",0,0,0,0,"30",1,3739
"68",12320,"13:01:27",900949461,701547885,"5.0.14.0",1,3,"demographics","gender",0,0,0,0,"non-binary",1,7038
"69",12320,"13:01:56",389679923,727301907,"5.0.14.0",1,2,"demographics","age",0,0,0,0,"18",1,2710
"70",12320,"13:01:56",389679923,727301907,"5.0.14.0",1,3,"demographics","gender",0,0,0,0,"female",1,3618
"71",12320,"13:02:09",788007180,614816861,"5.0.14.0",1,2,"demographics","age",0,0,0,0,"53",1,4255
"72",12320,"13:02:09",788007180,614816861,"5.0.14.0",1,3,"demographics","gender",0,0,0,0,"Male",1,8754
"73",12320,"13:02:16",421081032,247890705,"5.0.14.0",1,2,"demographics","age",0,0,0,0,"34",1,4455
"74",12320,"13:02:16",421081032,247890705,"5.0.14.0",1,3,"demographics","gender",0,0,0,0,"female",1,4113
"75",12320,"08:02:13",415058028,747909973,"5.0.14.0",1,2,"demographics","age",0,0,0,0,"30",1,6168
"76",12320,"08:02:13",415058028,747909973,"5.0.14.0",1,3,"demographics","gender",0,0,0,0,"Man",1,15034
"77",12320,"13:02:29",241235503,678354314,"5.0.14.0",1,2,"demographics","age",0,0,0,0,"20",1,5360
"78",12320,"13:02:29",241235503,678354314,"5.0.14.0",1,3,"demographics","gender",0,0,0,0,"female",1,3522
"79",12320,"07:02:39",551209149,578778494,"5.0.14.0",1,2,"demographics","age",0,0,0,0,"29",1,3481
"80",12320,"07:02:39",551209149,578778494,"5.0.14.0",1,3,"demographics","gender",0,0,0,0,"Male",1,1984
"81",12320,"13:02:56",158507878,423455956,"5.0.14.0",1,2,"demographics","age",0,0,0,0,"39",1,5178
"82",12320,"13:02:56",158507878,423455956,"5.0.14.0",1,3,"demographics","gender",0,0,0,0,"Female",1,6614
"83",12320,"13:03:12",717589791,307900444,"5.0.14.0",1,2,"demographics","age",0,0,0,0,"21",1,2426
"84",12320,"13:03:12",717589791,307900444,"5.0.14.0",1,3,"demographics","gender",0,0,0,0,"Male",1,6632
"85",12320,"13:03:15",779612990,606117205,"5.0.14.0",1,2,"demographics","age",0,0,0,0,"29",1,3781
"86",12320,"13:03:15",779612990,606117205,"5.0.14.0",1,3,"demographics","gender",0,0,0,0,"Female",1,4917
"87",12420,"00:02:02",719620786,309931438,"5.0.14.0",1,2,"demographics","age",0,0,0,0,"22",1,1660
"88",12420,"00:02:02",719620786,309931438,"5.0.14.0",1,3,"demographics","gender",0,0,0,0,"male",1,4229
"89",12320,"13:04:17",517698931,802428840,"5.0.14.0",1,2,"demographics","age",0,0,0,0,"37",1,4286
"90",12320,"13:04:17",517698931,802428840,"5.0.14.0",1,3,"demographics","gender",0,0,0,0,"Male",1,2927
"91",12320,"13:04:49",22201625,1630295,"5.0.14.0",1,2,"demographics","age",0,0,0,0,"34",1,2454
"92",12320,"13:04:49",22201625,1630295,"5.0.14.0",1,3,"demographics","gender",0,0,0,0,"FEMALE",1,4710
"93",12320,"13:03:57",517949995,33934685,"5.0.14.0",1,2,"demographics","age",0,0,0,0,"30",1,4760
"94",12320,"13:03:57",517949995,33934685,"5.0.14.0",1,3,"demographics","gender",0,0,0,0,"Male",1,4785
"95",12320,"13:04:57",882698808,479140766,"5.0.14.0",1,2,"demographics","age",0,0,0,0,"25 ",1,3519
"96",12320,"13:04:57",882698808,479140766,"5.0.14.0",1,3,"demographics","gender",0,0,0,0,"female",1,3884
"97",12420,"00:04:46",91052178,613813814,"5.0.14.0",1,2,"demographics","age",0,0,0,0,"27",1,3578
"98",12420,"00:04:46",91052178,613813814,"5.0.14.0",1,3,"demographics","gender",0,0,0,0,"Male",1,4153
"99",12320,"13:05:30",587924247,646279482,"5.0.14.0",1,2,"demographics","age",0,0,0,0,"31 ",1,5645
"100",12320,"13:05:30",587924247,646279482,"5.0.14.0",1,3,"demographics","gender",0,0,0,0,"female",1,4113
"101",12320,"13:04:47",678544069,507482707,"5.0.14.0",1,2,"demographics","age",0,0,0,0,"27",1,3994
"102",12320,"13:04:47",678544069,507482707,"5.0.14.0",1,3,"demographics","gender",0,0,0,0,"Female",1,3393
"103",12320,"08:06:15",887673155,383876024,"5.0.14.0",1,2,"demographics","age",0,0,0,0,"18",1,2384
"104",12320,"08:06:15",887673155,383876024,"5.0.14.0",1,3,"demographics","gender",0,0,0,0,"Male",1,2992
"105",12320,"13:06:43",435840804,947541640,"5.0.14.0",1,2,"demographics","age",0,0,0,0,"23",1,4207
"106",12320,"13:06:43",435840804,947541640,"5.0.14.0",1,3,"demographics","gender",0,0,0,0,"female",1,4849
"107",12320,"13:06:41",239227130,40414465,"5.0.14.0",1,2,"demographics","age",0,0,0,0,"27",1,5668
"108",12320,"13:06:41",239227130,40414465,"5.0.14.0",1,3,"demographics","gender",0,0,0,0,"female",1,3666
"109",12320,"13:07:25",760749471,256654209,"5.0.14.0",1,2,"demographics","age",0,0,0,0,"35",1,6099
"110",12320,"13:07:25",760749471,256654209,"5.0.14.0",1,3,"demographics","gender",0,0,0,0,"female",1,6904
"111",12320,"13:07:32",732299585,172756511,"5.0.14.0",1,2,"demographics","age",0,0,0,0,"35",1,8015
"112",12320,"13:07:32",732299585,172756511,"5.0.14.0",1,3,"demographics","gender",0,0,0,0,"Male",1,4793
"113",12320,"13:07:50",420908617,444858110,"5.0.14.0",1,2,"demographics","age",0,0,0,0,"19",1,5289
"114",12320,"13:07:50",420908617,444858110,"5.0.14.0",1,3,"demographics","gender",0,0,0,0,"Male",1,6370
"115",12320,"13:08:19",582003595,177856627,"5.0.14.0",1,2,"demographics","age",0,0,0,0,"23",1,3681
"116",12320,"13:08:19",582003595,177856627,"5.0.14.0",1,3,"demographics","gender",0,0,0,0,"male",1,2866
"117",12320,"13:08:54",313875144,231035127,"5.0.14.0",1,2,"demographics","age",0,0,0,0,"50",1,7656
"118",12320,"13:08:54",313875144,231035127,"5.0.14.0",1,3,"demographics","gender",0,0,0,0,"female",1,9161
"119",12320,"13:09:28",358013253,32435442,"5.0.14.0",1,2,"demographics","age",0,0,0,0,"22",1,2691
"120",12320,"13:09:28",358013253,32435442,"5.0.14.0",1,3,"demographics","gender",0,0,0,0,"M",1,3179
"121",12320,"13:08:48",711601591,612737229,"5.0.15.0",1,2,"demographics","age",0,0,0,0,"27",1,5136
"122",12320,"13:08:48",711601591,612737229,"5.0.15.0",1,3,"demographics","gender",0,0,0,0,"Female",1,5502
"123",12320,"13:09:51",762221696,702019007,"5.0.14.0",1,2,"demographics","age",0,0,0,0,"57",1,5875
"124",12320,"13:09:51",762221696,702019007,"5.0.14.0",1,3,"demographics","gender",0,0,0,0,"female",1,8495
"125",12320,"08:11:14",247193329,918606882,"5.0.14.0",1,2,"demographics","age",0,0,0,0,"32",1,2777
"126",12320,"08:11:14",247193329,918606882,"5.0.14.0",1,3,"demographics","gender",0,0,0,0,"Female",1,6776
"127",12320,"13:12:27",789852597,749797574,"5.0.14.0",1,2,"demographics","age",0,0,0,0,"28 ",1,6721
"128",12320,"13:12:27",789852597,749797574,"5.0.14.0",1,3,"demographics","gender",0,0,0,0,"Male",1,3892
"129",12320,"08:13:56",78039471,316187377,"5.0.15.0",1,2,"demographics","age",0,0,0,0,"32",1,3986
"130",12320,"08:13:56",78039471,316187377,"5.0.15.0",1,3,"demographics","gender",0,0,0,0,"Female",1,5527
"131",12320,"13:14:46",830323408,789988893,"5.0.14.0",1,2,"demographics","age",0,0,0,0,"27",1,4614
"132",12320,"13:14:46",830323408,789988893,"5.0.14.0",1,3,"demographics","gender",0,0,0,0,"Male",1,5004
"133",12320,"13:14:57",943648226,459632917,"5.0.14.0",1,2,"demographics","age",0,0,0,0,"30",1,6896
"134",12320,"13:14:57",943648226,459632917,"5.0.14.0",1,3,"demographics","gender",0,0,0,0,"Female",1,11631
"135",12320,"13:15:44",32564339,397460714,"5.0.14.0",1,2,"demographics","age",0,0,0,0,"20",1,2951
"136",12320,"13:15:44",32564339,397460714,"5.0.14.0",1,3,"demographics","gender",0,0,0,0,"male",1,3849
"137",12320,"13:18:05",154278897,645899775,"5.0.14.0",1,2,"demographics","age",0,0,0,0,"53",1,4425
"138",12320,"13:18:05",154278897,645899775,"5.0.14.0",1,3,"demographics","gender",0,0,0,0,"Female",1,7081
"139",12420,"00:19:03",464370924,443860297,"5.0.14.0",1,2,"demographics","age",0,0,0,0,"30",1,3041
"140",12420,"00:19:03",464370924,443860297,"5.0.14.0",1,3,"demographics","gender",0,0,0,0,"female",1,5154
"141",12320,"13:17:47",28935451,168393599,"5.0.14.0",1,2,"demographics","age",0,0,0,0,"47",1,16011
"142",12320,"13:17:47",28935451,168393599,"5.0.14.0",1,3,"demographics","gender",0,0,0,0,"Male",1,7941
"143",12320,"13:18:28",617049490,292746900,"5.0.14.0",1,2,"demographics","age",0,0,0,0,"47",1,5975
"144",12320,"13:18:28",617049490,292746900,"5.0.14.0",1,3,"demographics","gender",0,0,0,0,"female",1,6932
"145",12320,"09:19:30",451840922,475790417,"5.0.14.0",1,2,"demographics","age",0,0,0,0,"36",1,10600
"146",12320,"09:19:30",451840922,475790417,"5.0.14.0",1,3,"demographics","gender",0,0,0,0,"male",1,6553
"147",12320,"13:20:32",930182712,519606322,"5.0.14.0",1,2,"demographics","age",0,0,0,0,"21",1,2941
"148",12320,"13:20:32",930182712,519606322,"5.0.14.0",1,3,"demographics","gender",0,0,0,0,"Male",1,2992
"149",12320,"08:20:37",979355131,263496132,"5.0.14.0",1,2,"demographics","age",0,0,0,0,"22",1,2331
"150",12320,"08:20:37",979355131,263496132,"5.0.14.0",1,3,"demographics","gender",0,0,0,0,"Male",1,3562
"151",12320,"13:21:27",237975087,26378635,"5.0.14.0",1,2,"demographics","age",0,0,0,0,"20",1,3378
"152",12320,"13:21:27",237975087,26378635,"5.0.14.0",1,3,"demographics","gender",0,0,0,0,"female",1,4840
"153",12320,"09:21:32",892812998,157172179,"5.0.14.0",1,2,"demographics","age",0,0,0,0,"52",1,5238
"154",12320,"09:21:32",892812998,157172179,"5.0.14.0",1,3,"demographics","gender",0,0,0,0,"male",1,7157
"155",12320,"13:22:08",980752605,265191732,"5.0.14.0",1,2,"demographics","age",0,0,0,0,"30",1,4781
"156",12320,"13:22:08",980752605,265191732,"5.0.14.0",1,3,"demographics","gender",0,0,0,0,"Male",1,4233
"157",12320,"06:22:26",938522367,740073869,"5.0.14.0",1,2,"demographics","age",0,0,0,0,"52",1,5074
"158",12320,"06:22:26",938522367,740073869,"5.0.14.0",1,3,"demographics","gender",0,0,0,0,"female",1,9507
"159",12320,"08:23:08",996810161,256587365,"5.0.14.0",1,2,"demographics","age",0,0,0,0,"39",1,4342
"160",12320,"08:23:08",996810161,256587365,"5.0.14.0",1,3,"demographics","gender",0,0,0,0,"female",1,5963
"161",12320,"07:22:45",320241318,299397832,"5.0.14.0",1,2,"demographics","age",0,0,0,0,"31",1,3802
"162",12320,"07:22:45",320241318,299397832,"5.0.14.0",1,3,"demographics","gender",0,0,0,0,"Male",1,4760
"163",12320,"08:24:15",946452754,54181250,"5.0.14.0",1,2,"demographics","age",0,0,0,0,"23",1,3988
"164",12320,"08:24:15",946452754,54181250,"5.0.14.0",1,3,"demographics","gender",0,0,0,0,"Female",1,6213
"165",12320,"07:24:31",546162756,142604711,"5.0.14.0",1,2,"demographics","age",0,0,0,0,"32",1,2859
"166",12320,"07:24:31",546162756,142604711,"5.0.14.0",1,3,"demographics","gender",0,0,0,0,"Female",1,4514
"167",12320,"13:20:56",977424563,956581077,"5.0.14.0",1,2,"demographics","age",0,0,0,0,"29",1,3776
"168",12320,"13:20:56",977424563,956581077,"5.0.14.0",1,3,"demographics","gender",0,0,0,0,"female",1,5826
"169",12320,"08:24:39",805066421,858548903,"5.0.14.0",1,2,"demographics","age",0,0,0,0,"28",1,3148
"170",12320,"08:24:39",805066421,858548903,"5.0.14.0",1,3,"demographics","gender",0,0,0,0,"Female",1,3165
"171",12320,"13:24:56",285672358,33872229,"5.0.14.0",1,2,"demographics","age",0,0,0,0,"28 ",1,4543
"172",12320,"13:24:56",285672358,33872229,"5.0.14.0",1,3,"demographics","gender",0,0,0,0,"male",1,4539
"173",12320,"13:25:44",369526916,962919588,"5.0.14.0",1,2,"demographics","age",0,0,0,0,"28",1,4569
"174",12320,"13:25:44",369526916,962919588,"5.0.14.0",1,3,"demographics","gender",0,0,0,0,"male",1,3380
"175",12320,"13:25:24",723148221,981965007,"5.0.14.0",1,2,"demographics","age",0,0,0,0,"21",1,8069
"176",12320,"13:25:24",723148221,981965007,"5.0.14.0",1,3,"demographics","gender",0,0,0,0,"female",1,2881
"177",12320,"08:25:31",673285867,543926415,"5.0.14.0",1,2,"demographics","age",0,0,0,0,"27",1,3848
"178",12320,"08:25:31",673285867,543926415,"5.0.14.0",1,3,"demographics","gender",0,0,0,0,"female",1,7011
"179",12320,"08:26:42",770130563,241082593,"5.0.15.0",1,2,"demographics","age",0,0,0,0,"28",1,5071
"180",12320,"08:26:42",770130563,241082593,"5.0.15.0",1,3,"demographics","gender",0,0,0,0,"Female",1,8591
"181",12320,"13:27:25",28737137,706281989,"5.0.14.0",1,2,"demographics","age",0,0,0,0,"27",1,3868
"182",12320,"13:27:25",28737137,706281989,"5.0.14.0",1,3,"demographics","gender",0,0,0,0,"Female",1,5283
"183",12320,"08:28:21",871907090,237392409,"5.0.14.0",1,2,"demographics","age",0,0,0,0,"28",1,2269
"184",12320,"08:28:21",871907090,237392409,"5.0.14.0",1,3,"demographics","gender",0,0,0,0,"Male",1,4136
"185",12320,"15:28:36",230824238,132548792,"5.0.14.0",1,2,"demographics","age",0,0,0,0,"39",1,4440
"186",12320,"15:28:36",230824238,132548792,"5.0.14.0",1,3,"demographics","gender",0,0,0,0,"female",1,8301
"187",12320,"08:29:27",809150755,925038743,"5.0.14.0",1,2,"demographics","age",0,0,0,0,"23",1,3225
"188",12320,"08:29:27",809150755,925038743,"5.0.14.0",1,3,"demographics","gender",0,0,0,0,"Female",1,4712
"189",12320,"07:31:27",553629149,48944973,"5.0.14.0",1,2,"demographics","age",0,0,0,0,"32",1,5460
"190",12320,"07:31:27",553629149,48944973,"5.0.14.0",1,3,"demographics","gender",0,0,0,0,"male",1,4831
"191",12320,"08:31:53",368315343,190841178,"5.0.14.0",1,2,"demographics","age",0,0,0,0,"52",1,4354
"192",12320,"08:31:53",368315343,190841178,"5.0.14.0",1,3,"demographics","gender",0,0,0,0,"female",1,11480
"193",12320,"13:33:58",305593888,58666523,"5.0.14.0",1,2,"demographics","age",0,0,0,0,"19",1,3048
"194",12320,"13:33:58",305593888,58666523,"5.0.14.0",1,3,"demographics","gender",0,0,0,0,"female",1,4705
"195",12320,"13:34:44",655798540,714153786,"5.0.14.0",1,2,"demographics","age",0,0,0,0,"42",1,2330
"196",12320,"13:34:44",655798540,714153786,"5.0.14.0",1,3,"demographics","gender",0,0,0,0,"Female",1,3887
"197",12320,"13:35:28",2509983,366147815,"5.0.14.0",1,2,"demographics","age",0,0,0,0,"52",1,6887
"198",12320,"13:35:28",2509983,366147815,"5.0.14.0",1,3,"demographics","gender",0,0,0,0,"female",1,5958
"199",12320,"13:35:48",891988616,176427757,"5.0.14.0",1,2,"demographics","age",0,0,0,0,"19",1,3283
"200",12320,"13:35:48",891988616,176427757,"5.0.14.0",1,3,"demographics","gender",0,0,0,0,"female",1,4253
"201",12320,"13:35:58",972584711,821297833,"5.0.14.0",1,2,"demographics","age",0,0,0,0,"23",1,3354
"202",12320,"13:35:58",972584711,821297833,"5.0.14.0",1,3,"demographics","gender",0,0,0,0,"Male",1,3992
"203",12320,"07:37:29",197947255,873644651,"5.0.14.0",1,2,"demographics","age",0,0,0,0,"63",1,5154
"204",12320,"07:37:29",197947255,873644651,"5.0.14.0",1,3,"demographics","gender",0,0,0,0,"male",1,8632
"205",12320,"13:44:22",825653551,31170097,"5.0.14.0",1,2,"demographics","age",0,0,0,0,"35",1,6482
"206",12320,"13:44:22",825653551,31170097,"5.0.14.0",1,3,"demographics","gender",0,0,0,0,"female",1,5509
"207",12320,"08:41:26",682757294,973916649,"5.0.14.0",1,2,"demographics","age",0,0,0,0,"18",1,3270
"208",12320,"08:41:26",682757294,973916649,"5.0.14.0",1,3,"demographics","gender",0,0,0,0,"Male",1,3445
"209",12320,"13:41:32",655385461,946544815,"5.0.14.0",1,2,"demographics","age",0,0,0,0,"52",1,3710
"210",12320,"13:41:32",655385461,946544815,"5.0.14.0",1,3,"demographics","gender",0,0,0,0,"Male",1,4660
"211",12320,"13:41:31",830622320,633068216,"5.0.14.0",1,2,"demographics","age",0,0,0,0,"44",1,2928
"212",12320,"13:41:31",830622320,633068216,"5.0.14.0",1,3,"demographics","gender",0,0,0,0,"Male",1,6937
"213",12320,"13:43:03",46652458,337513661,"5.0.14.0",1,2,"demographics","age",0,0,0,0,"30",1,2452
"214",12320,"13:43:03",46652458,337513661,"5.0.14.0",1,3,"demographics","gender",0,0,0,0,"male",1,3755
"215",12320,"13:42:09",150786166,204268642,"5.0.14.0",1,2,"demographics","age",0,0,0,0,"22",1,5061
"216",12320,"13:42:09",150786166,204268642,"5.0.14.0",1,3,"demographics","gender",0,0,0,0,"Female",1,5125
"217",12320,"08:43:19",197655622,404662778,"5.0.14.0",1,2,"demographics","age",0,0,0,0,"22",1,1783
"218",12320,"08:43:19",197655622,404662778,"5.0.14.0",1,3,"demographics","gender",0,0,0,0,"male",1,4666
"219",12320,"13:43:11",882579311,404695321,"5.0.14.0",1,2,"demographics","age",0,0,0,0,"35",1,3985
"220",12320,"13:43:11",882579311,404695321,"5.0.14.0",1,3,"demographics","gender",0,0,0,0,"Female",1,3798
"221",12320,"13:43:33",206586013,549554979,"5.0.14.0",1,2,"demographics","age",0,0,0,0,"55",1,2722
"222",12320,"13:43:33",206586013,549554979,"5.0.14.0",1,3,"demographics","gender",0,0,0,0,"female",1,5346
"223",12320,"08:44:21",366671882,494480318,"5.0.14.0",1,2,"demographics","age",0,0,0,0,"57",1,2748
"224",12320,"08:44:21",366671882,494480318,"5.0.14.0",1,3,"demographics","gender",0,0,0,0,"female",1,6443
"225",12320,"13:45:16",334095548,751390472,"5.0.14.0",1,2,"demographics","age",0,0,0,0,"52",1,4357
"226",12320,"13:45:16",334095548,751390472,"5.0.14.0",1,3,"demographics","gender",0,0,0,0,"Male",1,4424
"227",12320,"14:46:23",317776857,836843570,"5.0.14.0",1,2,"demographics","age",0,0,0,0,"28",1,4620
"228",12320,"14:46:23",317776857,836843570,"5.0.14.0",1,3,"demographics","gender",0,0,0,0,"Female",1,7992
"229",12320,"13:46:10",351966937,842998902,"5.0.14.0",1,2,"demographics","age",0,0,0,0,"33",1,2752
"230",12320,"13:46:10",351966937,842998902,"5.0.14.0",1,3,"demographics","gender",0,0,0,0,"Female",1,3394
"231",12320,"08:46:02",30029814,6080319,"5.0.14.0",1,2,"demographics","age",0,0,0,0,"20",1,5054
"232",12320,"08:46:02",30029814,6080319,"5.0.14.0",1,3,"demographics","gender",0,0,0,0,"Male",1,7346
"233",12320,"13:47:38",447169891,355671407,"5.0.14.0",1,2,"demographics","age",0,0,0,0,"23",1,4090
"234",12320,"13:47:38",447169891,355671407,"5.0.14.0",1,3,"demographics","gender",0,0,0,0,"female",1,7386
"235",12320,"13:47:43",103371520,899686086,"5.0.14.0",1,2,"demographics","age",0,0,0,0,"22",1,6088
"236",12320,"13:47:43",103371520,899686086,"5.0.14.0",1,3,"demographics","gender",0,0,0,0,"Male",1,2178
"237",12320,"13:49:37",472935089,375894219,"5.0.14.0",1,2,"demographics","age",0,0,0,0,"22",1,3000
"238",12320,"13:49:37",472935089,375894219,"5.0.14.0",1,3,"demographics","gender",0,0,0,0,"female",1,6460
"239",12320,"13:50:40",891970807,3983155,"5.0.14.0",1,2,"demographics","age",0,0,0,0,"23",1,2939
"240",12320,"13:50:40",891970807,3983155,"5.0.14.0",1,3,"demographics","gender",0,0,0,0,"Male",1,4148
"241",12320,"08:48:39",511268121,875800345,"5.0.14.0",1,2,"demographics","age",0,0,0,0,"49",1,3940
"242",12320,"08:48:39",511268121,875800345,"5.0.14.0",1,3,"demographics","gender",0,0,0,0,"female",1,7393
"243",12320,"13:50:08",385536854,161771481,"5.0.14.0",1,2,"demographics","age",0,0,0,0,"30",1,3407
"244",12320,"13:50:08",385536854,161771481,"5.0.14.0",1,3,"demographics","gender",0,0,0,0,"male",1,2894
"245",12320,"13:50:54",256692459,515509239,"5.0.14.0",1,2,"demographics","age",0,0,0,0,"23",1,2590
"246",12320,"13:50:54",256692459,515509239,"5.0.14.0",1,3,"demographics","gender",0,0,0,0,"Female",1,3101
"247",12320,"13:52:52",112358680,865431302,"5.0.14.0",1,2,"demographics","age",0,0,0,0,"45",1,3087
"248",12320,"13:52:52",112358680,865431302,"5.0.14.0",1,3,"demographics","gender",0,0,0,0,"male",1,4119
"249",12320,"08:53:14",689916440,412493991,"5.0.14.0",1,2,"demographics","age",0,0,0,0,"24",1,3468
"250",12320,"08:53:14",689916440,412493991,"5.0.14.0",1,3,"demographics","gender",0,0,0,0,"Female",1,3463
"251",12320,"13:53:07",622647308,965895774,"5.0.14.0",1,2,"demographics","age",0,0,0,0,"35",1,5936
"252",12320,"13:53:07",622647308,965895774,"5.0.14.0",1,3,"demographics","gender",0,0,0,0,"Male",1,3466
"253",12320,"07:54:39",699916139,417315467,"5.0.14.0",1,2,"demographics","age",0,0,0,0,"28",1,2151
"254",12320,"07:54:39",699916139,417315467,"5.0.14.0",1,3,"demographics","gender",0,0,0,0,"female",1,2823
"255",12320,"13:54:38",311744679,290603070,"5.0.14.0",1,2,"demographics","age",0,0,0,0,"19",1,6728
"256",12320,"13:54:38",311744679,290603070,"5.0.14.0",1,3,"demographics","gender",0,0,0,0,"female",1,3274
"257",12320,"08:55:38",201212065,723328040,"5.0.14.0",1,2,"demographics","age",0,0,0,0,"18",1,3028
"258",12320,"08:55:38",201212065,723328040,"5.0.14.0",1,3,"demographics","gender",0,0,0,0,"female",1,3387
"259",12320,"07:56:17",158704829,748426545,"5.0.14.0",1,2,"demographics","age",0,0,0,0,"43",1,4169
"260",12320,"07:56:17",158704829,748426545,"5.0.14.0",1,3,"demographics","gender",0,0,0,0,"female",1,8809
"261",12320,"13:59:49",499174432,790333779,"5.0.14.0",1,2,"demographics","age",0,0,0,0,"28",1,4044
"262",12320,"13:59:49",499174432,790333779,"5.0.14.0",1,3,"demographics","gender",0,0,0,0,"Female",1,5692
"263",12320,"13:53:17",879533072,754748258,"5.0.14.0",1,2,"demographics","age",0,0,0,0,"56",1,11440
"264",12320,"13:53:17",879533072,754748258,"5.0.14.0",1,3,"demographics","gender",0,0,0,0,"female",1,5596
"265",12320,"14:00:41",835777001,331390964,"5.0.14.0",1,2,"demographics","age",0,0,0,0,"20",1,3195
"266",12320,"14:00:41",835777001,331390964,"5.0.14.0",1,3,"demographics","gender",0,0,0,0,"female",1,2532
"267",12320,"14:00:52",213078391,420085544,"5.0.14.0",1,2,"demographics","age",0,0,0,0,"34",1,6773
"268",12320,"14:00:52",213078391,420085544,"5.0.14.0",1,3,"demographics","gender",0,0,0,0,"Female",1,4915
"269",12320,"20:00:59",306829700,442771668,"5.0.14.0",1,2,"demographics","age",0,0,0,0,"38",1,8581
"270",12320,"20:00:59",306829700,442771668,"5.0.14.0",1,3,"demographics","gender",0,0,0,0,"male",1,6978
"271",12320,"14:02:21",46846399,412331690,"5.0.14.0",1,2,"demographics","age",0,0,0,0,"43",1,3931
"272",12320,"14:02:21",46846399,412331690,"5.0.14.0",1,3,"demographics","gender",0,0,0,0,"female",1,5263
"273",12320,"14:02:43",337462522,907104286,"5.0.14.0",1,2,"demographics","age",0,0,0,0,"24",1,2567
"274",12320,"14:02:43",337462522,907104286,"5.0.14.0",1,3,"demographics","gender",0,0,0,0,"male",1,5560
"275",12320,"14:03:20",781146003,578049515,"5.0.14.0",1,2,"demographics","age",0,0,0,0,"45",1,3816
"276",12320,"14:03:20",781146003,578049515,"5.0.14.0",1,3,"demographics","gender",0,0,0,0,"female",1,4213
"277",12320,"14:01:25",995852877,101733908,"5.0.14.0",1,2,"demographics","age",0,0,0,0,"27",1,3016
"278",12320,"14:01:25",995852877,101733908,"5.0.14.0",1,3,"demographics","gender",0,0,0,0,"Male",1,11675
"279",12320,"14:05:02",869448463,125640820,"5.0.14.0",1,2,"demographics","age",0,0,0,0,"18",1,3175
"280",12320,"14:05:02",869448463,125640820,"5.0.14.0",1,3,"demographics","gender",0,0,0,0,"F",1,2764
"281",12320,"07:06:15",439801230,805286532,"5.0.14.0",1,2,"demographics","age",0,0,0,0,"44",1,3374
"282",12320,"07:06:15",439801230,805286532,"5.0.14.0",1,3,"demographics","gender",0,0,0,0,"Female",1,4670
"283",12320,"09:05:14",298522866,948621894,"5.0.14.0",1,2,"demographics","age",0,0,0,0,"48",1,3300
"284",12320,"09:05:14",298522866,948621894,"5.0.14.0",1,3,"demographics","gender",0,0,0,0,"Female",1,5590
"285",12320,"14:07:44",772493593,64887535,"5.0.14.0",1,2,"demographics","age",0,0,0,0,"30",1,4131
"286",12320,"14:07:44",772493593,64887535,"5.0.14.0",1,3,"demographics","gender",0,0,0,0,"Female",1,4835
"287",12320,"14:06:26",856688179,812069835,"5.0.14.0",1,2,"demographics","age",0,0,0,0,"33",1,3580
"288",12320,"14:06:26",856688179,812069835,"5.0.14.0",1,3,"demographics","gender",0,0,0,0,"female",1,4324
"289",12320,"07:13:25",743081517,264899398,"5.0.14.0",1,2,"demographics","age",0,0,0,0,"32",1,3546
"290",12320,"07:13:25",743081517,264899398,"5.0.14.0",1,3,"demographics","gender",0,0,0,0,"Male",1,6125
"291",12320,"14:12:43",456276598,674344557,"5.0.14.0",1,2,"demographics","age",0,0,0,0,"28",1,3114
"292",12320,"14:12:43",456276598,674344557,"5.0.14.0",1,3,"demographics","gender",0,0,0,0,"female",1,4762
"293",12320,"14:17:55",162742222,654363103,"5.0.14.0",1,2,"demographics","age",0,0,0,0,"55",1,7935
"294",12320,"14:17:55",162742222,654363103,"5.0.14.0",1,3,"demographics","gender",0,0,0,0,"female",1,8554
"295",12320,"14:18:53",345267809,451148831,"5.0.14.0",1,2,"demographics","age",0,0,0,0,"23",1,3304
"296",12320,"14:18:53",345267809,451148831,"5.0.14.0",1,3,"demographics","gender",0,0,0,0,"female",1,7597
"297",12320,"09:25:35",124638464,389586549,"5.0.14.0",1,2,"demographics","age",0,0,0,0,"32",1,2928
"298",12320,"09:25:35",124638464,389586549,"5.0.14.0",1,3,"demographics","gender",0,0,0,0,"Male",1,8813
"299",12320,"09:30:55",386699898,824074773,"5.0.14.0",1,2,"demographics","age",0,0,0,0,"23",1,4420
"300",12320,"09:30:55",386699898,824074773,"5.0.14.0",1,3,"demographics","gender",0,0,0,0,"female",1,5124
"301",12320,"14:32:45",902284902,705319709,"5.0.14.0",1,2,"demographics","age",0,0,0,0,"35",1,2802
"302",12320,"14:32:45",902284902,705319709,"5.0.14.0",1,3,"demographics","gender",0,0,0,0,"Male",1,2709
"303",12320,"20:31:14",196557243,949629863,"5.0.14.0",1,2,"demographics","age",0,0,0,0,"40 ",1,152231
"304",12320,"20:31:14",196557243,949629863,"5.0.14.0",1,3,"demographics","gender",0,0,0,0,"Male",1,93266
"305",12320,"09:36:06",163024454,521789528,"5.0.14.0",1,2,"demographics","age",0,0,0,0,"43",1,3209
"306",12320,"09:36:06",163024454,521789528,"5.0.14.0",1,3,"demographics","gender",0,0,0,0,"Female",1,5473
"307",12320,"09:47:10",810981346,181985090,"5.0.14.0",1,2,"demographics","age",0,0,0,0,"45",1,2998
"308",12320,"09:47:10",810981346,181985090,"5.0.14.0",1,3,"demographics","gender",0,0,0,0,"male",1,4628
"309",12320,"14:53:32",84770644,734869675,"5.0.14.0",1,2,"demographics","age",0,0,0,0,"30",1,4947
"310",12320,"14:53:32",84770644,734869675,"5.0.14.0",1,3,"demographics","gender",0,0,0,0,"male",1,11957
"311",12320,"08:57:40",407504384,440582805,"5.0.14.0",1,2,"demographics","age",0,0,0,0,"18",1,2024
"312",12320,"08:57:40",407504384,440582805,"5.0.14.0",1,3,"demographics","gender",0,0,0,0,"Female",1,3103
"313",12320,"15:01:52",685520733,587890964,"5.0.14.0",1,2,"demographics","age",0,0,0,0,"19",1,3844
"314",12320,"15:01:52",685520733,587890964,"5.0.14.0",1,3,"demographics","gender",0,0,0,0,"female",1,3989
"315",12320,"07:03:51",806986538,244105383,"5.0.14.0",1,2,"demographics","age",0,0,0,0,"41",1,6503
"316",12320,"07:03:51",806986538,244105383,"5.0.14.0",1,3,"demographics","gender",0,0,0,0,"female",1,5450
"317",12320,"10:09:23",339200660,546207815,"5.0.14.0",1,2,"demographics","age",0,0,0,0,"36",1,2318
"318",12320,"10:09:23",339200660,546207815,"5.0.14.0",1,3,"demographics","gender",0,0,0,0,"Male",1,3712
"319",12320,"10:09:47",729633616,294991570,"5.0.14.0",1,2,"demographics","age",0,0,0,0,"26",1,2865
"320",12320,"10:09:47",729633616,294991570,"5.0.14.0",1,3,"demographics","gender",0,0,0,0,"F",1,2816
"321",12320,"10:21:38",521460871,264118372,"5.0.14.0",1,2,"demographics","age",0,0,0,0,"58",1,2868
"322",12320,"10:21:38",521460871,264118372,"5.0.14.0",1,3,"demographics","gender",0,0,0,0,"male",1,3474
"323",12320,"11:42:10",943252819,3455531,"5.0.14.0",1,2,"demographics","age",0,0,0,0,"41",1,2965
"324",12320,"11:42:10",943252819,3455531,"5.0.14.0",1,3,"demographics","gender",0,0,0,0,"Female",1,4170
"325",12320,"11:42:52",599449943,938723995,"5.0.14.0",1,2,"demographics","age",0,0,0,0,"23",1,10735
"326",12320,"11:42:52",599449943,938723995,"5.0.14.0",1,3,"demographics","gender",0,0,0,0,"male",1,4458
"327",12320,"08:43:50",492672398,618633380,"5.0.14.0",1,2,"demographics","age",0,0,0,0,"35",1,2384
"328",12320,"08:43:50",492672398,618633380,"5.0.14.0",1,3,"demographics","gender",0,0,0,0,"Male",1,4561
"329",12320,"11:43:42",985344706,961395216,"5.0.14.0",1,2,"demographics","age",0,0,0,0,"28 ",1,3822
"330",12320,"11:43:42",985344706,961395216,"5.0.14.0",1,3,"demographics","gender",0,0,0,0,"male",1,3438
"331",12320,"08:43:42",790224061,762347576,"5.0.14.0",1,2,"demographics","age",0,0,0,0,"25",1,5144
"332",12320,"08:43:42",790224061,762347576,"5.0.14.0",1,3,"demographics","gender",0,0,0,0,"Female",1,4376
"333",12320,"10:43:47",199199181,256965497,"5.0.14.0",1,2,"demographics","age",0,0,0,0,"32",1,2510
"334",12320,"10:43:47",199199181,256965497,"5.0.14.0",1,3,"demographics","gender",0,0,0,0,"Female",1,2358
"335",12320,"11:44:18",130227439,952966724,"5.0.14.0",1,2,"demographics","age",0,0,0,0,"30",1,3656
"336",12320,"11:44:18",130227439,952966724,"5.0.14.0",1,3,"demographics","gender",0,0,0,0,"male",1,4705
"337",12320,"11:44:35",880648113,396043905,"5.0.14.0",1,2,"demographics","age",0,0,0,0,"24",1,3897
"338",12320,"11:44:35",880648113,396043905,"5.0.14.0",1,3,"demographics","gender",0,0,0,0,"female",1,6983
"339",12320,"10:44:53",533589834,329904423,"5.0.14.0",1,2,"demographics","age",0,0,0,0,"29",1,4026
"340",12320,"10:44:53",533589834,329904423,"5.0.14.0",1,3,"demographics","gender",0,0,0,0,"Lady :)",1,14546
"341",12320,"11:45:28",130678482,493727402,"5.0.14.0",1,2,"demographics","age",0,0,0,0,"20",1,2590
"342",12320,"11:45:28",130678482,493727402,"5.0.14.0",1,3,"demographics","gender",0,0,0,0,"Non Binary",1,6161
"343",12320,"11:45:03",180573731,1841020,"5.0.14.0",1,2,"demographics","age",0,0,0,0,"21",1,4656
"344",12320,"11:45:03",180573731,1841020,"5.0.14.0",1,3,"demographics","gender",0,0,0,0,"Female",1,5261
"345",12320,"11:47:30",819977140,641244452,"5.0.14.0",1,2,"demographics","age",0,0,0,0,"47",1,4772
"346",12320,"11:47:30",819977140,641244452,"5.0.14.0",1,3,"demographics","gender",0,0,0,0,"Female",1,5213
"347",12320,"11:49:24",604390261,91611240,"5.0.14.0",1,2,"demographics","age",0,0,0,0,"34",1,3109
"348",12320,"11:49:24",604390261,91611240,"5.0.14.0",1,3,"demographics","gender",0,0,0,0,"Female",1,4757
"349",12320,"16:52:36",750689358,262187716,"5.0.14.0",1,2,"demographics","age",0,0,0,0,"48",1,3742
"350",12320,"16:52:36",750689358,262187716,"5.0.14.0",1,3,"demographics","gender",0,0,0,0,"Male",1,4658
"351",12320,"16:52:10",916600478,822019964,"5.0.14.0",1,2,"demographics","age",0,0,0,0,"31",1,3376
"352",12320,"16:52:10",916600478,822019964,"5.0.14.0",1,3,"demographics","gender",0,0,0,0,"female",1,4619
"353",12320,"16:53:57",504811556,580624736,"5.0.14.0",1,2,"demographics","age",0,0,0,0,"24 ",1,4693
"354",12320,"16:53:57",504811556,580624736,"5.0.14.0",1,3,"demographics","gender",0,0,0,0,"female",1,6674
"355",12320,"11:56:20",391782841,400552752,"5.0.14.0",1,2,"demographics","age",0,0,0,0,"37",1,4558
"356",12320,"11:56:20",391782841,400552752,"5.0.14.0",1,3,"demographics","gender",0,0,0,0,"female",1,5929
"357",12320,"10:54:11",988619660,108998539,"5.0.14.0",1,2,"demographics","age",0,0,0,0,"59",1,4865
"358",12320,"10:54:11",988619660,108998539,"5.0.14.0",1,3,"demographics","gender",0,0,0,0,"female",1,6252
"359",12320,"12:00:36",487309173,451241954,"5.0.14.0",1,2,"demographics","age",0,0,0,0,"24",1,16987
"360",12320,"12:00:36",487309173,451241954,"5.0.14.0",1,3,"demographics","gender",0,0,0,0,"Male",1,9239
