"date","time","subject","blockcode","blocknum","trialcode","trialnum","values.primestim","values.targetstim","correct","latency","trial.prime_positive.totalpercentcorrect","trial.prime_negative.totalpercentcorrect"
"012320","13:04:25","314831908","practice","1","prime_positive_practice","3","0","0","0","100","0","0"
"012320","13:04:25","314831908","practice","1","intention_check_positive_practice","4","0","0","0","2500","0","0"
"012320","13:04:25","314831908","practice","1","mask_prime_positive_practice","5","0","0","0","1089","0","0"
"012320","13:04:25","314831908","practice","1","prime_negative_practice","6","0","0","0","100","0","0"
"012320","13:04:25","314831908","practice","1","intention_check_negative_practice","7","0","0","1","969","0","0"
"012320","12:21:36","163889718","practice","1","prime_positive_practice","3","0","0","0","100","0","0"
"012320","12:21:36","163889718","practice","1","intention_check_positive_practice","4","0","0","0","2500","0","0"
"012320","12:21:36","163889718","practice","1","mask_prime_positive_practice","5","0","0","0","1646","0","0"
"012320","12:21:36","163889718","practice","1","prime_negative_practice","6","0","0","0","100","0","0"
"012320","12:21:36","163889718","practice","1","intention_check_negative_practice","7","0","0","1","915","0","0"
"012320","12:21:36","163889718","practice","1","mask_prime_negative_practice","8","0","0","1","2527","0","0"
"012320","12:21:36","163889718","practice","1","prime_positive_practice","9","0","0","0","100","0","0"
"012320","12:21:36","163889718","practice","1","intention_check_positive_practice","10","0","0","1","1579","0","0"
"012320","12:21:36","163889718","practice","1","mask_prime_positive_practice","11","0","0","1","651","0","0"
"012320","12:21:36","163889718","practice","1","prime_negative_practice","12","0","0","0","100","0","0"
"012320","12:21:36","163889718","practice","1","intention_check_negative_practice","13","0","0","0","2500","0","0"
"012320","12:21:36","163889718","practice","1","mask_prime_negative_practice","14","0","0","0","1296","0","0"
"012320","12:21:36","163889718","practice","1","prime_negative_practice","15","0","0","0","100","0","0"
"012320","12:21:36","163889718","practice","1","intention_check_negative_practice","16","0","0","0","2500","0","0"
"012320","12:21:36","163889718","practice","1","mask_prime_negative_practice","17","0","0","1","1799","0","0"
"012320","12:21:36","163889718","practice","1","prime_positive_practice","18","0","0","0","100","0","0"
"012320","12:21:36","163889718","practice","1","intention_check_positive_practice","19","0","0","0","2500","0","0"
"012320","12:21:36","163889718","practice","1","mask_prime_positive_practice","20","0","0","1","607","0","0"
"012320","12:21:36","163889718","practice","1","prime_negative_practice","21","0","0","0","100","0","0"
"012320","12:21:36","163889718","practice","1","intention_check_negative_practice","22","0","0","1","1277","0","0"
"012320","12:21:36","163889718","practice","1","mask_prime_negative_practice","23","0","0","1","853","0","0"
"012320","12:21:36","163889718","practice","1","prime_positive_practice","24","0","0","0","100","0","0"
"012320","12:21:36","163889718","practice","1","intention_check_positive_practice","25","0","0","0","2500","0","0"
"012320","12:21:36","163889718","practice","1","mask_prime_positive_practice","26","0","0","1","1156","0","0"
"012320","12:21:36","163889718","practice","1","prime_negative_practice","27","0","0","0","100","0","0"
"012320","12:21:36","163889718","practice","1","intention_check_negative_practice","28","0","0","1","1985","0","0"
"012320","12:21:36","163889718","practice","1","mask_prime_negative_practice","29","0","0","1","778","0","0"
"012320","12:21:36","163889718","practice","1","prime_positive_practice","30","0","0","0","100","0","0"
"012320","12:21:36","163889718","practice","1","intention_check_positive_practice","31","0","0","0","2500","0","0"
"012320","12:21:36","163889718","practice","1","mask_prime_positive_practice","32","0","0","0","562","0","0"
"012320","12:21:36","163889718","test","2","prime_positive","2","0","0","0","100","0","0"
"012320","12:21:36","163889718","test","2","intention_check_positive","3","0","0","1","1531","0","0"
"012320","12:21:36","163889718","test","2","mask_prime_positive","4","6","69","0","705","0","0"
"012320","12:21:36","163889718","test","2","prime_negative","5","6","69","0","100","0","0"
"012320","12:21:36","163889718","test","2","intention_check_negative","6","6","69","1","1512","0","0"
"012320","12:21:36","163889718","test","2","mask_prime_negative","7","11","62","1","603","0","0"
"012320","12:21:36","163889718","test","2","prime_negative","8","11","62","0","100","0","0"
"012320","12:21:36","163889718","test","2","intention_check_negative","9","11","62","1","861","0","0"
"012320","12:21:36","163889718","test","2","mask_prime_negative","10","1","19","1","711","0","0"
"012320","12:21:36","163889718","test","2","prime_negative","11","1","19","0","100","0","0"
"012320","12:21:36","163889718","test","2","intention_check_negative","12","1","19","1","620","0","0"
"012320","12:21:36","163889718","test","2","mask_prime_negative","13","3","53","1","635","0","0"
"012320","12:21:36","163889718","test","2","prime_negative","14","3","53","0","100","0","0"
"012320","12:21:36","163889718","test","2","intention_check_negative","15","3","53","0","2500","0","0"
"012320","12:21:36","163889718","test","2","mask_prime_negative","16","9","65","1","993","0","0"
"012320","12:21:36","163889718","test","2","prime_negative","17","9","65","0","100","0","0"
"012320","12:21:36","163889718","test","2","intention_check_negative","18","9","65","0","2500","0","0"
"012320","12:21:36","163889718","test","2","mask_prime_negative","19","5","47","1","609","0","0"
"012320","12:21:36","163889718","test","2","prime_negative","20","5","47","0","100","0","0"
"012320","12:21:36","163889718","test","2","intention_check_negative","21","5","47","1","912","0","0"
"012320","12:21:36","163889718","test","2","mask_prime_negative","22","8","15","1","625","0","0"
"012320","12:21:36","163889718","test","2","prime_negative","23","8","15","0","100","0","0"
"012320","12:21:36","163889718","test","2","intention_check_negative","24","8","15","1","1300","0","0"
"012320","12:21:36","163889718","test","2","mask_prime_negative","25","4","6","1","670","0","0"
"012320","12:21:36","163889718","test","2","prime_negative","26","4","6","0","100","0","0"
"012320","12:21:36","163889718","test","2","intention_check_negative","27","4","6","1","1094","0","0"
"012320","12:21:36","163889718","test","2","mask_prime_negative","28","10","57","1","629","0","0"
"012320","12:21:36","163889718","test","2","prime_positive","29","10","57","0","100","0","0"
"012320","12:21:36","163889718","test","2","intention_check_positive","30","10","57","1","1455","0","0"
"012320","12:21:36","163889718","test","2","mask_prime_positive","31","2","61","0","820","0","0"
"012320","12:21:36","163889718","test","2","prime_positive","32","2","61","0","100","0","0"
"012320","12:21:36","163889718","test","2","intention_check_positive","33","2","61","0","2500","0","0"
"012320","12:21:36","163889718","test","2","mask_prime_positive","34","10","55","1","441","0","0"
"012320","12:21:36","163889718","test","2","prime_positive","35","10","55","0","100","0","0"
"012320","12:21:36","163889718","test","2","intention_check_positive","36","10","55","0","2500","0","0"
"012320","12:21:36","163889718","test","2","mask_prime_positive","37","5","13","1","561","0","0"
"012320","12:21:36","163889718","test","2","prime_positive","38","5","13","0","100","0","0"
"012320","12:21:36","163889718","test","2","intention_check_positive","39","5","13","0","2500","0","0"
"012320","12:21:36","163889718","test","2","mask_prime_positive","40","12","14","1","595","0","0"
"012320","12:21:36","163889718","test","2","prime_negative","41","12","14","0","100","0","0"
"012320","12:21:36","163889718","test","2","intention_check_negative","42","12","14","0","2500","0","0"
"012320","12:21:36","163889718","test","2","mask_prime_negative","43","9","23","0","1329","0","0"
"012320","12:21:36","163889718","test","2","prime_positive","44","9","23","0","100","0","0"
"012320","12:21:36","163889718","test","2","intention_check_positive","45","9","23","0","2500","0","0"
"012320","12:21:36","163889718","test","2","mask_prime_positive","46","3","59","1","393","0","0"
"012320","12:21:36","163889718","test","2","prime_negative","47","3","59","0","100","0","0"
"012320","12:21:36","163889718","test","2","intention_check_negative","48","3","59","0","2500","0","0"
"012320","12:21:36","163889718","test","2","mask_prime_negative","49","6","4","1","478","0","0"
"012320","12:21:36","163889718","test","2","prime_positive","50","6","4","0","100","0","0"
"012320","12:21:36","163889718","test","2","intention_check_positive","51","6","4","0","2500","0","0"
"012320","12:21:36","163889718","test","2","mask_prime_positive","52","1","48","1","526","0","0"
"012320","12:21:36","163889718","test","2","prime_positive","53","1","48","0","100","0","0"
"012320","12:21:36","163889718","test","2","intention_check_positive","54","1","48","1","876","0","0"
"012320","12:21:36","163889718","test","2","mask_prime_positive","55","6","49","0","1293","0","0"
"012320","12:21:36","163889718","test","2","prime_positive","56","6","49","0","100","0","0"
"012320","12:21:36","163889718","test","2","intention_check_positive","57","6","49","1","839","0","0"
"012320","12:21:36","163889718","test","2","mask_prime_positive","58","2","44","0","610","0","0"
"012320","12:21:36","163889718","test","2","prime_negative","59","2","44","0","100","0","0"
"012320","12:21:36","163889718","test","2","intention_check_negative","60","2","44","1","1773","0","0"
"012320","12:21:36","163889718","test","2","mask_prime_negative","61","11","34","1","512","0","0"
"012320","12:21:36","163889718","test","2","prime_positive","62","11","34","0","100","0","0"
"012320","12:21:36","163889718","test","2","intention_check_positive","63","11","34","0","2500","0","0"
"012320","12:21:36","163889718","test","2","mask_prime_positive","64","3","17","1","596","0","0"
"012320","12:21:36","163889718","test","2","prime_positive","65","3","17","0","100","0","0"
"012320","12:21:36","163889718","test","2","intention_check_positive","66","3","17","0","2500","0","0"
"012320","12:21:36","163889718","test","2","mask_prime_positive","67","9","30","1","737","0","0"
"012320","12:21:36","163889718","test","2","prime_negative","68","9","30","0","100","0","0"
"012320","12:21:36","163889718","test","2","intention_check_negative","69","9","30","1","653","0","0"
"012320","12:21:36","163889718","test","2","mask_prime_negative","70","4","35","1","609","0","0"
"012320","12:21:36","163889718","test","2","prime_negative","71","4","35","0","100","0","0"
"012320","12:21:36","163889718","test","2","intention_check_negative","72","4","35","0","2500","0","0"
"012320","12:21:36","163889718","test","2","mask_prime_negative","73","12","8","1","393","0","0"
"012320","12:21:36","163889718","test","2","prime_positive","74","12","8","0","100","0","0"
"012320","12:21:36","163889718","test","2","intention_check_positive","75","12","8","1","2310","0","0"
"012320","12:21:36","163889718","test","2","mask_prime_positive","76","7","70","0","661","0","0"
"012320","12:21:36","163889718","test","2","prime_positive","77","7","70","0","100","0","0"
"012320","12:21:36","163889718","test","2","intention_check_positive","78","7","70","0","2500","0","0"
"012320","12:21:36","163889718","test","2","mask_prime_positive","79","4","21","1","510","0","0"
"012320","12:21:36","163889718","test","2","prime_positive","80","4","21","0","100","0","0"
"012320","12:21:36","163889718","test","2","intention_check_positive","81","4","21","0","2500","0","0"
"012320","12:21:36","163889718","test","2","mask_prime_positive","82","1","2","1","564","0","0"
"012320","12:21:36","163889718","test","2","prime_negative","83","1","2","0","100","0","0"
"012320","12:21:36","163889718","test","2","intention_check_negative","84","1","2","0","2500","0","0"
"012320","12:21:36","163889718","test","2","mask_prime_negative","85","5","27","1","1126","0","0"
"012320","12:21:36","163889718","test","2","prime_positive","86","5","27","0","100","0","0"
"012320","12:21:36","163889718","test","2","intention_check_positive","87","5","27","0","2500","0","0"
"012320","12:21:36","163889718","test","2","mask_prime_positive","88","8","18","1","829","0","0"
"012320","12:21:36","163889718","test","2","prime_negative","89","8","18","0","100","0","0"
"012320","12:21:36","163889718","test","2","intention_check_negative","90","8","18","0","2500","0","0"
"012320","12:21:36","163889718","test","2","mask_prime_negative","91","7","67","1","746","0","0"
"012320","12:21:36","163889718","test","2","prime_positive","92","7","67","0","100","0","0"
"012320","12:21:36","163889718","test","2","intention_check_positive","93","7","67","1","1114","0","0"
"012320","12:21:36","163889718","test","2","mask_prime_positive","94","11","5","0","922","0","0"
"012320","12:21:36","163889718","test","2","prime_negative","95","11","5","0","100","0","0"
"012320","12:21:36","163889718","test","2","intention_check_negative","96","11","5","0","2500","0","0"
"012320","12:21:36","163889718","test","2","mask_prime_negative","97","1","32","1","1175","0","0"
"012320","12:21:36","163889718","test","2","prime_positive","98","1","32","0","100","0","0"
"012320","12:21:36","163889718","test","2","intention_check_positive","99","1","32","1","937","0","0"
"012320","12:21:36","163889718","test","2","mask_prime_positive","100","5","68","0","1045","0","0"
"012320","12:21:36","163889718","test","2","prime_positive","101","5","68","0","100","0","0"
"012320","12:21:36","163889718","test","2","intention_check_positive","102","5","68","0","2500","0","0"
"012320","12:21:36","163889718","test","2","mask_prime_positive","103","10","3","1","813","0","0"
"012320","12:21:36","163889718","test","2","prime_positive","104","10","3","0","100","0","0"
"012320","12:21:36","163889718","test","2","intention_check_positive","105","10","3","0","2500","0","0"
"012320","12:21:36","163889718","test","2","mask_prime_positive","106","12","60","1","746","0","0"
"012320","12:21:36","163889718","test","2","prime_negative","107","12","60","0","100","0","0"
"012320","12:21:36","163889718","test","2","intention_check_negative","108","12","60","1","869","0","0"
"012320","12:21:36","163889718","test","2","mask_prime_negative","109","2","41","1","563","0","0"
"012320","12:21:36","163889718","test","2","prime_positive","110","2","41","0","100","0","0"
"012320","12:21:36","163889718","test","2","intention_check_positive","111","2","41","0","2500","0","0"
"012320","12:21:36","163889718","test","2","mask_prime_positive","112","4","9","1","464","0","0"
"012320","12:21:36","163889718","test","2","prime_positive","113","4","9","0","100","0","0"
"012320","12:21:36","163889718","test","2","intention_check_positive","114","4","9","0","2500","0","0"
"012320","12:21:36","163889718","test","2","mask_prime_positive","115","9","24","1","441","0","0"
"012320","12:21:36","163889718","test","2","prime_positive","116","9","24","0","100","0","0"
"012320","12:21:36","163889718","test","2","intention_check_positive","117","9","24","0","2500","0","0"
"012320","12:21:36","163889718","test","2","mask_prime_positive","118","8","58","1","439","0","0"
"012320","12:21:36","163889718","test","2","prime_positive","119","8","58","0","100","0","0"
"012320","12:21:36","163889718","test","2","intention_check_positive","120","8","58","1","2199","0","0"
"012320","12:21:36","163889718","test","2","mask_prime_positive","121","6","25","0","703","0","0"
"012320","12:21:36","163889718","test","2","prime_negative","122","6","25","0","100","0","0"
"012320","12:21:36","163889718","test","2","intention_check_negative","123","6","25","1","747","0","0"
"012320","12:21:36","163889718","test","2","mask_prime_negative","124","8","54","1","492","0","0"
"012320","12:21:36","163889718","test","2","prime_negative","125","8","54","0","100","0","0"
"012320","12:21:36","163889718","test","2","intention_check_negative","126","8","54","1","617","0","0"
"012320","12:21:36","163889718","test","2","mask_prime_negative","127","3","42","1","810","0","0"
"012320","12:21:36","163889718","test","2","prime_negative","128","3","42","0","100","0","0"
"012320","12:21:36","163889718","test","2","intention_check_negative","129","3","42","0","2500","0","0"
"012320","12:21:36","163889718","test","2","mask_prime_negative","130","6","50","1","676","0","0"
"012320","12:21:36","163889718","test","2","prime_negative","131","6","50","0","100","0","0"
"012320","12:21:36","163889718","test","2","intention_check_negative","132","6","50","0","2500","0","0"
"012320","12:21:36","163889718","test","2","mask_prime_negative","133","11","11","1","564","0","0"
"012320","12:21:36","163889718","test","2","prime_negative","134","11","11","0","100","0","0"
"012320","12:21:36","163889718","test","2","intention_check_negative","135","11","11","1","658","0","0"
"012320","12:21:36","163889718","test","2","mask_prime_negative","136","10","1","1","614","0","0"
"012320","12:21:36","163889718","test","2","prime_negative","137","10","1","0","100","0","0"
"012320","12:21:36","163889718","test","2","intention_check_negative","138","10","1","0","2500","0","0"
"012320","12:21:36","163889718","test","2","mask_prime_negative","139","12","29","1","1476","0","0"
"012320","12:21:36","163889718","test","2","prime_positive","140","12","29","0","100","0","0"
"012320","12:21:36","163889718","test","2","intention_check_positive","141","12","29","0","2500","0","0"
"012320","12:21:36","163889718","test","2","mask_prime_positive","142","12","20","1","489","0","0"
"012320","12:21:36","163889718","test","2","prime_negative","143","12","20","0","100","0","0"
"012320","12:21:36","163889718","test","2","intention_check_negative","144","12","20","0","2500","0","0"
"012320","12:21:36","163889718","test","2","mask_prime_negative","145","5","71","1","480","0","0"
"012320","12:21:36","163889718","test","2","prime_negative","146","5","71","0","100","0","0"
"012320","12:21:36","163889718","test","2","intention_check_negative","147","5","71","1","926","0","0"
"012320","12:21:36","163889718","test","2","mask_prime_negative","148","8","12","1","579","0","0"
"012320","12:21:36","163889718","test","2","prime_positive","149","8","12","0","100","0","0"
"012320","12:21:36","163889718","test","2","intention_check_positive","150","8","12","0","2500","0","0"
"012320","12:21:36","163889718","test","2","mask_prime_positive","151","10","46","1","693","0","0"
"012320","12:21:36","163889718","test","2","prime_positive","152","10","46","0","100","0","0"
"012320","12:21:36","163889718","test","2","intention_check_positive","153","10","46","0","2500","0","0"
"012320","12:21:36","163889718","test","2","mask_prime_positive","154","1","37","1","457","0","0"
"012320","12:21:36","163889718","test","2","prime_negative","155","1","37","0","100","0","0"
"012320","12:21:36","163889718","test","2","intention_check_negative","156","1","37","1","859","0","0"
"012320","12:21:36","163889718","test","2","mask_prime_negative","157","1","63","1","676","0","0"
"012320","12:21:36","163889718","test","2","prime_positive","158","1","63","0","100","0","0"
"012320","12:21:36","163889718","test","2","intention_check_positive","159","1","63","0","2500","0","0"
"012320","12:21:36","163889718","test","2","mask_prime_positive","160","5","72","0","1192","0","0"
"012320","12:21:36","163889718","test","2","prime_positive","161","5","72","0","100","0","0"
"012320","12:21:36","163889718","test","2","intention_check_positive","162","5","72","0","2500","0","0"
"012320","12:21:36","163889718","test","2","mask_prime_positive","163","11","45","0","644","0","0"
"012320","12:21:36","163889718","test","2","prime_positive","164","11","45","0","100","0","0"
"012320","12:21:36","163889718","test","2","intention_check_positive","165","11","45","0","2500","0","0"
"012320","12:21:36","163889718","test","2","mask_prime_positive","166","7","31","1","155","0","0"
"012320","12:21:36","163889718","test","2","prime_negative","167","7","31","0","100","0","0"
"012320","12:21:36","163889718","test","2","intention_check_negative","168","7","31","1","1402","0","0"
"012320","12:21:36","163889718","test","2","mask_prime_negative","169","2","56","1","475","0","0"
"012320","12:21:36","163889718","test","2","prime_negative","170","2","56","0","100","0","0"
"012320","12:21:36","163889718","test","2","intention_check_negative","171","2","56","1","662","0","0"
"012320","12:21:36","163889718","test","2","mask_prime_negative","172","4","38","1","629","0","0"
"012320","12:21:36","163889718","test","2","prime_negative","173","4","38","0","100","0","0"
"012320","12:21:36","163889718","test","2","intention_check_negative","174","4","38","1","1075","0","0"
"012320","12:21:36","163889718","test","2","mask_prime_negative","175","7","16","1","775","0","0"
"012320","12:21:36","163889718","test","2","prime_positive","176","7","16","0","100","0","0"
"012320","12:21:36","163889718","test","2","intention_check_positive","177","7","16","1","1238","0","0"
"012320","12:21:36","163889718","test","2","mask_prime_positive","178","2","52","0","1469","0","0"
"012320","12:21:36","163889718","test","2","prime_negative","179","2","52","0","100","0","0"
"012320","12:21:36","163889718","test","2","intention_check_negative","180","2","52","0","2500","0","0"
"012320","12:21:36","163889718","test","2","mask_prime_negative","181","9","66","1","643","0","0"
"012320","12:21:36","163889718","test","2","prime_positive","182","9","66","0","100","0","0"
"012320","12:21:36","163889718","test","2","intention_check_positive","183","9","66","0","2500","0","0"
"012320","12:21:36","163889718","test","2","mask_prime_positive","184","3","10","1","775","0","0"
"012320","12:21:36","163889718","test","2","prime_positive","185","3","10","0","100","0","0"
"012320","12:21:36","163889718","test","2","intention_check_positive","186","3","10","1","904","0","0"
"012320","12:21:36","163889718","test","2","mask_prime_positive","187","2","22","0","468","0","0"
"012320","12:21:36","163889718","test","2","prime_negative","188","2","22","0","100","0","0"
"012320","12:21:36","163889718","test","2","intention_check_negative","189","2","22","1","549","0","0"
"012320","12:21:36","163889718","test","2","mask_prime_negative","190","3","36","1","643","0","0"
"012320","12:21:36","163889718","test","2","prime_positive","191","3","36","0","100","0","0"
"012320","12:21:36","163889718","test","2","intention_check_positive","192","3","36","0","2500","0","0"
"012320","12:21:36","163889718","test","2","mask_prime_positive","193","1","37","1","628","0","0"
"012320","12:21:36","163889718","test","2","prime_positive","194","1","37","0","100","0","0"
"012320","12:21:36","163889718","test","2","intention_check_positive","195","1","37","1","821","0","0"
"012320","12:21:36","163889718","test","2","mask_prime_positive","196","5","25","0","1445","0","0"
"012320","12:21:36","163889718","test","2","prime_negative","197","5","25","0","100","0","0"
"012320","12:21:36","163889718","test","2","intention_check_negative","198","5","25","0","2500","0","0"
"012320","12:21:36","163889718","test","2","mask_prime_negative","199","5","8","1","678","0","0"
"012320","12:21:36","163889718","test","2","prime_positive","200","5","8","0","100","0","0"
"012320","12:21:36","163889718","test","2","intention_check_positive","201","5","8","1","1280","0","0"
"012320","12:21:36","163889718","test","2","mask_prime_positive","202","11","51","0","761","0","0"
"012320","12:21:36","163889718","test","2","prime_negative","203","11","51","0","100","0","0"
"012320","12:21:36","163889718","test","2","intention_check_negative","204","11","51","0","2500","0","0"
"012320","12:21:36","163889718","test","2","mask_prime_negative","205","7","61","1","943","0","0"
"012320","12:21:36","163889718","test","2","prime_negative","206","7","61","0","100","0","0"
"012320","12:21:36","163889718","test","2","intention_check_negative","207","7","61","1","724","0","0"
"012320","12:21:36","163889718","test","2","mask_prime_negative","208","4","70","1","825","0","0"
"012320","12:21:36","163889718","test","2","prime_negative","209","4","70","0","100","0","0"
"012320","12:21:36","163889718","test","2","intention_check_negative","210","4","70","1","675","0","0"
"012320","12:21:36","163889718","test","2","mask_prime_negative","211","12","12","1","575","0","0"
"012320","12:21:36","163889718","test","2","prime_negative","212","12","12","0","100","0","0"
"012320","12:21:36","163889718","test","2","intention_check_negative","213","12","12","1","818","0","0"
"012320","12:21:36","163889718","test","2","mask_prime_negative","214","11","60","1","575","0","0"
"012320","12:21:36","163889718","test","2","prime_positive","215","11","60","0","100","0","0"
"012320","12:21:36","163889718","test","2","intention_check_positive","216","11","60","1","1759","0","0"
"012320","12:21:36","163889718","test","2","mask_prime_positive","217","4","33","1","562","0","0"
"012320","12:30:55","180926818","practice","1","prime_negative_practice","3","0","0","0","100","0","0"
"012320","12:30:55","180926818","practice","1","intention_check_negative_practice","4","0","0","0","2500","0","0"
"012320","12:30:55","180926818","practice","1","mask_prime_negative_practice","5","0","0","1","5942","0","0"
"012320","12:30:55","180926818","practice","1","prime_positive_practice","6","0","0","0","100","0","0"
"012320","12:30:55","180926818","practice","1","intention_check_positive_practice","7","0","0","0","2500","0","0"
"012320","12:30:55","180926818","practice","1","mask_prime_positive_practice","8","0","0","1","5710","0","0"
"012320","12:30:55","180926818","practice","1","prime_positive_practice","9","0","0","0","100","0","0"
"012320","12:30:55","180926818","practice","1","intention_check_positive_practice","10","0","0","0","2500","0","0"
"012320","12:30:55","180926818","practice","1","mask_prime_positive_practice","11","0","0","1","4637","0","0"
"012320","12:30:55","180926818","practice","1","prime_positive_practice","12","0","0","0","100","0","0"
"012320","12:30:55","180926818","practice","1","intention_check_positive_practice","13","0","0","0","2500","0","0"
"012320","12:30:55","180926818","practice","1","mask_prime_positive_practice","14","0","0","0","4368","0","0"
"012320","12:30:55","180926818","practice","1","prime_negative_practice","15","0","0","0","100","0","0"
"012320","12:30:55","180926818","practice","1","intention_check_negative_practice","16","0","0","1","1408","0","0"
"012320","12:30:55","180926818","practice","1","mask_prime_negative_practice","17","0","0","0","3374","0","0"
"012320","12:30:55","180926818","practice","1","prime_negative_practice","18","0","0","0","100","0","0"
"012320","12:30:55","180926818","practice","1","intention_check_negative_practice","19","0","0","0","2500","0","0"
"012320","12:30:55","180926818","practice","1","mask_prime_negative_practice","20","0","0","1","2831","0","0"
"012320","12:30:55","180926818","practice","1","prime_positive_practice","21","0","0","0","100","0","0"
"012320","12:30:55","180926818","practice","1","intention_check_positive_practice","22","0","0","1","2056","0","0"
"012320","12:30:55","180926818","practice","1","mask_prime_positive_practice","23","0","0","0","2619","0","0"
"012320","12:30:55","180926818","practice","1","prime_positive_practice","24","0","0","0","100","0","0"
"012320","12:30:55","180926818","practice","1","intention_check_positive_practice","25","0","0","0","2500","0","0"
"012320","12:30:55","180926818","practice","1","mask_prime_positive_practice","26","0","0","1","1519","0","0"
"012320","12:30:55","180926818","practice","1","prime_negative_practice","27","0","0","0","100","0","0"
"012320","12:30:55","180926818","practice","1","intention_check_negative_practice","28","0","0","0","2500","0","0"
"012320","12:30:55","180926818","practice","1","mask_prime_negative_practice","29","0","0","1","1605","0","0"
"012320","12:30:55","180926818","practice","1","prime_negative_practice","30","0","0","0","100","0","0"
"012320","12:30:55","180926818","practice","1","intention_check_negative_practice","31","0","0","1","2281","0","0"
"012320","12:30:55","180926818","practice","1","mask_prime_negative_practice","32","0","0","1","925","0","0"
"012320","12:30:55","180926818","test","2","prime_positive","2","0","0","0","100","0","0"
"012320","12:30:55","180926818","test","2","intention_check_positive","3","0","0","1","2329","0","0"
"012320","12:30:55","180926818","test","2","mask_prime_positive","4","10","66","0","499","0","0"
"012320","12:30:55","180926818","test","2","prime_negative","5","10","66","0","100","0","0"
"012320","12:30:55","180926818","test","2","intention_check_negative","6","10","66","0","2500","0","0"
"012320","12:30:55","180926818","test","2","mask_prime_negative","7","6","48","1","475","0","0"
"012320","12:30:55","180926818","test","2","prime_negative","8","6","48","0","100","0","0"
"012320","12:30:55","180926818","test","2","intention_check_negative","9","6","48","1","1486","0","0"
"012320","12:30:55","180926818","test","2","mask_prime_negative","10","5","11","1","1327","0","0"
"012320","12:30:55","180926818","test","2","prime_positive","11","5","11","0","100","0","0"
"012320","12:30:55","180926818","test","2","intention_check_positive","12","5","11","1","807","0","0"
"012320","12:30:55","180926818","test","2","mask_prime_positive","13","1","35","0","115","0","0"
"012320","12:30:55","180926818","test","2","prime_negative","14","1","35","0","100","0","0"
"012320","12:30:55","180926818","test","2","intention_check_negative","15","1","35","1","1038","0","0"
"012320","12:30:55","180926818","test","2","mask_prime_negative","16","7","10","0","2687","0","0"
"012320","12:30:55","180926818","test","2","prime_negative","17","7","10","0","100","0","0"
"012320","12:30:55","180926818","test","2","intention_check_negative","18","7","10","1","1406","0","0"
"012320","12:30:55","180926818","test","2","mask_prime_negative","19","12","69","1","1854","0","0"
"012320","12:30:55","180926818","test","2","prime_negative","20","12","69","0","100","0","0"
"012320","12:30:55","180926818","test","2","intention_check_negative","21","12","69","1","1646","0","0"
"012320","12:30:55","180926818","test","2","mask_prime_negative","22","8","54","1","20","0","0"
"012320","12:30:55","180926818","test","2","prime_positive","23","8","54","0","100","0","0"
"012320","12:30:55","180926818","test","2","intention_check_positive","24","8","54","1","1340","0","0"
"012320","12:30:55","180926818","test","2","mask_prime_positive","25","4","60","0","1986","0","0"
"012320","12:30:55","180926818","test","2","prime_positive","26","4","60","0","100","0","0"
"012320","12:30:55","180926818","test","2","intention_check_positive","27","4","60","1","817","0","0"
"012320","12:30:55","180926818","test","2","mask_prime_positive","28","3","45","0","1514","0","0"
"012320","12:30:55","180926818","test","2","prime_positive","29","3","45","0","100","0","0"
"012320","12:30:55","180926818","test","2","intention_check_positive","30","3","45","1","1317","0","0"
"012320","12:30:55","180926818","test","2","mask_prime_positive","31","12","71","0","1360","0","0"
"012320","12:30:55","180926818","test","2","prime_positive","32","12","71","0","100","0","0"
"012320","12:30:55","180926818","test","2","intention_check_positive","33","12","71","1","969","0","0"
"012320","12:30:55","180926818","test","2","mask_prime_positive","34","11","50","0","74","0","0"
"012320","12:30:55","180926818","test","2","prime_positive","35","11","50","0","100","0","0"
"012320","12:30:55","180926818","test","2","intention_check_positive","36","11","50","1","983","0","0"
"012320","12:30:55","180926818","test","2","mask_prime_positive","37","7","2","0","923","0","0"
"012320","12:30:55","180926818","test","2","prime_negative","38","7","2","0","100","0","0"
"012320","12:30:55","180926818","test","2","intention_check_negative","39","7","2","1","1168","0","0"
"012320","12:30:55","180926818","test","2","mask_prime_negative","40","2","47","1","771","0","0"
"012320","12:30:55","180926818","test","2","prime_positive","41","2","47","0","100","0","0"
"012320","12:30:55","180926818","test","2","intention_check_positive","42","2","47","1","1168","0","0"
"012320","12:30:55","180926818","test","2","mask_prime_positive","43","7","55","0","421","0","0"
"012320","12:30:55","180926818","test","2","prime_positive","44","7","55","0","100","0","0"
"012320","12:30:55","180926818","test","2","intention_check_positive","45","7","55","1","941","0","0"
"012320","12:30:55","180926818","test","2","mask_prime_positive","46","2","51","0","342","0","0"
"012320","12:30:55","180926818","test","2","prime_negative","47","2","51","0","100","0","0"
"012320","12:30:55","180926818","test","2","intention_check_negative","48","2","51","1","886","0","0"
"012320","12:30:55","180926818","test","2","mask_prime_negative","49","11","62","1","1149","0","0"
"012320","12:30:55","180926818","test","2","prime_positive","50","11","62","0","100","0","0"
"012320","12:30:55","180926818","test","2","intention_check_positive","51","11","62","1","965","0","0"
"012320","12:30:55","180926818","test","2","mask_prime_positive","52","11","37","0","741","0","0"
"012320","12:30:55","180926818","test","2","prime_negative","53","11","37","0","100","0","0"
"012320","12:30:55","180926818","test","2","intention_check_negative","54","11","37","1","822","0","0"
"012320","12:30:55","180926818","test","2","mask_prime_negative","55","6","52","1","509","0","0"
"012320","12:30:55","180926818","test","2","prime_positive","56","6","52","0","100","0","0"
"012320","12:30:55","180926818","test","2","intention_check_positive","57","6","52","1","816","0","0"
"012320","12:30:55","180926818","test","2","mask_prime_positive","58","10","57","0","652","0","0"
"012320","12:30:55","180926818","test","2","prime_negative","59","10","57","0","100","0","0"
"012320","12:30:55","180926818","test","2","intention_check_negative","60","10","57","1","720","0","0"
"012320","12:30:55","180926818","test","2","mask_prime_negative","61","12","22","1","416","0","0"
"012320","12:30:55","180926818","test","2","prime_positive","62","12","22","0","100","0","0"
"012320","12:30:55","180926818","test","2","intention_check_positive","63","12","22","1","782","0","0"
"012320","12:30:55","180926818","test","2","mask_prime_positive","64","8","1","0","305","0","0"
"012320","12:30:55","180926818","test","2","prime_negative","65","8","1","0","100","0","0"
"012320","12:30:55","180926818","test","2","intention_check_negative","66","8","1","1","760","0","0"
"012320","12:30:55","180926818","test","2","mask_prime_negative","67","3","15","1","461","0","0"
"012320","12:30:55","180926818","test","2","prime_positive","68","3","15","0","100","0","0"
"012320","12:30:55","180926818","test","2","intention_check_positive","69","3","15","1","834","0","0"
"012320","12:30:55","180926818","test","2","mask_prime_positive","70","3","70","0","213","0","0"
"012320","12:30:55","180926818","test","2","prime_positive","71","3","70","0","100","0","0"
"012320","12:30:55","180926818","test","2","intention_check_positive","72","3","70","1","814","0","0"
"012320","12:30:55","180926818","test","2","mask_prime_positive","73","4","42","0","857","0","0"
"012320","12:30:55","180926818","test","2","prime_positive","74","4","42","0","100","0","0"
"012320","12:30:55","180926818","test","2","intention_check_positive","75","4","42","1","744","0","0"
"012320","12:30:55","180926818","test","2","mask_prime_positive","76","1","9","0","565","0","0"
"012320","12:30:55","180926818","test","2","prime_negative","77","1","9","0","100","0","0"
"012320","12:30:55","180926818","test","2","intention_check_negative","78","1","9","1","894","0","0"
"012320","12:30:55","180926818","test","2","mask_prime_negative","79","8","26","1","1965","0","0"
"012320","12:30:55","180926818","test","2","prime_positive","80","8","26","0","100","0","0"
"012320","12:30:55","180926818","test","2","intention_check_positive","81","8","26","1","966","0","0"
"012320","12:30:55","180926818","test","2","mask_prime_positive","82","12","18","1","355","0","0"
"012320","12:30:55","180926818","test","2","prime_positive","83","12","18","0","100","0","0"
"012320","12:30:55","180926818","test","2","intention_check_positive","84","12","18","1","890","0","0"
"012320","12:30:55","180926818","test","2","mask_prime_positive","85","9","40","0","397","0","0"
"012320","12:30:55","180926818","test","2","prime_negative","86","9","40","0","100","0","0"
"012320","12:30:55","180926818","test","2","intention_check_negative","87","9","40","1","770","0","0"
"012320","12:30:55","180926818","test","2","mask_prime_negative","88","11","36","1","434","0","0"
"012320","12:30:55","180926818","test","2","prime_positive","89","11","36","0","100","0","0"
"012320","12:30:55","180926818","test","2","intention_check_positive","90","11","36","1","859","0","0"
"012320","12:30:55","180926818","test","2","mask_prime_positive","91","6","5","0","361","0","0"
"012320","12:30:55","180926818","test","2","prime_negative","92","6","5","0","100","0","0"
"012320","12:30:55","180926818","test","2","intention_check_negative","93","6","5","1","653","0","0"
"012320","12:30:55","180926818","test","2","mask_prime_negative","94","1","34","1","453","0","0"
"012320","12:30:55","180926818","test","2","prime_negative","95","1","34","0","100","0","0"
"012320","12:30:55","180926818","test","2","intention_check_negative","96","1","34","1","897","0","0"
"012320","12:30:55","180926818","test","2","mask_prime_negative","97","9","7","1","327","0","0"
"012320","12:30:55","180926818","test","2","prime_positive","98","9","7","0","100","0","0"
"012320","12:30:55","180926818","test","2","intention_check_positive","99","9","7","1","687","0","0"
"012320","12:30:55","180926818","test","2","mask_prime_positive","100","5","59","0","299","0","0"
"012320","12:30:55","180926818","test","2","prime_positive","101","5","59","0","100","0","0"
"012320","12:30:55","180926818","test","2","intention_check_positive","102","5","59","1","792","0","0"
"012320","12:30:55","180926818","test","2","mask_prime_positive","103","3","28","0","1128","0","0"
"012320","12:30:55","180926818","test","2","prime_negative","104","3","28","0","100","0","0"
"012320","12:30:55","180926818","test","2","intention_check_negative","105","3","28","1","890","0","0"
"012320","12:30:55","180926818","test","2","mask_prime_negative","106","2","32","1","398","0","0"
"012320","12:30:55","180926818","test","2","prime_negative","107","2","32","0","100","0","0"
"012320","12:30:55","180926818","test","2","intention_check_negative","108","2","32","1","853","0","0"
"012320","12:30:55","180926818","test","2","mask_prime_negative","109","5","8","1","2071","0","0"
"012320","12:30:55","180926818","test","2","prime_negative","110","5","8","0","100","0","0"
"012320","12:30:55","180926818","test","2","intention_check_negative","111","5","8","1","899","0","0"
"012320","12:30:55","180926818","test","2","mask_prime_negative","112","7","53","0","2151","0","0"
"012320","12:30:55","180926818","test","2","prime_negative","113","7","53","0","100","0","0"
"012320","12:30:55","180926818","test","2","intention_check_negative","114","7","53","1","1084","0","0"
"012320","12:30:55","180926818","test","2","mask_prime_negative","115","4","44","1","417","0","0"
"012320","12:30:55","180926818","test","2","prime_positive","116","4","44","0","100","0","0"
"012320","12:30:55","180926818","test","2","intention_check_positive","117","4","44","1","606","0","0"
"012320","12:30:55","180926818","test","2","mask_prime_positive","118","11","41","0","354","0","0"
"012320","12:30:55","180926818","test","2","prime_negative","119","11","41","0","100","0","0"
"012320","12:30:55","180926818","test","2","intention_check_negative","120","11","41","1","629","0","0"
"012320","12:30:55","180926818","test","2","mask_prime_negative","121","10","68","1","398","0","0"
"012320","12:30:55","180926818","test","2","prime_positive","122","10","68","0","100","0","0"
"012320","12:30:55","180926818","test","2","intention_check_positive","123","10","68","1","810","0","0"
"012320","12:30:55","180926818","test","2","mask_prime_positive","124","10","25","0","319","0","0"
"012320","12:30:55","180926818","test","2","prime_negative","125","10","25","0","100","0","0"
"012320","12:30:55","180926818","test","2","intention_check_negative","126","10","25","1","865","0","0"
"012320","12:30:55","180926818","test","2","mask_prime_negative","127","6","12","1","306","0","0"
"012320","12:30:55","180926818","test","2","prime_negative","128","6","12","0","100","0","0"
"012320","12:30:55","180926818","test","2","intention_check_negative","129","6","12","1","770","0","0"
"012320","12:30:55","180926818","test","2","mask_prime_negative","130","7","46","0","309","0","0"
"012320","12:30:55","180926818","test","2","prime_positive","131","7","46","0","100","0","0"
"012320","12:30:55","180926818","test","2","intention_check_positive","132","7","46","0","2500","0","0"
"012320","12:30:55","180926818","test","2","mask_prime_positive","133","5","27","1","3666","0","0"
"012320","12:30:55","180926818","test","2","prime_positive","134","5","27","0","100","0","0"
"012320","12:30:55","180926818","test","2","intention_check_positive","135","5","27","1","660","0","0"
"012320","12:30:55","180926818","test","2","mask_prime_positive","136","4","49","0","359","0","0"
"012320","12:30:55","180926818","test","2","prime_negative","137","4","49","0","100","0","0"
"012320","12:30:55","180926818","test","2","intention_check_negative","138","4","49","1","760","0","0"
"012320","12:30:55","180926818","test","2","mask_prime_negative","139","9","23","1","577","0","0"
"012320","12:30:55","180926818","test","2","prime_positive","140","9","23","0","100","0","0"
"012320","12:30:55","180926818","test","2","intention_check_positive","141","9","23","1","855","0","0"
"012320","12:30:55","180926818","test","2","mask_prime_positive","142","7","67","0","311","0","0"
"012320","12:30:55","180926818","test","2","prime_negative","143","7","67","0","100","0","0"
"012320","12:30:55","180926818","test","2","intention_check_negative","144","7","67","1","811","0","0"
"012320","12:30:55","180926818","test","2","mask_prime_negative","145","2","38","1","372","0","0"
"012320","12:30:55","180926818","test","2","prime_positive","146","2","38","0","100","0","0"
"012320","12:30:55","180926818","test","2","intention_check_positive","147","2","38","1","913","0","0"
"012320","12:30:55","180926818","test","2","mask_prime_positive","148","6","30","0","843","0","0"
"012320","12:30:55","180926818","test","2","prime_negative","149","6","30","0","100","0","0"
"012320","12:30:55","180926818","test","2","intention_check_negative","150","6","30","1","775","0","0"
"012320","12:30:55","180926818","test","2","mask_prime_negative","151","4","56","0","309","0","0"
"012320","12:30:55","180926818","test","2","prime_negative","152","4","56","0","100","0","0"
"012320","12:30:55","180926818","test","2","intention_check_negative","153","4","56","1","1295","0","0"
"012320","12:30:55","180926818","test","2","mask_prime_negative","154","3","61","1","922","0","0"
"012320","12:30:55","180926818","test","2","prime_positive","155","3","61","0","100","0","0"
"012320","12:30:55","180926818","test","2","intention_check_positive","156","3","61","1","863","0","0"
"012320","12:30:55","180926818","test","2","mask_prime_positive","157","1","43","0","553","0","0"
"012320","12:30:55","180926818","test","2","prime_negative","158","1","43","0","100","0","0"
"012320","12:30:55","180926818","test","2","intention_check_negative","159","1","43","1","682","0","0"
"012320","12:30:55","180926818","test","2","mask_prime_negative","160","11","13","1","1165","0","0"
"012320","12:30:55","180926818","test","2","prime_positive","161","11","13","0","100","0","0"
"012320","12:30:55","180926818","test","2","intention_check_positive","162","11","13","1","746","0","0"
"012320","12:30:55","180926818","test","2","mask_prime_positive","163","2","31","0","316","0","0"
"012320","12:30:55","180926818","test","2","prime_negative","164","2","31","0","100","0","0"
"012320","12:30:55","180926818","test","2","intention_check_negative","165","2","31","1","737","0","0"
"012320","12:30:55","180926818","test","2","mask_prime_negative","166","8","4","1","306","0","0"
"012320","12:30:55","180926818","test","2","prime_negative","167","8","4","0","100","0","0"
"012320","12:30:55","180926818","test","2","intention_check_negative","168","8","4","1","2194","0","0"
"012320","12:30:55","180926818","test","2","mask_prime_negative","169","1","33","1","477","0","0"
"012320","12:30:55","180926818","test","2","prime_positive","170","1","33","0","100","0","0"
"012320","12:30:55","180926818","test","2","intention_check_positive","171","1","33","1","858","0","0"
"012320","12:30:55","180926818","test","2","mask_prime_positive","172","8","17","0","290","0","0"
"012320","12:30:55","180926818","test","2","prime_negative","173","8","17","0","100","0","0"
"012320","12:30:55","180926818","test","2","intention_check_negative","174","8","17","1","796","0","0"
"012320","12:30:55","180926818","test","2","mask_prime_negative","175","10","19","1","269","0","0"
"012320","12:30:55","180926818","test","2","prime_negative","176","10","19","0","100","0","0"
"012320","12:30:55","180926818","test","2","intention_check_negative","177","10","19","1","734","0","0"
"012320","12:30:55","180926818","test","2","mask_prime_negative","178","12","72","1","310","0","0"
"012320","12:30:55","180926818","test","2","prime_negative","179","12","72","0","100","0","0"
"012320","12:30:55","180926818","test","2","intention_check_negative","180","12","72","1","755","0","0"
"012320","12:30:55","180926818","test","2","mask_prime_negative","181","5","16","1","211","0","0"
"012320","12:30:55","180926818","test","2","prime_positive","182","5","16","0","100","0","0"
"012320","12:30:55","180926818","test","2","intention_check_positive","183","5","16","1","785","0","0"
"012320","12:30:55","180926818","test","2","mask_prime_positive","184","9","65","0","194","0","0"
"012320","12:30:55","180926818","test","2","prime_negative","185","9","65","0","100","0","0"
"012320","12:30:55","180926818","test","2","intention_check_negative","186","9","65","1","937","0","0"
"012320","12:30:55","180926818","test","2","mask_prime_negative","187","7","58","1","598","0","0"
"012320","12:30:55","180926818","test","2","prime_negative","188","7","58","0","100","0","0"
"012320","12:30:55","180926818","test","2","intention_check_negative","189","7","58","1","912","0","0"
"012320","12:30:55","180926818","test","2","mask_prime_negative","190","3","26","1","223","0","0"
"012320","12:30:55","180926818","test","2","prime_positive","191","3","26","0","100","0","0"
"012320","12:30:55","180926818","test","2","intention_check_positive","192","3","26","1","737","0","0"
"012320","12:30:55","180926818","test","2","mask_prime_positive","193","12","43","0","227","0","0"
"012320","12:30:55","180926818","test","2","prime_positive","194","12","43","0","100","0","0"
"012320","12:30:55","180926818","test","2","intention_check_positive","195","12","43","1","573","0","0"
"012320","12:30:55","180926818","test","2","mask_prime_positive","196","9","63","0","218","0","0"
"012320","12:30:55","180926818","test","2","prime_positive","197","9","63","0","100","0","0"
"012320","12:30:55","180926818","test","2","intention_check_positive","198","9","63","1","979","0","0"
"012320","12:30:55","180926818","test","2","mask_prime_positive","199","8","57","0","110","0","0"
"012320","12:30:55","180926818","test","2","prime_negative","200","8","57","0","100","0","0"
"012320","12:30:55","180926818","test","2","intention_check_negative","201","8","57","1","750","0","0"
"012320","12:30:55","180926818","test","2","mask_prime_negative","202","5","38","1","341","0","0"
"012320","12:30:55","180926818","test","2","prime_positive","203","5","38","0","100","0","0"
"012320","12:30:55","180926818","test","2","intention_check_positive","204","5","38","1","1122","0","0"
"012320","12:30:55","180926818","test","2","mask_prime_positive","205","2","17","1","6767","0","0"
"012320","12:30:55","180926818","test","2","prime_negative","206","2","17","0","100","0","0"
"012320","12:30:55","180926818","test","2","intention_check_negative","207","2","17","1","1096","0","0"
"012320","12:30:55","180926818","test","2","mask_prime_negative","208","2","68","1","1387","0","0"
"012320","12:30:55","180926818","test","2","prime_positive","209","2","68","0","100","0","0"
"012320","12:30:55","180926818","test","2","intention_check_positive","210","2","68","1","802","0","0"
"012320","12:30:55","180926818","test","2","mask_prime_positive","211","5","58","0","2330","0","0"
"012320","12:30:55","180926818","test","2","prime_positive","212","5","58","0","100","0","0"
"012320","12:30:55","180926818","test","2","intention_check_positive","213","5","58","1","530","0","0"
"012320","12:30:55","180926818","test","2","mask_prime_positive","214","1","40","0","533","0","0"
"012320","12:30:55","180926818","test","2","prime_negative","215","1","40","0","100","0","0"
"012320","12:30:55","180926818","test","2","intention_check_negative","216","1","40","1","776","0","0"
"012320","12:30:55","180926818","test","2","mask_prime_negative","217","1","28","1","539","0","0"
"012320","12:33:21","848717023","practice","1","prime_positive_practice","3","0","0","0","100","0","0"
"012320","12:33:21","848717023","practice","1","intention_check_positive_practice","4","0","0","0","2500","0","0"
"012320","12:33:21","848717023","practice","1","mask_prime_positive_practice","5","0","0","1","2745","0","0"
"012320","12:33:21","848717023","practice","1","prime_positive_practice","6","0","0","0","100","0","0"
"012320","12:33:21","848717023","practice","1","intention_check_positive_practice","7","0","0","0","2500","0","0"
"012320","12:33:21","848717023","practice","1","mask_prime_positive_practice","8","0","0","1","878","0","0"
"012320","12:33:21","848717023","practice","1","prime_negative_practice","9","0","0","0","100","0","0"
"012320","12:33:21","848717023","practice","1","intention_check_negative_practice","10","0","0","0","2500","0","0"
"012320","12:33:21","848717023","practice","1","mask_prime_negative_practice","11","0","0","1","2919","0","0"
"012320","12:33:21","848717023","practice","1","prime_negative_practice","12","0","0","0","100","0","0"
"012320","12:33:21","848717023","practice","1","intention_check_negative_practice","13","0","0","0","2500","0","0"
"012320","12:33:21","848717023","practice","1","mask_prime_negative_practice","14","0","0","1","369","0","0"
"012320","12:33:21","848717023","practice","1","prime_negative_practice","15","0","0","0","100","0","0"
"012320","12:33:21","848717023","practice","1","intention_check_negative_practice","16","0","0","0","2500","0","0"
"012320","12:33:21","848717023","practice","1","mask_prime_negative_practice","17","0","0","1","219","0","0"
"012320","12:33:21","848717023","practice","1","prime_negative_practice","18","0","0","0","100","0","0"
"012320","12:33:21","848717023","practice","1","intention_check_negative_practice","19","0","0","0","2500","0","0"
"012320","12:33:21","848717023","practice","1","mask_prime_negative_practice","20","0","0","0","244","0","0"
"012320","12:33:21","848717023","practice","1","prime_positive_practice","21","0","0","0","100","0","0"
"012320","12:33:21","848717023","practice","1","intention_check_positive_practice","22","0","0","0","2500","0","0"
"012320","12:33:21","848717023","practice","1","mask_prime_positive_practice","23","0","0","0","260","0","0"
"012320","12:33:21","848717023","practice","1","prime_positive_practice","24","0","0","0","100","0","0"
"012320","12:33:21","848717023","practice","1","intention_check_positive_practice","25","0","0","0","2500","0","0"
"012320","12:33:21","848717023","practice","1","mask_prime_positive_practice","26","0","0","0","384","0","0"
"012320","12:33:21","848717023","practice","1","prime_negative_practice","27","0","0","0","100","0","0"
"012320","12:33:21","848717023","practice","1","intention_check_negative_practice","28","0","0","0","2500","0","0"
"012320","12:33:21","848717023","practice","1","mask_prime_negative_practice","29","0","0","1","206","0","0"
"012320","12:33:21","848717023","practice","1","prime_positive_practice","30","0","0","0","100","0","0"
"012320","12:33:21","848717023","practice","1","intention_check_positive_practice","31","0","0","0","2500","0","0"
"012320","12:33:21","848717023","practice","1","mask_prime_positive_practice","32","0","0","0","301","0","0"
"012320","12:33:21","848717023","test","2","prime_negative","2","0","0","0","100","0","0"
"012320","12:33:21","848717023","test","2","intention_check_negative","3","0","0","0","2500","0","0"
"012320","12:33:21","848717023","test","2","mask_prime_negative","4","1","38","0","263","0","0"
"012320","12:33:21","848717023","test","2","prime_positive","5","1","38","0","100","0","0"
"012320","12:33:21","848717023","test","2","intention_check_positive","6","1","38","0","2500","0","0"
"012320","12:33:21","848717023","test","2","mask_prime_positive","7","10","53","1","266","0","0"
"012320","12:33:21","848717023","test","2","prime_positive","8","10","53","0","100","0","0"
"012320","12:33:21","848717023","test","2","intention_check_positive","9","10","53","0","2500","0","0"
"012320","12:33:21","848717023","test","2","mask_prime_positive","10","12","19","0","228","0","0"
"012320","12:33:21","848717023","test","2","prime_negative","11","12","19","0","100","0","0"
"012320","12:33:21","848717023","test","2","intention_check_negative","12","12","19","0","2500","0","0"
"012320","12:33:21","848717023","test","2","mask_prime_negative","13","12","1","0","254","0","0"
"012320","12:33:21","848717023","test","2","prime_positive","14","12","1","0","100","0","0"
"012320","12:33:21","848717023","test","2","intention_check_positive","15","12","1","0","2500","0","0"
"012320","12:33:21","848717023","test","2","mask_prime_positive","16","4","17","0","326","0","0"
"012320","12:33:21","848717023","test","2","prime_positive","17","4","17","0","100","0","0"
"012320","12:33:21","848717023","test","2","intention_check_positive","18","4","17","0","2500","0","0"
"012320","12:33:21","848717023","test","2","mask_prime_positive","19","2","69","1","238","0","0"
"012320","12:33:21","848717023","test","2","prime_negative","20","2","69","0","100","0","0"
"012320","12:33:21","848717023","test","2","intention_check_negative","21","2","69","0","2500","0","0"
"012320","12:33:21","848717023","test","2","mask_prime_negative","22","7","15","1","329","0","0"
"012320","12:33:21","848717023","test","2","prime_positive","23","7","15","0","100","0","0"
"012320","12:33:21","848717023","test","2","intention_check_positive","24","7","15","0","2500","0","0"
"012320","12:33:21","848717023","test","2","mask_prime_positive","25","6","66","1","307","0","0"
"012320","12:33:21","848717023","test","2","prime_positive","26","6","66","0","100","0","0"
"012320","12:33:21","848717023","test","2","intention_check_positive","27","6","66","0","2500","0","0"
"012320","12:33:21","848717023","test","2","mask_prime_positive","28","9","45","0","321","0","0"
"012320","12:33:21","848717023","test","2","prime_negative","29","9","45","0","100","0","0"
"012320","12:33:21","848717023","test","2","intention_check_negative","30","9","45","0","2500","0","0"
"012320","12:33:21","848717023","test","2","mask_prime_negative","31","9","44","1","309","0","0"
"012320","12:33:21","848717023","test","2","prime_positive","32","9","44","0","100","0","0"
"012320","12:33:21","848717023","test","2","intention_check_positive","33","9","44","0","2500","0","0"
"012320","12:33:21","848717023","test","2","mask_prime_positive","34","1","22","0","286","0","0"
"012320","12:33:21","848717023","test","2","prime_positive","35","1","22","0","100","0","0"
"012320","12:33:21","848717023","test","2","intention_check_positive","36","1","22","0","2500","0","0"
"012320","12:33:21","848717023","test","2","mask_prime_positive","37","10","20","0","311","0","0"
"012320","12:33:21","848717023","test","2","prime_positive","38","10","20","0","100","0","0"
"012320","12:33:21","848717023","test","2","intention_check_positive","39","10","20","0","2500","0","0"
"012320","12:33:21","848717023","test","2","mask_prime_positive","40","3","11","0","437","0","0"
"012320","12:33:21","848717023","test","2","prime_negative","41","3","11","0","100","0","0"
"012320","12:33:21","848717023","test","2","intention_check_negative","42","3","11","0","2500","0","0"
"012320","12:33:21","848717023","test","2","mask_prime_negative","43","4","4","1","283","0","0"
"012320","12:33:21","848717023","test","2","prime_negative","44","4","4","0","100","0","0"
"012320","12:33:21","848717023","test","2","intention_check_negative","45","4","4","0","2500","0","0"
"012320","12:33:21","848717023","test","2","mask_prime_negative","46","5","10","1","257","0","0"
"012320","12:33:21","848717023","test","2","prime_positive","47","5","10","0","100","0","0"
"012320","12:33:21","848717023","test","2","intention_check_positive","48","5","10","0","2500","0","0"
"012320","12:33:21","848717023","test","2","mask_prime_positive","49","5","52","0","2220","0","0"
"012320","12:33:21","848717023","test","2","prime_positive","50","5","52","0","100","0","0"
"012320","12:33:21","848717023","test","2","intention_check_positive","51","5","52","0","2500","0","0"
"012320","12:33:21","848717023","test","2","mask_prime_positive","52","4","26","1","1552","0","0"
"012320","12:33:21","848717023","test","2","prime_positive","53","4","26","0","100","0","0"
"012320","12:33:21","848717023","test","2","intention_check_positive","54","4","26","0","2500","0","0"
"012320","12:33:21","848717023","test","2","mask_prime_positive","55","9","14","1","4016","0","0"
"012320","12:33:21","848717023","test","2","prime_negative","56","9","14","0","100","0","0"
"012320","12:33:21","848717023","test","2","intention_check_negative","57","9","14","0","2500","0","0"
"012320","12:33:21","848717023","test","2","mask_prime_negative","58","3","64","1","707","0","0"
"012320","12:33:21","848717023","test","2","prime_positive","59","3","64","0","100","0","0"
"012320","12:33:21","848717023","test","2","intention_check_positive","60","3","64","0","2500","0","0"
"012320","12:33:21","848717023","test","2","mask_prime_positive","61","1","32","1","625","0","0"
"012320","12:33:21","848717023","test","2","prime_positive","62","1","32","0","100","0","0"
"012320","12:33:21","848717023","test","2","intention_check_positive","63","1","32","0","2500","0","0"
"012320","12:33:21","848717023","test","2","mask_prime_positive","64","7","47","1","2015","0","0"
"012320","12:33:21","848717023","test","2","prime_positive","65","7","47","0","100","0","0"
"012320","12:33:21","848717023","test","2","intention_check_positive","66","7","47","0","2500","0","0"
"012320","12:33:21","848717023","test","2","mask_prime_positive","67","12","67","0","621","0","0"
"012320","12:33:21","848717023","test","2","prime_negative","68","12","67","0","100","0","0"
"012320","12:33:21","848717023","test","2","intention_check_negative","69","12","67","0","2500","0","0"
"012320","12:33:21","848717023","test","2","mask_prime_negative","70","5","72","1","5207","0","0"
"012320","12:33:21","848717023","test","2","prime_positive","71","5","72","0","100","0","0"
"012320","12:33:21","848717023","test","2","intention_check_positive","72","5","72","0","2500","0","0"
"012320","12:33:21","848717023","test","2","mask_prime_positive","73","8","58","1","450","0","0"
"012320","12:33:21","848717023","test","2","prime_positive","74","8","58","0","100","0","0"
"012320","12:33:21","848717023","test","2","intention_check_positive","75","8","58","0","2500","0","0"
"012320","12:33:21","848717023","test","2","mask_prime_positive","76","6","49","1","903","0","0"
"012320","12:33:21","848717023","test","2","prime_positive","77","6","49","0","100","0","0"
"012320","12:33:21","848717023","test","2","intention_check_positive","78","6","49","0","2500","0","0"
"012320","12:33:21","848717023","test","2","mask_prime_positive","79","11","9","0","449","0","0"
"012320","12:33:21","848717023","test","2","prime_positive","80","11","9","0","100","0","0"
"012320","12:33:21","848717023","test","2","intention_check_positive","81","11","9","0","2500","0","0"
"012320","12:33:21","848717023","test","2","mask_prime_positive","82","2","23","1","3573","0","0"
"012320","12:33:21","848717023","test","2","prime_negative","83","2","23","0","100","0","0"
"012320","12:33:21","848717023","test","2","intention_check_negative","84","2","23","0","2500","0","0"
"012320","12:33:21","848717023","test","2","mask_prime_negative","85","7","18","1","4364","0","0"
"012320","12:33:21","848717023","test","2","prime_positive","86","7","18","0","100","0","0"
"012320","12:33:21","848717023","test","2","intention_check_positive","87","7","18","0","2500","0","0"
"012320","12:33:21","848717023","test","2","mask_prime_positive","88","3","31","0","1460","0","0"
"012320","12:33:21","848717023","test","2","prime_positive","89","3","31","0","100","0","0"
"012320","12:33:21","848717023","test","2","intention_check_positive","90","3","31","0","2500","0","0"
"012320","12:33:21","848717023","test","2","mask_prime_positive","91","5","62","1","1687","0","0"
"012320","12:33:21","848717023","test","2","prime_positive","92","5","62","0","100","0","0"
"012320","12:33:21","848717023","test","2","intention_check_positive","93","5","62","0","2500","0","0"
"012320","12:33:21","848717023","test","2","mask_prime_positive","94","12","13","1","707","0","0"
"012320","12:33:21","848717023","test","2","prime_negative","95","12","13","0","100","0","0"
"012320","12:33:21","848717023","test","2","intention_check_negative","96","12","13","0","2500","0","0"
"012320","12:33:21","848717023","test","2","mask_prime_negative","97","4","16","1","7827","0","0"
"012320","12:33:21","848717023","test","2","prime_negative","98","4","16","0","100","0","0"
"012320","12:33:21","848717023","test","2","intention_check_negative","99","4","16","0","2500","0","0"
"012320","12:33:21","848717023","test","2","mask_prime_negative","100","3","6","0","1861","0","0"
"012320","12:33:21","848717023","test","2","prime_positive","101","3","6","0","100","0","0"
"012320","12:33:21","848717023","test","2","intention_check_positive","102","3","6","0","2500","0","0"
"012320","12:33:21","848717023","test","2","mask_prime_positive","103","9","70","1","4413","0","0"
"012320","12:33:21","848717023","test","2","prime_positive","104","9","70","0","100","0","0"
"012320","12:33:21","848717023","test","2","intention_check_positive","105","9","70","0","2500","0","0"
"012320","12:33:21","848717023","test","2","mask_prime_positive","106","2","7","0","3175","0","0"
"012320","12:33:21","848717023","test","2","prime_negative","107","2","7","0","100","0","0"
"012320","12:33:21","848717023","test","2","intention_check_negative","108","2","7","0","2500","0","0"
"012320","12:33:21","848717023","test","2","mask_prime_negative","109","12","61","1","309","0","0"
"012320","12:33:21","848717023","test","2","prime_negative","110","12","61","0","100","0","0"
"012320","12:33:21","848717023","test","2","intention_check_negative","111","12","61","0","2500","0","0"
"012320","12:33:21","848717023","test","2","mask_prime_negative","112","9","27","1","2209","0","0"
"012320","12:33:21","848717023","test","2","prime_negative","113","9","27","0","100","0","0"
"012320","12:33:21","848717023","test","2","intention_check_negative","114","9","27","0","2500","0","0"
"012320","12:33:21","848717023","test","2","mask_prime_negative","115","2","63","1","298","0","0"
"012320","12:33:21","848717023","test","2","prime_negative","116","2","63","0","100","0","0"
"012320","12:33:21","848717023","test","2","intention_check_negative","117","2","63","0","2500","0","0"
"012320","12:33:21","848717023","test","2","mask_prime_negative","118","10","21","1","284","0","0"
"012320","12:33:21","848717023","test","2","prime_negative","119","10","21","0","100","0","0"
"012320","12:33:21","848717023","test","2","intention_check_negative","120","10","21","0","2500","0","0"
"012320","12:33:21","848717023","test","2","mask_prime_negative","121","6","68","1","286","0","0"
"012320","12:33:21","848717023","test","2","prime_positive","122","6","68","0","100","0","0"
"012320","12:33:21","848717023","test","2","intention_check_positive","123","6","68","0","2500","0","0"
"012320","12:33:21","848717023","test","2","mask_prime_positive","124","10","30","1","377","0","0"
"012320","12:33:21","848717023","test","2","prime_negative","125","10","30","0","100","0","0"
"012320","12:33:21","848717023","test","2","intention_check_negative","126","10","30","0","2500","0","0"
"012320","12:33:21","848717023","test","2","mask_prime_negative","127","11","65","1","329","0","0"
"012320","12:33:21","848717023","test","2","prime_positive","128","11","65","0","100","0","0"
"012320","12:33:21","848717023","test","2","intention_check_positive","129","11","65","0","2500","0","0"
"012320","12:33:21","848717023","test","2","mask_prime_positive","130","1","24","0","1281","0","0"
"012320","12:33:21","848717023","test","2","prime_negative","131","1","24","0","100","0","0"
"012320","12:33:21","848717023","test","2","intention_check_negative","132","1","24","0","2500","0","0"
"012320","12:33:21","848717023","test","2","mask_prime_negative","133","8","37","0","717","0","0"
"012320","12:33:21","848717023","test","2","prime_positive","134","8","37","0","100","0","0"
"012320","12:33:21","848717023","test","2","intention_check_positive","135","8","37","0","2500","0","0"
"012320","12:33:21","848717023","test","2","mask_prime_positive","136","7","71","0","1808","0","0"
"012320","12:33:21","848717023","test","2","prime_negative","137","7","71","0","100","0","0"
"012320","12:33:21","848717023","test","2","intention_check_negative","138","7","71","0","2500","0","0"
"012320","12:33:21","848717023","test","2","mask_prime_negative","139","1","56","0","788","0","0"
"012320","12:33:21","848717023","test","2","prime_negative","140","1","56","0","100","0","0"
"012320","12:33:21","848717023","test","2","intention_check_negative","141","1","56","0","2500","0","0"
"012320","12:33:21","848717023","test","2","mask_prime_negative","142","7","39","0","852","0","0"
"012320","12:33:21","848717023","test","2","prime_negative","143","7","39","0","100","0","0"
"012320","12:33:21","848717023","test","2","intention_check_negative","144","7","39","0","2500","0","0"
"012320","12:33:21","848717023","test","2","mask_prime_negative","145","4","8","0","609","0","0"
"012320","12:33:21","848717023","test","2","prime_negative","146","4","8","0","100","0","0"
"012320","12:33:21","848717023","test","2","intention_check_negative","147","4","8","0","2500","0","0"
"012320","12:33:21","848717023","test","2","mask_prime_negative","148","2","34","1","2888","0","0"
"012320","12:33:21","848717023","test","2","prime_positive","149","2","34","0","100","0","0"
"012320","12:33:21","848717023","test","2","intention_check_positive","150","2","34","0","2500","0","0"
"012320","12:33:21","848717023","test","2","mask_prime_positive","151","6","5","0","302","0","0"
"012320","12:33:21","848717023","test","2","prime_negative","152","6","5","0","100","0","0"
"012320","12:33:21","848717023","test","2","intention_check_negative","153","6","5","0","2500","0","0"
"012320","12:33:21","848717023","test","2","mask_prime_negative","154","8","48","0","358","0","0"
"012320","12:33:21","848717023","test","2","prime_negative","155","8","48","0","100","0","0"
"012320","12:33:21","848717023","test","2","intention_check_negative","156","8","48","0","2500","0","0"
"012320","12:33:21","848717023","test","2","mask_prime_negative","157","9","55","1","229","0","0"
"012320","12:33:21","848717023","test","2","prime_negative","158","9","55","0","100","0","0"
"012320","12:33:21","848717023","test","2","intention_check_negative","159","9","55","0","2500","0","0"
"012320","12:33:21","848717023","test","2","mask_prime_negative","160","5","28","1","657","0","0"
"012320","12:33:21","848717023","test","2","prime_positive","161","5","28","0","100","0","0"
"012320","12:33:21","848717023","test","2","intention_check_positive","162","5","28","0","2500","0","0"
"012320","12:33:21","848717023","test","2","mask_prime_positive","163","8","29","0","305","0","0"
"012320","12:33:21","848717023","test","2","prime_negative","164","8","29","0","100","0","0"
"012320","12:33:21","848717023","test","2","intention_check_negative","165","8","29","0","2500","0","0"
"012320","12:33:21","848717023","test","2","mask_prime_negative","166","6","43","0","371","0","0"
"012320","12:33:21","848717023","test","2","prime_positive","167","6","43","0","100","0","0"
"012320","12:33:21","848717023","test","2","intention_check_positive","168","6","43","0","2500","0","0"
"012320","12:33:21","848717023","test","2","mask_prime_positive","169","4","50","1","657","0","0"
"012320","12:33:21","848717023","test","2","prime_positive","170","4","50","0","100","0","0"
"012320","12:33:21","848717023","test","2","intention_check_positive","171","4","50","0","2500","0","0"
"012320","12:33:21","848717023","test","2","mask_prime_positive","172","11","36","1","269","0","0"
"012320","12:33:21","848717023","test","2","prime_negative","173","11","36","0","100","0","0"
"012320","12:33:21","848717023","test","2","intention_check_negative","174","11","36","0","2500","0","0"
"012320","12:33:21","848717023","test","2","mask_prime_negative","175","10","3","1","403","0","0"
"012320","12:33:21","848717023","test","2","prime_negative","176","10","3","0","100","0","0"
"012320","12:33:21","848717023","test","2","intention_check_negative","177","10","3","0","2500","0","0"
"012320","12:33:21","848717023","test","2","mask_prime_negative","178","3","12","0","794","0","0"
"012320","12:33:21","848717023","test","2","prime_positive","179","3","12","0","100","0","0"
"012320","12:33:21","848717023","test","2","intention_check_positive","180","3","12","0","2500","0","0"
"012320","12:33:21","848717023","test","2","mask_prime_positive","181","4","54","1","368","0","0"
"012320","12:33:21","848717023","test","2","prime_negative","182","4","54","0","100","0","0"
"012320","12:33:21","848717023","test","2","intention_check_negative","183","4","54","0","2500","0","0"
"012320","12:33:21","848717023","test","2","mask_prime_negative","184","12","35","1","609","0","0"
"012320","12:33:21","848717023","test","2","prime_positive","185","12","35","0","100","0","0"
"012320","12:33:21","848717023","test","2","intention_check_positive","186","12","35","0","2500","0","0"
"012320","12:33:21","848717023","test","2","mask_prime_positive","187","1","2","1","423","0","0"
"012320","12:33:21","848717023","test","2","prime_negative","188","1","2","0","100","0","0"
"012320","12:33:21","848717023","test","2","intention_check_negative","189","1","2","0","2500","0","0"
"012320","12:33:21","848717023","test","2","mask_prime_negative","190","1","33","1","2531","0","0"
"012320","12:33:21","848717023","test","2","prime_negative","191","1","33","0","100","0","0"
"012320","12:33:21","848717023","test","2","intention_check_negative","192","1","33","0","2500","0","0"
"012320","12:33:21","848717023","test","2","mask_prime_negative","193","11","3","0","420","0","0"
"012320","12:33:21","848717023","test","2","prime_positive","194","11","3","0","100","0","0"
"012320","12:33:21","848717023","test","2","intention_check_positive","195","11","3","0","2500","0","0"
"012320","12:33:21","848717023","test","2","mask_prime_positive","196","8","64","0","371","0","0"
"012320","12:33:21","848717023","test","2","prime_positive","197","8","64","0","100","0","0"
"012320","12:33:21","848717023","test","2","intention_check_positive","198","8","64","0","2500","0","0"
"012320","12:33:21","848717023","test","2","mask_prime_positive","199","2","62","1","396","0","0"
"012320","12:33:21","848717023","test","2","prime_negative","200","2","62","0","100","0","0"
"012320","12:33:21","848717023","test","2","intention_check_negative","201","2","62","0","2500","0","0"
"012320","12:33:21","848717023","test","2","mask_prime_negative","202","1","54","1","1560","0","0"
"012320","12:33:21","848717023","test","2","prime_positive","203","1","54","0","100","0","0"
"012320","12:33:21","848717023","test","2","intention_check_positive","204","1","54","0","2500","0","0"
"012320","12:33:21","848717023","test","2","mask_prime_positive","205","3","10","1","361","0","0"
"012320","12:33:21","848717023","test","2","prime_negative","206","3","10","0","100","0","0"
"012320","12:33:21","848717023","test","2","intention_check_negative","207","3","10","0","2500","0","0"
"012320","12:33:21","848717023","test","2","mask_prime_negative","208","3","36","1","1196","0","0"
"012320","12:33:21","848717023","test","2","prime_negative","209","3","36","0","100","0","0"
"012320","12:33:21","848717023","test","2","intention_check_negative","210","3","36","0","2500","0","0"
"012320","12:33:21","848717023","test","2","mask_prime_negative","211","8","52","0","582","0","0"
"012320","12:33:21","848717023","test","2","prime_negative","212","8","52","0","100","0","0"
"012320","12:33:21","848717023","test","2","intention_check_negative","213","8","52","0","2500","0","0"
"012320","12:33:21","848717023","test","2","mask_prime_negative","214","7","8","1","183","0","0"
"012320","12:33:21","848717023","test","2","prime_negative","215","7","8","0","100","0","0"
"012320","12:33:21","848717023","test","2","intention_check_negative","216","7","8","0","2500","0","0"
"012320","12:33:21","848717023","test","2","mask_prime_negative","217","5","2","1","239","0","0"
"012320","12:37:28","614509532","practice","1","prime_positive_practice","3","0","0","0","100","0","0"
"012320","12:37:28","614509532","practice","1","intention_check_positive_practice","4","0","0","0","2500","0","0"
"012320","12:37:28","614509532","practice","1","mask_prime_positive_practice","5","0","0","1","3471","0","0"
"012320","12:37:28","614509532","practice","1","prime_negative_practice","6","0","0","0","100","0","0"
"012320","12:37:28","614509532","practice","1","intention_check_negative_practice","7","0","0","0","2500","0","0"
"012320","12:37:28","614509532","practice","1","mask_prime_negative_practice","8","0","0","1","788","0","0"
"012320","12:37:28","614509532","practice","1","prime_negative_practice","9","0","0","0","100","0","0"
"012320","12:37:28","614509532","practice","1","intention_check_negative_practice","10","0","0","0","2500","0","0"
"012320","12:37:28","614509532","practice","1","mask_prime_negative_practice","11","0","0","0","473","0","0"
"012320","12:37:28","614509532","practice","1","prime_positive_practice","12","0","0","0","100","0","0"
"012320","12:37:28","614509532","practice","1","intention_check_positive_practice","13","0","0","0","2500","0","0"
"012320","12:37:28","614509532","practice","1","mask_prime_positive_practice","14","0","0","0","1717","0","0"
"012320","12:37:28","614509532","practice","1","prime_positive_practice","15","0","0","0","100","0","0"
"012320","12:37:28","614509532","practice","1","intention_check_positive_practice","16","0","0","0","2500","0","0"
"012320","12:37:28","614509532","practice","1","mask_prime_positive_practice","17","0","0","1","637","0","0"
"012320","12:37:28","614509532","practice","1","prime_negative_practice","18","0","0","0","100","0","0"
"012320","12:37:28","614509532","practice","1","intention_check_negative_practice","19","0","0","0","2500","0","0"
"012320","12:37:28","614509532","practice","1","mask_prime_negative_practice","20","0","0","1","486","0","0"
"012320","12:37:28","614509532","practice","1","prime_positive_practice","21","0","0","0","100","0","0"
"012320","12:37:28","614509532","practice","1","intention_check_positive_practice","22","0","0","0","2500","0","0"
"012320","12:37:28","614509532","practice","1","mask_prime_positive_practice","23","0","0","0","293","0","0"
"012320","12:37:28","614509532","practice","1","prime_negative_practice","24","0","0","0","100","0","0"
"012320","12:37:28","614509532","practice","1","intention_check_negative_practice","25","0","0","0","2500","0","0"
"012320","12:37:28","614509532","practice","1","mask_prime_negative_practice","26","0","0","1","440","0","0"
"012320","12:37:28","614509532","practice","1","prime_negative_practice","27","0","0","0","100","0","0"
"012320","12:37:28","614509532","practice","1","intention_check_negative_practice","28","0","0","0","2500","0","0"
"012320","12:37:28","614509532","practice","1","mask_prime_negative_practice","29","0","0","1","546","0","0"
"012320","12:37:28","614509532","practice","1","prime_positive_practice","30","0","0","0","100","0","0"
"012320","12:37:28","614509532","practice","1","intention_check_positive_practice","31","0","0","0","2500","0","0"
"012320","12:37:28","614509532","practice","1","mask_prime_positive_practice","32","0","0","0","544","0","0"
"012320","12:37:28","614509532","test","2","prime_positive","2","0","0","0","100","0","0"
"012320","12:37:28","614509532","test","2","intention_check_positive","3","0","0","0","2500","0","0"
"012320","12:37:28","614509532","test","2","mask_prime_positive","4","7","54","0","272","0","0"
"012320","12:37:28","614509532","test","2","prime_positive","5","7","54","0","100","0","0"
"012320","12:37:28","614509532","test","2","intention_check_positive","6","7","54","0","2500","0","0"
"012320","12:37:28","614509532","test","2","mask_prime_positive","7","8","7","1","264","0","0"
"012320","12:37:28","614509532","test","2","prime_positive","8","8","7","0","100","0","0"
"012320","12:37:28","614509532","test","2","intention_check_positive","9","8","7","0","2500","0","0"
"012320","12:37:28","614509532","test","2","mask_prime_positive","10","3","66","1","597","0","0"
"012320","12:37:28","614509532","test","2","prime_negative","11","3","66","0","100","0","0"
"012320","12:37:28","614509532","test","2","intention_check_negative","12","3","66","0","2500","0","0"
"012320","12:37:28","614509532","test","2","mask_prime_negative","13","1","58","0","857","0","0"
"012320","12:37:28","614509532","test","2","prime_positive","14","1","58","0","100","0","0"
"012320","12:37:28","614509532","test","2","intention_check_positive","15","1","58","0","2500","0","0"
"012320","12:37:28","614509532","test","2","mask_prime_positive","16","2","38","1","909","0","0"
"012320","12:37:28","614509532","test","2","prime_positive","17","2","38","0","100","0","0"
"012320","12:37:28","614509532","test","2","intention_check_positive","18","2","38","0","2500","0","0"
"012320","12:37:28","614509532","test","2","mask_prime_positive","19","1","64","1","353","0","0"
"012320","12:37:28","614509532","test","2","prime_positive","20","1","64","0","100","0","0"
"012320","12:37:28","614509532","test","2","intention_check_positive","21","1","64","0","2500","0","0"
"012320","12:37:28","614509532","test","2","mask_prime_positive","22","10","39","1","667","0","0"
"012320","12:37:28","614509532","test","2","prime_positive","23","10","39","0","100","0","0"
"012320","12:37:28","614509532","test","2","intention_check_positive","24","10","39","0","2500","0","0"
"012320","12:37:28","614509532","test","2","mask_prime_positive","25","5","47","1","394","0","0"
"012320","12:37:28","614509532","test","2","prime_negative","26","5","47","0","100","0","0"
"012320","12:37:28","614509532","test","2","intention_check_negative","27","5","47","0","2500","0","0"
"012320","12:37:28","614509532","test","2","mask_prime_negative","28","7","61","1","501","0","0"
"012320","12:37:28","614509532","test","2","prime_negative","29","7","61","0","100","0","0"
"012320","12:37:28","614509532","test","2","intention_check_negative","30","7","61","0","2500","0","0"
"012320","12:37:28","614509532","test","2","mask_prime_negative","31","3","59","0","342","0","0"
"012320","12:37:28","614509532","test","2","prime_positive","32","3","59","0","100","0","0"
"012320","12:37:28","614509532","test","2","intention_check_positive","33","3","59","0","2500","0","0"
"012320","12:37:28","614509532","test","2","mask_prime_positive","34","5","20","0","307","0","0"
"012320","12:37:28","614509532","test","2","prime_negative","35","5","20","0","100","0","0"
"012320","12:37:28","614509532","test","2","intention_check_negative","36","5","20","0","2500","0","0"
"012320","12:37:28","614509532","test","2","mask_prime_negative","37","9","14","0","298","0","0"
"012320","12:37:28","614509532","test","2","prime_negative","38","9","14","0","100","0","0"
"012320","12:37:28","614509532","test","2","intention_check_negative","39","9","14","0","2500","0","0"
"012320","12:37:28","614509532","test","2","mask_prime_negative","40","12","55","0","283","0","0"
"012320","12:37:28","614509532","test","2","prime_negative","41","12","55","0","100","0","0"
"012320","12:37:28","614509532","test","2","intention_check_negative","42","12","55","0","2500","0","0"
"012320","12:37:28","614509532","test","2","mask_prime_negative","43","11","32","0","263","0","0"
"012320","12:37:28","614509532","test","2","prime_positive","44","11","32","0","100","0","0"
"012320","12:37:28","614509532","test","2","intention_check_positive","45","11","32","0","2500","0","0"
"012320","12:37:28","614509532","test","2","mask_prime_positive","46","10","44","0","1912","0","0"
"012320","12:37:28","614509532","test","2","prime_negative","47","10","44","0","100","0","0"
"012320","12:37:28","614509532","test","2","intention_check_negative","48","10","44","0","2500","0","0"
"012320","12:37:28","614509532","test","2","mask_prime_negative","49","8","62","0","498","0","0"
"012320","12:37:28","614509532","test","2","prime_negative","50","8","62","0","100","0","0"
"012320","12:37:28","614509532","test","2","intention_check_negative","51","8","62","0","2500","0","0"
"012320","12:37:28","614509532","test","2","mask_prime_negative","52","9","23","1","286","0","0"
"012320","12:37:28","614509532","test","2","prime_negative","53","9","23","0","100","0","0"
"012320","12:37:28","614509532","test","2","intention_check_negative","54","9","23","0","2500","0","0"
"012320","12:37:28","614509532","test","2","mask_prime_negative","55","4","31","0","379","0","0"
"012320","12:37:28","614509532","test","2","prime_negative","56","4","31","0","100","0","0"
"012320","12:37:28","614509532","test","2","intention_check_negative","57","4","31","0","2500","0","0"
"012320","12:37:28","614509532","test","2","mask_prime_negative","58","2","4","1","357","0","0"
"012320","12:37:28","614509532","test","2","prime_positive","59","2","4","0","100","0","0"
"012320","12:37:28","614509532","test","2","intention_check_positive","60","2","4","0","2500","0","0"
"012320","12:37:28","614509532","test","2","mask_prime_positive","61","12","25","1","77","0","0"
"012320","12:37:28","614509532","test","2","prime_negative","62","12","25","0","100","0","0"
"012320","12:37:28","614509532","test","2","intention_check_negative","63","12","25","0","2500","0","0"
"012320","12:37:28","614509532","test","2","mask_prime_negative","64","5","37","0","283","0","0"
"012320","12:37:28","614509532","test","2","prime_negative","65","5","37","0","100","0","0"
"012320","12:37:28","614509532","test","2","intention_check_negative","66","5","37","0","2500","0","0"
"012320","12:37:28","614509532","test","2","mask_prime_negative","67","11","19","0","326","0","0"
"012320","12:37:28","614509532","test","2","prime_negative","68","11","19","0","100","0","0"
"012320","12:37:28","614509532","test","2","intention_check_negative","69","11","19","0","2500","0","0"
"012320","12:37:28","614509532","test","2","mask_prime_negative","70","12","15","0","293","0","0"
"012320","12:37:28","614509532","test","2","prime_negative","71","12","15","0","100","0","0"
"012320","12:37:28","614509532","test","2","intention_check_negative","72","12","15","0","2500","0","0"
"012320","12:37:28","614509532","test","2","mask_prime_negative","73","1","52","0","382","0","0"
"012320","12:37:28","614509532","test","2","prime_negative","74","1","52","0","100","0","0"
"012320","12:37:28","614509532","test","2","intention_check_negative","75","1","52","0","2500","0","0"
"012320","12:37:28","614509532","test","2","mask_prime_negative","76","3","65","0","550","0","0"
"012320","12:37:28","614509532","test","2","prime_positive","77","3","65","0","100","0","0"
"012320","12:37:28","614509532","test","2","intention_check_positive","78","3","65","0","2500","0","0"
"012320","12:37:28","614509532","test","2","mask_prime_positive","79","4","72","1","441","0","0"
"012320","12:37:28","614509532","test","2","prime_negative","80","4","72","0","100","0","0"
"012320","12:37:28","614509532","test","2","intention_check_negative","81","4","72","0","2500","0","0"
"012320","12:37:28","614509532","test","2","mask_prime_negative","82","7","26","0","497","0","0"
"012320","12:37:28","614509532","test","2","prime_negative","83","7","26","0","100","0","0"
"012320","12:37:28","614509532","test","2","intention_check_negative","84","7","26","0","2500","0","0"
"012320","12:37:28","614509532","test","2","mask_prime_negative","85","6","45","0","301","0","0"
"012320","12:37:28","614509532","test","2","prime_positive","86","6","45","0","100","0","0"
"012320","12:37:28","614509532","test","2","intention_check_positive","87","6","45","0","2500","0","0"
"012320","12:37:28","614509532","test","2","mask_prime_positive","88","8","36","1","433","0","0"
"012320","12:37:28","614509532","test","2","prime_positive","89","8","36","0","100","0","0"
"012320","12:37:28","614509532","test","2","intention_check_positive","90","8","36","0","2500","0","0"
"012320","12:37:28","614509532","test","2","mask_prime_positive","91","9","34","1","1535","0","0"
"012320","12:37:28","614509532","test","2","prime_positive","92","9","34","0","100","0","0"
"012320","12:37:28","614509532","test","2","intention_check_positive","93","9","34","0","2500","0","0"
"012320","12:37:28","614509532","test","2","mask_prime_positive","94","6","43","1","601","0","0"
"012320","12:37:28","614509532","test","2","prime_positive","95","6","43","0","100","0","0"
"012320","12:37:28","614509532","test","2","intention_check_positive","96","6","43","0","2500","0","0"
"012320","12:37:28","614509532","test","2","mask_prime_positive","97","1","22","1","567","0","0"
"012320","12:37:28","614509532","test","2","prime_positive","98","1","22","0","100","0","0"
"012320","12:37:28","614509532","test","2","intention_check_positive","99","1","22","0","2500","0","0"
"012320","12:37:28","614509532","test","2","mask_prime_positive","100","2","49","0","295","0","0"
"012320","12:37:28","614509532","test","2","prime_negative","101","2","49","0","100","0","0"
"012320","12:37:28","614509532","test","2","intention_check_negative","102","2","49","0","2500","0","0"
"012320","12:37:28","614509532","test","2","mask_prime_negative","103","8","51","0","770","0","0"
"012320","12:37:28","614509532","test","2","prime_positive","104","8","51","0","100","0","0"
"012320","12:37:28","614509532","test","2","intention_check_positive","105","8","51","0","2500","0","0"
"012320","12:37:28","614509532","test","2","mask_prime_positive","106","11","3","0","686","0","0"
"012320","12:37:28","614509532","test","2","prime_negative","107","11","3","0","100","0","0"
"012320","12:37:28","614509532","test","2","intention_check_negative","108","11","3","0","2500","0","0"
"012320","12:37:28","614509532","test","2","mask_prime_negative","109","10","57","0","764","0","0"
"012320","12:37:28","614509532","test","2","prime_negative","110","10","57","0","100","0","0"
"012320","12:37:28","614509532","test","2","intention_check_negative","111","10","57","0","2500","0","0"
"012320","12:37:28","614509532","test","2","mask_prime_negative","112","5","1","0","756","0","0"
"012320","12:37:28","614509532","test","2","prime_positive","113","5","1","0","100","0","0"
"012320","12:37:28","614509532","test","2","intention_check_positive","114","5","1","0","2500","0","0"
"012320","12:37:28","614509532","test","2","mask_prime_positive","115","7","24","1","625","0","0"
"012320","12:37:28","614509532","test","2","prime_positive","116","7","24","0","100","0","0"
"012320","12:37:28","614509532","test","2","intention_check_positive","117","7","24","0","2500","0","0"
"012320","12:37:28","614509532","test","2","mask_prime_positive","118","3","21","0","1516","0","0"
"012320","12:37:28","614509532","test","2","prime_positive","119","3","21","0","100","0","0"
"012320","12:37:28","614509532","test","2","intention_check_positive","120","3","21","0","2500","0","0"
"012320","12:37:28","614509532","test","2","mask_prime_positive","121","3","16","0","432","0","0"
"012320","12:37:28","614509532","test","2","prime_positive","122","3","16","0","100","0","0"
"012320","12:37:28","614509532","test","2","intention_check_positive","123","3","16","0","2500","0","0"
"012320","12:37:28","614509532","test","2","mask_prime_positive","124","5","48","0","7","0","0"
"012320","12:37:28","614509532","test","2","prime_negative","125","5","48","0","100","0","0"
"012320","12:37:28","614509532","test","2","intention_check_negative","126","5","48","0","2500","0","0"
"012320","12:37:28","614509532","test","2","mask_prime_negative","127","11","29","1","110","0","0"
"012320","12:37:28","614509532","test","2","prime_positive","128","11","29","0","100","0","0"
"012320","12:37:28","614509532","test","2","intention_check_positive","129","11","29","0","2500","0","0"
"012320","12:37:28","614509532","test","2","mask_prime_positive","130","7","35","1","707","0","0"
"012320","12:37:28","614509532","test","2","prime_positive","131","7","35","0","100","0","0"
"012320","12:37:28","614509532","test","2","intention_check_positive","132","7","35","0","2500","0","0"
"012320","12:37:28","614509532","test","2","mask_prime_positive","133","6","6","0","483","0","0"
"012320","12:37:28","614509532","test","2","prime_negative","134","6","6","0","100","0","0"
"012320","12:37:28","614509532","test","2","intention_check_negative","135","6","6","0","2500","0","0"
"012320","12:37:28","614509532","test","2","mask_prime_negative","136","8","10","0","573","0","0"
"012320","12:37:28","614509532","test","2","prime_negative","137","8","10","0","100","0","0"
"012320","12:37:28","614509532","test","2","intention_check_negative","138","8","10","0","2500","0","0"
"012320","12:37:28","614509532","test","2","mask_prime_negative","139","1","68","0","114","0","0"
"012320","12:37:28","614509532","test","2","prime_negative","140","1","68","0","100","0","0"
"012320","12:37:28","614509532","test","2","intention_check_negative","141","1","68","0","2500","0","0"
"012320","12:37:28","614509532","test","2","mask_prime_negative","142","10","9","1","643","0","0"
"012320","12:37:28","614509532","test","2","prime_negative","143","10","9","0","100","0","0"
"012320","12:37:28","614509532","test","2","intention_check_negative","144","10","9","0","2500","0","0"
"012320","12:37:28","614509532","test","2","mask_prime_negative","145","2","46","0","323","0","0"
"012320","12:37:28","614509532","test","2","prime_positive","146","2","46","0","100","0","0"
"012320","12:37:28","614509532","test","2","intention_check_positive","147","2","46","0","2500","0","0"
"012320","12:37:28","614509532","test","2","mask_prime_positive","148","8","69","0","557","0","0"
"012320","12:37:28","614509532","test","2","prime_negative","149","8","69","0","100","0","0"
"012320","12:37:28","614509532","test","2","intention_check_negative","150","8","69","0","2500","0","0"
"012320","12:37:28","614509532","test","2","mask_prime_negative","151","3","13","0","836","0","0"
"012320","12:37:28","614509532","test","2","prime_positive","152","3","13","0","100","0","0"
"012320","12:37:28","614509532","test","2","intention_check_positive","153","3","13","0","2500","0","0"
"012320","12:37:28","614509532","test","2","mask_prime_positive","154","9","63","0","457","0","0"
"012320","12:37:28","614509532","test","2","prime_positive","155","9","63","0","100","0","0"
"012320","12:37:28","614509532","test","2","intention_check_positive","156","9","63","0","2500","0","0"
"012320","12:37:28","614509532","test","2","mask_prime_positive","157","2","42","0","372","0","0"
"012320","12:37:28","614509532","test","2","prime_positive","158","2","42","0","100","0","0"
"012320","12:37:28","614509532","test","2","intention_check_positive","159","2","42","0","2500","0","0"
"012320","12:37:28","614509532","test","2","mask_prime_positive","160","11","27","1","402","0","0"
"012320","12:37:28","614509532","test","2","prime_negative","161","11","27","0","100","0","0"
"012320","12:37:28","614509532","test","2","intention_check_negative","162","11","27","0","2500","0","0"
"012320","12:37:28","614509532","test","2","mask_prime_negative","163","4","2","0","560","0","0"
"012320","12:37:28","614509532","test","2","prime_positive","164","4","2","0","100","0","0"
"012320","12:37:28","614509532","test","2","intention_check_positive","165","4","2","0","2500","0","0"
"012320","12:37:28","614509532","test","2","mask_prime_positive","166","10","11","1","742","0","0"
"012320","12:37:28","614509532","test","2","prime_positive","167","10","11","0","100","0","0"
"012320","12:37:28","614509532","test","2","intention_check_positive","168","10","11","0","2500","0","0"
"012320","12:37:28","614509532","test","2","mask_prime_positive","169","12","60","0","534","0","0"
"012320","12:37:28","614509532","test","2","prime_negative","170","12","60","0","100","0","0"
"012320","12:37:28","614509532","test","2","intention_check_negative","171","12","60","0","2500","0","0"
"012320","12:37:28","614509532","test","2","mask_prime_negative","172","12","12","0","757","0","0"
"012320","12:37:28","614509532","test","2","prime_positive","173","12","12","0","100","0","0"
"012320","12:37:28","614509532","test","2","intention_check_positive","174","12","12","0","2500","0","0"
"012320","12:37:28","614509532","test","2","mask_prime_positive","175","1","53","0","663","0","0"
"012320","12:37:28","614509532","test","2","prime_negative","176","1","53","0","100","0","0"
"012320","12:37:28","614509532","test","2","intention_check_negative","177","1","53","0","2500","0","0"
"012320","12:37:28","614509532","test","2","mask_prime_negative","178","9","30","0","357","0","0"
"012320","12:37:28","614509532","test","2","prime_positive","179","9","30","0","100","0","0"
"012320","12:37:28","614509532","test","2","intention_check_positive","180","9","30","0","2500","0","0"
"012320","12:37:28","614509532","test","2","mask_prime_positive","181","4","5","1","1967","0","0"
"012320","12:37:28","614509532","test","2","prime_positive","182","4","5","0","100","0","0"
"012320","12:37:28","614509532","test","2","intention_check_positive","183","4","5","0","2500","0","0"
"012320","12:37:28","614509532","test","2","mask_prime_positive","184","7","28","0","2451","0","0"
"012320","12:37:28","614509532","test","2","prime_negative","185","7","28","0","100","0","0"
"012320","12:37:28","614509532","test","2","intention_check_negative","186","7","28","0","2500","0","0"
"012320","12:37:28","614509532","test","2","mask_prime_negative","187","7","41","0","757","0","0"
"012320","12:37:28","614509532","test","2","prime_positive","188","7","41","0","100","0","0"
"012320","12:37:28","614509532","test","2","intention_check_positive","189","7","41","0","2500","0","0"
"012320","12:37:28","614509532","test","2","mask_prime_positive","190","1","62","0","551","0","0"
"012320","12:37:28","614509532","test","2","prime_negative","191","1","62","0","100","0","0"
"012320","12:37:28","614509532","test","2","intention_check_negative","192","1","62","0","2500","0","0"
"012320","12:37:28","614509532","test","2","mask_prime_negative","193","6","56","0","493","0","0"
"012320","12:37:28","614509532","test","2","prime_positive","194","6","56","0","100","0","0"
"012320","12:37:28","614509532","test","2","intention_check_positive","195","6","56","0","2500","0","0"
"012320","12:37:28","614509532","test","2","mask_prime_positive","196","3","61","0","341","0","0"
"012320","12:37:28","614509532","test","2","prime_positive","197","3","61","0","100","0","0"
"012320","12:37:28","614509532","test","2","intention_check_positive","198","3","61","0","2500","0","0"
"012320","12:37:28","614509532","test","2","mask_prime_positive","199","11","11","1","678","0","0"
"012320","12:37:28","614509532","test","2","prime_negative","200","11","11","0","100","0","0"
"012320","12:37:28","614509532","test","2","intention_check_negative","201","11","11","0","2500","0","0"
"012320","12:37:28","614509532","test","2","mask_prime_negative","202","8","55","1","546","0","0"
"012320","12:37:28","614509532","test","2","prime_negative","203","8","55","0","100","0","0"
"012320","12:37:28","614509532","test","2","intention_check_negative","204","8","55","0","2500","0","0"
"012320","12:37:28","614509532","test","2","mask_prime_negative","205","9","41","0","328","0","0"
"012320","12:37:28","614509532","test","2","prime_negative","206","9","41","0","100","0","0"
"012320","12:37:28","614509532","test","2","intention_check_negative","207","9","41","0","2500","0","0"
"012320","12:37:28","614509532","test","2","mask_prime_negative","208","12","3","0","615","0","0"
"012320","12:37:28","614509532","test","2","prime_positive","209","12","3","0","100","0","0"
"012320","12:37:28","614509532","test","2","intention_check_positive","210","12","3","0","2500","0","0"
"012320","12:37:28","614509532","test","2","mask_prime_positive","211","8","4","0","958","0","0"
"012320","12:37:28","614509532","test","2","prime_negative","212","8","4","0","100","0","0"
"012320","12:37:28","614509532","test","2","intention_check_negative","213","8","4","0","2500","0","0"
"012320","12:37:28","614509532","test","2","mask_prime_negative","214","1","71","0","1107","0","0"
"012320","12:37:28","614509532","test","2","prime_negative","215","1","71","0","100","0","0"
"012320","12:37:28","614509532","test","2","intention_check_negative","216","1","71","0","2500","0","0"
"012320","12:37:28","614509532","test","2","mask_prime_negative","217","6","8","1","764","0","0"
"012320","07:40:12","59842540","practice","1","prime_positive_practice","3","0","0","0","100","0","0"
"012320","07:40:12","59842540","practice","1","intention_check_positive_practice","4","0","0","0","2500","0","0"
"012320","07:40:12","59842540","practice","1","mask_prime_positive_practice","5","0","0","1","4302","0","0"
"012320","07:40:12","59842540","practice","1","prime_negative_practice","6","0","0","0","100","0","0"
"012320","07:40:12","59842540","practice","1","intention_check_negative_practice","7","0","0","1","2452","0","0"
