"date","time","group","subject","build","blocknum","trialnum","blockcode","trialcode","pretrialpause","posttrialpause","trialduration","trialtimeout","response","correct","latency"
"012320","13:04:37","985503928","314831908","5.0.14.0","1","1","end_of_study_questions_ifirst","awareness","0","0","0","0","","1","19592"
"012320","12:28:06","681132935","163889718","5.0.15.0","1","1","end_of_study_questions_ifirst","awareness","0","0","0","0","all","1","24140"
"012320","12:28:06","681132935","163889718","5.0.15.0","1","2","end_of_study_questions_ifirst","influence_general","0","0","0","0","more than half","1","7199"
"012320","12:28:06","681132935","163889718","5.0.15.0","1","3","end_of_study_questions_ifirst","intentionality","0","0","0","0","more than half","1","7568"
"012320","12:28:06","681132935","163889718","5.0.15.0","1","4","end_of_study_questions_ifirst","unintentionality","0","0","0","0","about half","1","7050"
"012320","12:28:06","681132935","163889718","5.0.15.0","1","5","end_of_study_questions_ifirst","self_exclusion_1","0","0","0","0","Yes, use my data","1","8119"
"012320","12:28:06","681132935","163889718","5.0.15.0","1","5","end_of_study_questions_ifirst","self_exclusion_1other","0","0","0","0","","1","8119"
"012320","12:38:19","970224731","180926818","5.0.14.0","1","1","end_of_study_questions_ifirst","awareness","0","0","0","0","all","1","27702"
"012320","12:38:19","970224731","180926818","5.0.14.0","1","2","end_of_study_questions_ifirst","influence_general","0","0","0","0","all","1","11722"
"012320","12:38:19","970224731","180926818","5.0.14.0","1","3","end_of_study_questions_ifirst","intentionality","0","0","0","0","most","1","19450"
"012320","12:38:19","970224731","180926818","5.0.14.0","1","4","end_of_study_questions_ifirst","unintentionality","0","0","0","0","none","1","11244"
"012320","12:38:19","970224731","180926818","5.0.14.0","1","5","end_of_study_questions_ifirst","self_exclusion_1","0","0","0","0","Yes, use my data","1","27279"
"012320","12:38:19","970224731","180926818","5.0.14.0","1","5","end_of_study_questions_ifirst","self_exclusion_1other","0","0","0","0","","1","27279"
"012320","12:39:50","868971590","848717023","5.0.14.0","1","1","end_of_study_questions_ufirst","awareness","0","0","0","0","all","1","18873"
"012320","12:39:50","868971590","848717023","5.0.14.0","1","2","end_of_study_questions_ufirst","influence_general","0","0","0","0","none","1","5313"
"012320","12:39:50","868971590","848717023","5.0.14.0","1","3","end_of_study_questions_ufirst","unintentionality","0","0","0","0","none","1","5453"
"012320","12:39:50","868971590","848717023","5.0.14.0","1","4","end_of_study_questions_ufirst","intentionality","0","0","0","0","none","1","6214"
"012320","12:39:50","868971590","848717023","5.0.14.0","1","5","end_of_study_questions_ufirst","self_exclusion_1","0","0","0","0","Yes, use my data","1","4675"
"012320","12:39:50","868971590","848717023","5.0.14.0","1","5","end_of_study_questions_ufirst","self_exclusion_1other","0","0","0","0","","1","4675"
"012320","12:43:59","118306684","614509532","5.0.14.0","1","1","end_of_study_questions_ifirst","awareness","0","0","0","0","all","1","15445"
"012320","12:43:59","118306684","614509532","5.0.14.0","1","2","end_of_study_questions_ifirst","influence_general","0","0","0","0","none","1","11733"
"012320","12:43:59","118306684","614509532","5.0.14.0","1","3","end_of_study_questions_ifirst","intentionality","0","0","0","0","none","1","12250"
"012320","12:43:59","118306684","614509532","5.0.14.0","1","4","end_of_study_questions_ifirst","unintentionality","0","0","0","0","none","1","10763"
"012320","12:43:59","118306684","614509532","5.0.14.0","1","5","end_of_study_questions_ifirst","self_exclusion_1","0","0","0","0","Yes, use my data","1","18841"
"012320","12:43:59","118306684","614509532","5.0.14.0","1","5","end_of_study_questions_ifirst","self_exclusion_1other","0","0","0","0","","1","18841"
"012320","07:46:11","262939046","59842540","5.0.14.0","1","1","end_of_study_questions_ifirst","awareness","0","0","0","0","all","1","7952"
"012320","07:46:11","262939046","59842540","5.0.14.0","1","2","end_of_study_questions_ifirst","influence_general","0","0","0","0","all","1","6727"
"012320","07:46:11","262939046","59842540","5.0.14.0","1","3","end_of_study_questions_ifirst","intentionality","0","0","0","0","all","1","4632"
"012320","07:46:11","262939046","59842540","5.0.14.0","1","4","end_of_study_questions_ifirst","unintentionality","0","0","0","0","all","1","6675"
"012320","07:46:11","262939046","59842540","5.0.14.0","1","5","end_of_study_questions_ifirst","self_exclusion_1","0","0","0","0","Yes, use my data","1","9851"
"012320","07:46:11","262939046","59842540","5.0.14.0","1","5","end_of_study_questions_ifirst","self_exclusion_1other","0","0","0","0","","1","9851"
"012320","12:47:19","696662173","519776923","5.0.14.0","1","1","end_of_study_questions_ufirst","awareness","0","0","0","0","all","1","28319"
"012320","12:47:19","696662173","519776923","5.0.14.0","1","2","end_of_study_questions_ufirst","influence_general","0","0","0","0","most","1","13540"
"012320","12:47:19","696662173","519776923","5.0.14.0","1","3","end_of_study_questions_ufirst","unintentionality","0","0","0","0","most","1","9053"
"012320","12:47:19","696662173","519776923","5.0.14.0","1","4","end_of_study_questions_ufirst","intentionality","0","0","0","0","a few","1","16148"
"012320","12:47:19","696662173","519776923","5.0.14.0","1","5","end_of_study_questions_ufirst","self_exclusion_1","0","0","0","0","Yes, use my data","1","19351"
"012320","12:47:19","696662173","519776923","5.0.14.0","1","5","end_of_study_questions_ufirst","self_exclusion_1other","0","0","0","0","","1","19351"
"012320","12:49:40","544581221","266569838","5.0.14.0","1","1","end_of_study_questions_ifirst","awareness","0","0","0","0","more than half","1","18676"
"012320","12:49:40","544581221","266569838","5.0.14.0","1","2","end_of_study_questions_ifirst","influence_general","0","0","0","0","about half","1","15286"
"012320","12:49:40","544581221","266569838","5.0.14.0","1","3","end_of_study_questions_ifirst","intentionality","0","0","0","0","none","1","9646"
"012320","12:49:40","544581221","266569838","5.0.14.0","1","4","end_of_study_questions_ifirst","unintentionality","0","0","0","0","more than half","1","8223"
"012320","12:49:40","544581221","266569838","5.0.14.0","1","5","end_of_study_questions_ifirst","self_exclusion_1","0","0","0","0","Yes, use my data","1","12825"
"012320","12:49:40","544581221","266569838","5.0.14.0","1","5","end_of_study_questions_ifirst","self_exclusion_1other","0","0","0","0","","1","12825"
"012320","12:50:00","485081329","976702210","5.0.14.0","1","1","end_of_study_questions_ifirst","awareness","0","0","0","0","all","1","22957"
"012320","12:50:00","485081329","976702210","5.0.14.0","1","2","end_of_study_questions_ifirst","influence_general","0","0","0","0","none","1","28320"
"012320","12:50:00","485081329","976702210","5.0.14.0","1","3","end_of_study_questions_ifirst","intentionality","0","0","0","0","a few","1","23058"
"012320","12:50:00","485081329","976702210","5.0.14.0","1","4","end_of_study_questions_ifirst","unintentionality","0","0","0","0","none","1","9169"
"012320","12:50:00","485081329","976702210","5.0.14.0","1","5","end_of_study_questions_ifirst","self_exclusion_1","0","0","0","0","No, exclude my data (please specify why):","1","181607"
"012320","12:50:00","485081329","976702210","5.0.14.0","1","5","end_of_study_questions_ifirst","self_exclusion_1other","0","0","0","0","I feel this test was perhaps supposed to be more subliminal and my attention was focused on the chinese characters. The images did not sway my decision but I feel this may be because I am uneasily influenced by images etc.","1","181607"
"012320","12:55:13","277149369","840659829","5.0.14.0","1","1","end_of_study_questions_ufirst","awareness","0","0","0","0","more than half","1","15102"
"012320","12:55:13","277149369","840659829","5.0.14.0","1","2","end_of_study_questions_ufirst","influence_general","0","0","0","0","most","1","51679"
"012320","12:55:13","277149369","840659829","5.0.14.0","1","3","end_of_study_questions_ufirst","unintentionality","0","0","0","0","more than half","1","10575"
"012320","12:55:13","277149369","840659829","5.0.14.0","1","4","end_of_study_questions_ufirst","intentionality","0","0","0","0","a few","1","10736"
"012320","12:55:13","277149369","840659829","5.0.14.0","1","5","end_of_study_questions_ufirst","self_exclusion_1","0","0","0","0","Yes, use my data","1","17817"
"012320","12:55:13","277149369","840659829","5.0.14.0","1","5","end_of_study_questions_ufirst","self_exclusion_1other","0","0","0","0","","1","17817"
"012320","12:56:45","45991968","25737401","5.0.14.0","1","1","end_of_study_questions_ufirst","awareness","0","0","0","0","all","1","16904"
"012320","12:56:45","45991968","25737401","5.0.14.0","1","2","end_of_study_questions_ufirst","influence_general","0","0","0","0","a few","1","7561"
"012320","12:56:45","45991968","25737401","5.0.14.0","1","3","end_of_study_questions_ufirst","unintentionality","0","0","0","0","a few","1","26840"
"012320","12:56:45","45991968","25737401","5.0.14.0","1","4","end_of_study_questions_ufirst","intentionality","0","0","0","0","a few","1","7499"
"012320","12:56:45","45991968","25737401","5.0.14.0","1","5","end_of_study_questions_ufirst","self_exclusion_1","0","0","0","0","Yes, use my data","1","10544"
"012320","12:56:45","45991968","25737401","5.0.14.0","1","5","end_of_study_questions_ufirst","self_exclusion_1other","0","0","0","0","","1","10544"
"012320","12:56:53","276451436","905803570","5.0.14.0","1","1","end_of_study_questions_ifirst","awareness","0","0","0","0","all","1","26150"
"012320","12:56:53","276451436","905803570","5.0.14.0","1","2","end_of_study_questions_ifirst","influence_general","0","0","0","0","more than half","1","12706"
"012320","12:56:53","276451436","905803570","5.0.14.0","1","3","end_of_study_questions_ifirst","intentionality","0","0","0","0","a few","1","15476"
"012320","12:56:53","276451436","905803570","5.0.14.0","1","4","end_of_study_questions_ifirst","unintentionality","0","0","0","0","most","1","10801"
"012320","12:56:53","276451436","905803570","5.0.14.0","1","5","end_of_study_questions_ifirst","self_exclusion_1","0","0","0","0","Yes, use my data","1","24880"
"012320","12:56:53","276451436","905803570","5.0.14.0","1","5","end_of_study_questions_ifirst","self_exclusion_1other","0","0","0","0","","1","24880"
"012320","23:57:29","935637798","497674009","5.0.14.0","1","1","end_of_study_questions_ufirst","awareness","0","0","0","0","most","1","23708"
"012320","23:57:29","935637798","497674009","5.0.14.0","1","2","end_of_study_questions_ufirst","influence_general","0","0","0","0","more than half","1","10836"
"012320","23:57:29","935637798","497674009","5.0.14.0","1","3","end_of_study_questions_ufirst","unintentionality","0","0","0","0","a few","1","11366"
"012320","23:57:29","935637798","497674009","5.0.14.0","1","4","end_of_study_questions_ufirst","intentionality","0","0","0","0","more than half","1","14756"
"012320","23:57:29","935637798","497674009","5.0.14.0","1","5","end_of_study_questions_ufirst","self_exclusion_1","0","0","0","0","Yes, use my data","1","12724"
"012320","23:57:29","935637798","497674009","5.0.14.0","1","5","end_of_study_questions_ufirst","self_exclusion_1other","0","0","0","0","","1","12724"
"012320","12:57:59","245076170","377168445","5.0.14.0","1","1","end_of_study_questions_ufirst","awareness","0","0","0","0","more than half","1","18957"
"012320","12:57:59","245076170","377168445","5.0.14.0","1","2","end_of_study_questions_ufirst","influence_general","0","0","0","0","about half","1","12314"
"012320","12:57:59","245076170","377168445","5.0.14.0","1","3","end_of_study_questions_ufirst","unintentionality","0","0","0","0","about half","1","16114"
"012320","12:57:59","245076170","377168445","5.0.14.0","1","4","end_of_study_questions_ufirst","intentionality","0","0","0","0","about half","1","8956"
"012320","12:57:59","245076170","377168445","5.0.14.0","1","5","end_of_study_questions_ufirst","self_exclusion_1","0","0","0","0","Yes, use my data","1","14630"
"012320","12:57:59","245076170","377168445","5.0.14.0","1","5","end_of_study_questions_ufirst","self_exclusion_1other","0","0","0","0","","1","14630"
"012320","13:00:39","942106061","233265412","5.0.15.0","1","1","end_of_study_questions_ifirst","awareness","0","0","0","0","about half","1","11967"
"012320","13:00:39","942106061","233265412","5.0.15.0","1","2","end_of_study_questions_ifirst","influence_general","0","0","0","0","a few","1","7300"
"012320","13:00:39","942106061","233265412","5.0.15.0","1","3","end_of_study_questions_ifirst","intentionality","0","0","0","0","none","1","7845"
"012320","13:00:39","942106061","233265412","5.0.15.0","1","4","end_of_study_questions_ifirst","unintentionality","0","0","0","0","a few","1","7311"
"012320","13:00:39","942106061","233265412","5.0.15.0","1","5","end_of_study_questions_ifirst","self_exclusion_1","0","0","0","0","Yes, use my data","1","23103"
"012320","13:00:39","942106061","233265412","5.0.15.0","1","5","end_of_study_questions_ifirst","self_exclusion_1other","0","0","0","0","","1","23103"
"012320","13:00:48","125571996","722013934","5.0.14.0","1","1","end_of_study_questions_ifirst","awareness","0","0","0","0","all","1","12870"
"012320","13:00:48","125571996","722013934","5.0.14.0","1","2","end_of_study_questions_ifirst","influence_general","0","0","0","0","about half","1","6075"
"012320","13:00:48","125571996","722013934","5.0.14.0","1","3","end_of_study_questions_ifirst","intentionality","0","0","0","0","more than half","1","8976"
"012320","13:00:48","125571996","722013934","5.0.14.0","1","4","end_of_study_questions_ifirst","unintentionality","0","0","0","0","most","1","4772"
"012320","13:00:48","125571996","722013934","5.0.14.0","1","5","end_of_study_questions_ifirst","self_exclusion_1","0","0","0","0","Yes, use my data","1","42409"
"012320","13:00:48","125571996","722013934","5.0.14.0","1","5","end_of_study_questions_ifirst","self_exclusion_1other","0","0","0","0","","1","42409"
"012320","13:02:16","352286667","848191386","5.0.14.0","1","1","end_of_study_questions_ifirst","awareness","0","0","0","0","all","1","30918"
"012320","13:02:16","352286667","848191386","5.0.14.0","1","2","end_of_study_questions_ifirst","influence_general","0","0","0","0","about half","1","10546"
"012320","13:02:16","352286667","848191386","5.0.14.0","1","3","end_of_study_questions_ifirst","intentionality","0","0","0","0","about half","1","8599"
"012320","13:02:16","352286667","848191386","5.0.14.0","1","4","end_of_study_questions_ifirst","unintentionality","0","0","0","0","about half","1","16556"
"012320","13:02:16","352286667","848191386","5.0.14.0","1","5","end_of_study_questions_ifirst","self_exclusion_1","0","0","0","0","Yes, use my data","1","29276"
"012320","13:02:16","352286667","848191386","5.0.14.0","1","5","end_of_study_questions_ifirst","self_exclusion_1other","0","0","0","0","","1","29276"
"012320","08:03:24","508727915","789472107","5.0.14.0","1","1","end_of_study_questions_ufirst","awareness","0","0","0","0","all","1","15400"
"012320","08:03:24","508727915","789472107","5.0.14.0","1","2","end_of_study_questions_ufirst","influence_general","0","0","0","0","less than half","1","12144"
"012320","08:03:24","508727915","789472107","5.0.14.0","1","3","end_of_study_questions_ufirst","unintentionality","0","0","0","0","about half","1","18883"
"012320","08:03:24","508727915","789472107","5.0.14.0","1","4","end_of_study_questions_ufirst","intentionality","0","0","0","0","a few","1","7705"
"012320","08:03:24","508727915","789472107","5.0.14.0","1","5","end_of_study_questions_ufirst","self_exclusion_1","0","0","0","0","Yes, use my data","1","5968"
"012320","08:03:24","508727915","789472107","5.0.14.0","1","5","end_of_study_questions_ufirst","self_exclusion_1other","0","0","0","0","","1","5968"
"012320","13:03:52","285875121","187010750","5.0.14.0","1","1","end_of_study_questions_ifirst","awareness","0","0","0","0","most","1","20113"
"012320","13:03:52","285875121","187010750","5.0.14.0","1","2","end_of_study_questions_ifirst","influence_general","0","0","0","0","about half","1","11249"
"012320","13:03:52","285875121","187010750","5.0.14.0","1","3","end_of_study_questions_ifirst","intentionality","0","0","0","0","none","1","16371"
"012320","13:03:52","285875121","187010750","5.0.14.0","1","4","end_of_study_questions_ifirst","unintentionality","0","0","0","0","more than half","1","8518"
"012320","13:03:52","285875121","187010750","5.0.14.0","1","5","end_of_study_questions_ifirst","self_exclusion_1","0","0","0","0","Yes, use my data","1","18060"
"012320","13:03:52","285875121","187010750","5.0.14.0","1","5","end_of_study_questions_ifirst","self_exclusion_1other","0","0","0","0","","1","18060"
"012320","13:06:03","727186537","788034892","5.0.14.0","1","1","end_of_study_questions_ifirst","awareness","0","0","0","0","most","1","24807"
"012320","13:06:03","727186537","788034892","5.0.14.0","1","2","end_of_study_questions_ifirst","influence_general","0","0","0","0","less than half","1","7914"
"012320","13:06:03","727186537","788034892","5.0.14.0","1","3","end_of_study_questions_ifirst","intentionality","0","0","0","0","less than half","1","10797"
"012320","13:06:03","727186537","788034892","5.0.14.0","1","4","end_of_study_questions_ifirst","unintentionality","0","0","0","0","about half","1","6087"
"012320","13:06:03","727186537","788034892","5.0.14.0","1","5","end_of_study_questions_ifirst","self_exclusion_1","0","0","0","0","Yes, use my data","1","20901"
"012320","13:06:03","727186537","788034892","5.0.14.0","1","5","end_of_study_questions_ifirst","self_exclusion_1other","0","0","0","0","","1","20901"
"012320","23:37:15","940354562","231513913","5.0.14.0","1","1","end_of_study_questions_ufirst","awareness","0","0","0","0","all","1","27564"
"012320","23:37:15","940354562","231513913","5.0.14.0","1","2","end_of_study_questions_ufirst","influence_general","0","0","0","0","about half","1","25398"
"012320","23:37:15","940354562","231513913","5.0.14.0","1","3","end_of_study_questions_ufirst","unintentionality","0","0","0","0","a few","1","8521"
"012320","23:37:15","940354562","231513913","5.0.14.0","1","4","end_of_study_questions_ufirst","intentionality","0","0","0","0","a few","1","7048"
"012320","23:37:15","940354562","231513913","5.0.14.0","1","5","end_of_study_questions_ufirst","self_exclusion_1","0","0","0","0","Yes, use my data","1","16872"
"012320","23:37:15","940354562","231513913","5.0.14.0","1","5","end_of_study_questions_ufirst","self_exclusion_1other","0","0","0","0","","1","16872"
"012320","13:07:36","120511134","226981072","5.0.14.0","1","1","end_of_study_questions_ifirst","awareness","0","0","0","0","most","1","29977"
"012320","13:07:36","120511134","226981072","5.0.14.0","1","2","end_of_study_questions_ifirst","influence_general","0","0","0","0","more than half","1","11405"
"012320","13:07:36","120511134","226981072","5.0.14.0","1","3","end_of_study_questions_ifirst","intentionality","0","0","0","0","about half","1","13619"
"012320","13:07:36","120511134","226981072","5.0.14.0","1","4","end_of_study_questions_ifirst","unintentionality","0","0","0","0","less than half","1","14832"
"012320","13:07:36","120511134","226981072","5.0.14.0","1","5","end_of_study_questions_ifirst","self_exclusion_1","0","0","0","0","Yes, use my data","1","29820"
"012320","13:07:36","120511134","226981072","5.0.14.0","1","5","end_of_study_questions_ifirst","self_exclusion_1other","0","0","0","0","","1","29820"
"012320","08:08:18","44073385","104921735","5.0.14.0","1","1","end_of_study_questions_ufirst","awareness","0","0","0","0","all","1","17889"
"012320","08:08:18","44073385","104921735","5.0.14.0","1","2","end_of_study_questions_ufirst","influence_general","0","0","0","0","none","1","7664"
"012320","08:08:18","44073385","104921735","5.0.14.0","1","3","end_of_study_questions_ufirst","unintentionality","0","0","0","0","a few","1","20433"
"012320","08:08:18","44073385","104921735","5.0.14.0","1","4","end_of_study_questions_ufirst","intentionality","0","0","0","0","none","1","8982"
"012320","08:08:18","44073385","104921735","5.0.14.0","1","5","end_of_study_questions_ufirst","self_exclusion_1","0","0","0","0","Yes, use my data","1","34023"
"012320","08:08:18","44073385","104921735","5.0.14.0","1","5","end_of_study_questions_ufirst","self_exclusion_1other","0","0","0","0","","1","34023"
"012320","13:09:16","226415490","534903639","5.0.14.0","1","1","end_of_study_questions_ufirst","awareness","0","0","0","0","about half","1","31587"
"012320","13:09:16","226415490","534903639","5.0.14.0","1","2","end_of_study_questions_ufirst","influence_general","0","0","0","0","more than half","1","12239"
"012320","13:09:16","226415490","534903639","5.0.14.0","1","3","end_of_study_questions_ufirst","unintentionality","0","0","0","0","more than half","1","13026"
"012320","13:09:16","226415490","534903639","5.0.14.0","1","4","end_of_study_questions_ufirst","intentionality","0","0","0","0","a few","1","13505"
"012320","13:09:16","226415490","534903639","5.0.14.0","1","5","end_of_study_questions_ufirst","self_exclusion_1","0","0","0","0","Yes, use my data","1","17365"
"012320","13:09:16","226415490","534903639","5.0.14.0","1","5","end_of_study_questions_ufirst","self_exclusion_1other","0","0","0","0","","1","17365"
"012320","13:09:58","15569066","991030644","5.0.14.0","1","1","end_of_study_questions_ifirst","awareness","0","0","0","0","all","1","38109"
"012320","13:09:58","15569066","991030644","5.0.14.0","1","2","end_of_study_questions_ifirst","influence_general","0","0","0","0","about half","1","10991"
"012320","13:09:58","15569066","991030644","5.0.14.0","1","3","end_of_study_questions_ifirst","intentionality","0","0","0","0","about half","1","19717"
"012320","13:09:58","15569066","991030644","5.0.14.0","1","4","end_of_study_questions_ifirst","unintentionality","0","0","0","0","more than half","1","8839"
"012320","13:09:58","15569066","991030644","5.0.14.0","1","5","end_of_study_questions_ifirst","self_exclusion_1","0","0","0","0","Yes, use my data","1","22814"
"012320","13:09:58","15569066","991030644","5.0.14.0","1","5","end_of_study_questions_ifirst","self_exclusion_1other","0","0","0","0","","1","22814"
"012320","13:11:06","389679923","727301907","5.0.14.0","1","1","end_of_study_questions_ufirst","awareness","0","0","0","0","most","1","16058"
"012320","13:11:06","389679923","727301907","5.0.14.0","1","2","end_of_study_questions_ufirst","influence_general","0","0","0","0","a few","1","5381"
"012320","13:11:06","389679923","727301907","5.0.14.0","1","3","end_of_study_questions_ufirst","unintentionality","0","0","0","0","a few","1","8165"
"012320","13:11:06","389679923","727301907","5.0.14.0","1","4","end_of_study_questions_ufirst","intentionality","0","0","0","0","none","1","11007"
"012320","13:11:06","389679923","727301907","5.0.14.0","1","5","end_of_study_questions_ufirst","self_exclusion_1","0","0","0","0","Yes, use my data","1","15234"
"012320","13:11:06","389679923","727301907","5.0.14.0","1","5","end_of_study_questions_ufirst","self_exclusion_1other","0","0","0","0","","1","15234"
"012320","13:11:24","325526053","820841853","5.0.14.0","1","1","end_of_study_questions_ufirst","awareness","0","0","0","0","more than half","1","13400"
"012320","13:11:24","325526053","820841853","5.0.14.0","1","2","end_of_study_questions_ufirst","influence_general","0","0","0","0","more than half","1","18228"
"012320","13:11:24","325526053","820841853","5.0.14.0","1","3","end_of_study_questions_ufirst","unintentionality","0","0","0","0","more than half","1","10247"
"012320","13:11:24","325526053","820841853","5.0.14.0","1","4","end_of_study_questions_ufirst","intentionality","0","0","0","0","less than half","1","6548"
"012320","13:11:24","325526053","820841853","5.0.14.0","1","5","end_of_study_questions_ufirst","self_exclusion_1","0","0","0","0","Yes, use my data","1","4347"
"012320","13:11:24","325526053","820841853","5.0.14.0","1","5","end_of_study_questions_ufirst","self_exclusion_1other","0","0","0","0","","1","4347"
"012320","13:11:38","765242858","434163311","5.0.14.0","1","1","end_of_study_questions_ufirst","awareness","0","0","0","0","most","1","14756"
"012320","13:11:38","765242858","434163311","5.0.14.0","1","2","end_of_study_questions_ufirst","influence_general","0","0","0","0","less than half","1","8048"
"012320","13:11:38","765242858","434163311","5.0.14.0","1","3","end_of_study_questions_ufirst","unintentionality","0","0","0","0","about half","1","7142"
"012320","13:11:38","765242858","434163311","5.0.14.0","1","4","end_of_study_questions_ufirst","intentionality","0","0","0","0","about half","1","8510"
"012320","13:11:38","765242858","434163311","5.0.14.0","1","5","end_of_study_questions_ufirst","self_exclusion_1","0","0","0","0","Yes, use my data","1","7230"
"012320","13:11:38","765242858","434163311","5.0.14.0","1","5","end_of_study_questions_ufirst","self_exclusion_1other","0","0","0","0","","1","7230"
"012320","13:11:44","788007180","614816861","5.0.14.0","1","1","end_of_study_questions_ufirst","awareness","0","0","0","0","all","1","20085"
"012320","13:11:44","788007180","614816861","5.0.14.0","1","2","end_of_study_questions_ufirst","influence_general","0","0","0","0","none","1","10122"
"012320","13:11:44","788007180","614816861","5.0.14.0","1","3","end_of_study_questions_ufirst","unintentionality","0","0","0","0","less than half","1","7204"
"012320","13:11:44","788007180","614816861","5.0.14.0","1","4","end_of_study_questions_ufirst","intentionality","0","0","0","0","none","1","6142"
"012320","13:11:44","788007180","614816861","5.0.14.0","1","5","end_of_study_questions_ufirst","self_exclusion_1","0","0","0","0","Yes, use my data","1","6097"
"012320","13:11:44","788007180","614816861","5.0.14.0","1","5","end_of_study_questions_ufirst","self_exclusion_1other","0","0","0","0","","1","6097"
"012320","07:11:40","551209149","578778494","5.0.14.0","1","1","end_of_study_questions_ifirst","awareness","0","0","0","0","all","1","18599"
"012320","07:11:40","551209149","578778494","5.0.14.0","1","2","end_of_study_questions_ifirst","influence_general","0","0","0","0","less than half","1","5942"
"012320","07:11:40","551209149","578778494","5.0.14.0","1","3","end_of_study_questions_ifirst","intentionality","0","0","0","0","a few","1","5959"
"012320","07:11:40","551209149","578778494","5.0.14.0","1","4","end_of_study_questions_ifirst","unintentionality","0","0","0","0","less than half","1","5258"
"012320","07:11:40","551209149","578778494","5.0.14.0","1","5","end_of_study_questions_ifirst","self_exclusion_1","0","0","0","0","Yes, use my data","1","7413"
"012320","07:11:40","551209149","578778494","5.0.14.0","1","5","end_of_study_questions_ifirst","self_exclusion_1other","0","0","0","0","","1","7413"
"012320","13:11:44","901535782","570456235","5.0.14.0","1","1","end_of_study_questions_ufirst","awareness","0","0","0","0","most","1","25701"
"012320","13:11:44","901535782","570456235","5.0.14.0","1","2","end_of_study_questions_ufirst","influence_general","0","0","0","0","less than half","1","8042"
"012320","13:11:44","901535782","570456235","5.0.14.0","1","3","end_of_study_questions_ufirst","unintentionality","0","0","0","0","a few","1","5799"
"012320","13:11:44","901535782","570456235","5.0.14.0","1","4","end_of_study_questions_ufirst","intentionality","0","0","0","0","a few","1","6293"
"012320","13:11:44","901535782","570456235","5.0.14.0","1","5","end_of_study_questions_ufirst","self_exclusion_1","0","0","0","0","Yes, use my data","1","18910"
"012320","13:11:44","901535782","570456235","5.0.14.0","1","5","end_of_study_questions_ufirst","self_exclusion_1other","0","0","0","0","","1","18910"
"012320","13:12:24","717589791","307900444","5.0.14.0","1","1","end_of_study_questions_ifirst","awareness","0","0","0","0","all","1","14144"
"012320","13:12:24","717589791","307900444","5.0.14.0","1","2","end_of_study_questions_ifirst","influence_general","0","0","0","0","about half","1","6723"
"012320","13:12:24","717589791","307900444","5.0.14.0","1","3","end_of_study_questions_ifirst","intentionality","0","0","0","0","less than half","1","8260"
"012320","13:12:24","717589791","307900444","5.0.14.0","1","4","end_of_study_questions_ifirst","unintentionality","0","0","0","0","less than half","1","6637"
"012320","13:12:24","717589791","307900444","5.0.14.0","1","5","end_of_study_questions_ifirst","self_exclusion_1","0","0","0","0","Yes, use my data","1","15822"
"012320","13:12:24","717589791","307900444","5.0.14.0","1","5","end_of_study_questions_ifirst","self_exclusion_1other","0","0","0","0","","1","15822"
"012320","13:12:28","900949461","701547885","5.0.14.0","1","1","end_of_study_questions_ufirst","awareness","0","0","0","0","all","1","20969"
"012320","13:12:28","900949461","701547885","5.0.14.0","1","2","end_of_study_questions_ufirst","influence_general","0","0","0","0","less than half","1","10424"
"012320","13:12:28","900949461","701547885","5.0.14.0","1","3","end_of_study_questions_ufirst","unintentionality","0","0","0","0","less than half","1","13148"
"012320","13:12:28","900949461","701547885","5.0.14.0","1","4","end_of_study_questions_ufirst","intentionality","0","0","0","0","a few","1","6712"
"012320","13:12:28","900949461","701547885","5.0.14.0","1","5","end_of_study_questions_ufirst","self_exclusion_1","0","0","0","0","Yes, use my data","1","19426"
"012320","13:12:28","900949461","701547885","5.0.14.0","1","5","end_of_study_questions_ufirst","self_exclusion_1other","0","0","0","0","","1","19426"
"012320","13:13:17","241235503","678354314","5.0.14.0","1","1","end_of_study_questions_ifirst","awareness","0","0","0","0","all","1","10536"
"012320","13:13:17","241235503","678354314","5.0.14.0","1","2","end_of_study_questions_ifirst","influence_general","0","0","0","0","less than half","1","7516"
"012320","13:13:17","241235503","678354314","5.0.14.0","1","3","end_of_study_questions_ifirst","intentionality","0","0","0","0","a few","1","9245"
"012320","13:13:17","241235503","678354314","5.0.14.0","1","4","end_of_study_questions_ifirst","unintentionality","0","0","0","0","less than half","1","5491"
"012320","13:13:17","241235503","678354314","5.0.14.0","1","5","end_of_study_questions_ifirst","self_exclusion_1","0","0","0","0","Yes, use my data","1","9300"
"012320","13:13:17","241235503","678354314","5.0.14.0","1","5","end_of_study_questions_ifirst","self_exclusion_1other","0","0","0","0","","1","9300"
"012320","13:12:50","517698931","802428840","5.0.14.0","1","1","end_of_study_questions_ifirst","awareness","0","0","0","0","all","1","18036"
"012320","13:12:50","517698931","802428840","5.0.14.0","1","2","end_of_study_questions_ifirst","influence_general","0","0","0","0","none","1","4517"
"012320","13:12:50","517698931","802428840","5.0.14.0","1","3","end_of_study_questions_ifirst","intentionality","0","0","0","0","none","1","3017"
"012320","13:12:50","517698931","802428840","5.0.14.0","1","4","end_of_study_questions_ifirst","unintentionality","0","0","0","0","none","1","4706"
"012320","13:12:50","517698931","802428840","5.0.14.0","1","5","end_of_study_questions_ifirst","self_exclusion_1","0","0","0","0","No, exclude my data (please specify why):","1","44136"
"012320","13:12:50","517698931","802428840","5.0.14.0","1","5","end_of_study_questions_ifirst","self_exclusion_1other","0","0","0","0","I thought this was a stupid task. I couldn't see the Chinese character for long enough to form a judgement so I simply hit Unpleasant every time","1","44136"
"012320","13:12:06","654649600","607594865","5.0.14.0","1","1","end_of_study_questions_ufirst","awareness","0","0","0","0","all","1","12506"
"012320","13:12:06","654649600","607594865","5.0.14.0","1","2","end_of_study_questions_ufirst","influence_general","0","0","0","0","a few","1","7295"
"012320","13:12:06","654649600","607594865","5.0.14.0","1","3","end_of_study_questions_ufirst","unintentionality","0","0","0","0","a few","1","7016"
"012320","13:12:06","654649600","607594865","5.0.14.0","1","4","end_of_study_questions_ufirst","intentionality","0","0","0","0","none","1","9495"
"012320","13:12:06","654649600","607594865","5.0.14.0","1","5","end_of_study_questions_ufirst","self_exclusion_1","0","0","0","0","No, exclude my data (please specify why):","1","104850"
"012320","13:12:06","654649600","607594865","5.0.14.0","1","5","end_of_study_questions_ufirst","self_exclusion_1other","0","0","0","0","pressing the space button didn't take me to the next character. Only pressing either the i or e button did which will have messed with the results. I think there is something wrong with ho the test has been programmed.","1","104850"
"012320","13:15:36","22201625","1630295","5.0.14.0","1","1","end_of_study_questions_ufirst","awareness","0","0","0","0","more than half","1","16714"
"012320","13:15:36","22201625","1630295","5.0.14.0","1","2","end_of_study_questions_ufirst","influence_general","0","0","0","0","more than half","1","16574"
"012320","13:15:36","22201625","1630295","5.0.14.0","1","3","end_of_study_questions_ufirst","unintentionality","0","0","0","0","more than half","1","10621"
"012320","13:15:36","22201625","1630295","5.0.14.0","1","4","end_of_study_questions_ufirst","intentionality","0","0","0","0","most","1","13687"
"012320","13:15:36","22201625","1630295","5.0.14.0","1","5","end_of_study_questions_ufirst","self_exclusion_1","0","0","0","0","Yes, use my data","1","5544"
"012320","13:15:36","22201625","1630295","5.0.14.0","1","5","end_of_study_questions_ufirst","self_exclusion_1other","0","0","0","0","","1","5544"
"012320","13:14:20","779612990","606117205","5.0.14.0","1","1","end_of_study_questions_ufirst","awareness","0","0","0","0","all","1","26690"
"012320","13:14:20","779612990","606117205","5.0.14.0","1","2","end_of_study_questions_ufirst","influence_general","0","0","0","0","none","1","8171"
"012320","13:14:20","779612990","606117205","5.0.14.0","1","3","end_of_study_questions_ufirst","unintentionality","0","0","0","0","none","1","9183"
"012320","13:14:20","779612990","606117205","5.0.14.0","1","4","end_of_study_questions_ufirst","intentionality","0","0","0","0","none","1","6620"
"012320","13:14:20","779612990","606117205","5.0.14.0","1","5","end_of_study_questions_ufirst","self_exclusion_1","0","0","0","0","Yes, use my data","1","13019"
"012320","13:14:20","779612990","606117205","5.0.14.0","1","5","end_of_study_questions_ufirst","self_exclusion_1other","0","0","0","0","","1","13019"
"012320","13:14:03","882698808","479140766","5.0.14.0","1","1","end_of_study_questions_ifirst","awareness","0","0","0","0","all","1","22615"
"012320","13:14:03","882698808","479140766","5.0.14.0","1","2","end_of_study_questions_ifirst","influence_general","0","0","0","0","more than half","1","23753"
"012320","13:14:03","882698808","479140766","5.0.14.0","1","3","end_of_study_questions_ifirst","intentionality","0","0","0","0","all","1","9180"
"012320","13:14:03","882698808","479140766","5.0.14.0","1","4","end_of_study_questions_ifirst","unintentionality","0","0","0","0","a few","1","18186"
"012320","13:14:03","882698808","479140766","5.0.14.0","1","5","end_of_study_questions_ifirst","self_exclusion_1","0","0","0","0","Yes, use my data","1","14351"
"012320","13:14:03","882698808","479140766","5.0.14.0","1","5","end_of_study_questions_ifirst","self_exclusion_1other","0","0","0","0","","1","14351"
"012320","13:16:11","421081032","247890705","5.0.14.0","1","1","end_of_study_questions_ufirst","awareness","0","0","0","0","all","1","19763"
"012320","13:16:11","421081032","247890705","5.0.14.0","1","2","end_of_study_questions_ufirst","influence_general","0","0","0","0","a few","1","13994"
"012320","13:16:11","421081032","247890705","5.0.14.0","1","3","end_of_study_questions_ufirst","unintentionality","0","0","0","0","a few","1","13037"
"012320","13:16:11","421081032","247890705","5.0.14.0","1","4","end_of_study_questions_ufirst","intentionality","0","0","0","0","none","1","11114"
"012320","13:16:11","421081032","247890705","5.0.14.0","1","5","end_of_study_questions_ufirst","self_exclusion_1","0","0","0","0","Yes, use my data","1","17132"
"012320","13:16:11","421081032","247890705","5.0.14.0","1","5","end_of_study_questions_ufirst","self_exclusion_1other","0","0","0","0","","1","17132"
"012320","08:15:01","415058028","747909973","5.0.14.0","1","1","end_of_study_questions_ufirst","awareness","0","0","0","0","about half","1","78116"
"012320","08:15:01","415058028","747909973","5.0.14.0","1","2","end_of_study_questions_ufirst","influence_general","0","0","0","0","less than half","1","14638"
"012320","08:15:01","415058028","747909973","5.0.14.0","1","3","end_of_study_questions_ufirst","unintentionality","0","0","0","0","a few","1","12153"
"012320","08:15:01","415058028","747909973","5.0.14.0","1","4","end_of_study_questions_ufirst","intentionality","0","0","0","0","none","1","24443"
"012320","08:15:01","415058028","747909973","5.0.14.0","1","5","end_of_study_questions_ufirst","self_exclusion_1","0","0","0","0","Yes, use my data","1","24503"
"012320","08:15:01","415058028","747909973","5.0.14.0","1","5","end_of_study_questions_ufirst","self_exclusion_1other","0","0","0","0","","1","24503"
"012320","13:17:01","587924247","646279482","5.0.14.0","1","1","end_of_study_questions_ifirst","awareness","0","0","0","0","none","1","26941"
"012320","13:17:01","587924247","646279482","5.0.14.0","1","2","end_of_study_questions_ifirst","influence_general","0","0","0","0","none","1","8059"
"012320","13:17:01","587924247","646279482","5.0.14.0","1","3","end_of_study_questions_ifirst","intentionality","0","0","0","0","none","1","9165"
"012320","13:17:01","587924247","646279482","5.0.14.0","1","4","end_of_study_questions_ifirst","unintentionality","0","0","0","0","none","1","9986"
"012320","13:17:01","587924247","646279482","5.0.14.0","1","5","end_of_study_questions_ifirst","self_exclusion_1","0","0","0","0","Yes, use my data","1","17567"
"012320","13:17:01","587924247","646279482","5.0.14.0","1","5","end_of_study_questions_ifirst","self_exclusion_1other","0","0","0","0","","1","17567"
"012320","13:16:49","20224854","44174345","5.0.14.0","1","1","end_of_study_questions_ufirst","awareness","0","0","0","0","more than half","1","22941"
"012320","13:16:49","20224854","44174345","5.0.14.0","1","2","end_of_study_questions_ufirst","influence_general","0","0","0","0","more than half","1","15430"
"012320","13:16:49","20224854","44174345","5.0.14.0","1","3","end_of_study_questions_ufirst","unintentionality","0","0","0","0","a few","1","16092"
"012320","13:16:49","20224854","44174345","5.0.14.0","1","4","end_of_study_questions_ufirst","intentionality","0","0","0","0","most","1","23540"
"012320","13:16:49","20224854","44174345","5.0.14.0","1","5","end_of_study_questions_ufirst","self_exclusion_1","0","0","0","0","Yes, use my data","1","8990"
"012320","13:16:49","20224854","44174345","5.0.14.0","1","5","end_of_study_questions_ufirst","self_exclusion_1other","0","0","0","0","","1","8990"
"012320","13:16:39","517949995","33934685","5.0.14.0","1","1","end_of_study_questions_ufirst","awareness","0","0","0","0","all","1","34773"
"012320","13:16:39","517949995","33934685","5.0.14.0","1","2","end_of_study_questions_ufirst","influence_general","0","0","0","0","more than half","1","9398"
"012320","13:16:39","517949995","33934685","5.0.14.0","1","3","end_of_study_questions_ufirst","unintentionality","0","0","0","0","less than half","1","7781"
"012320","13:16:39","517949995","33934685","5.0.14.0","1","4","end_of_study_questions_ufirst","intentionality","0","0","0","0","less than half","1","9595"
"012320","13:16:39","517949995","33934685","5.0.14.0","1","5","end_of_study_questions_ufirst","self_exclusion_1","0","0","0","0","Yes, use my data","1","59346"
"012320","13:16:39","517949995","33934685","5.0.14.0","1","5","end_of_study_questions_ufirst","self_exclusion_1other","0","0","0","0","","1","59346"
"012320","13:18:25","582003595","177856627","5.0.14.0","1","1","end_of_study_questions_ufirst","awareness","0","0","0","0","all","1","12078"
"012320","13:18:25","582003595","177856627","5.0.14.0","1","2","end_of_study_questions_ufirst","influence_general","0","0","0","0","a few","1","6980"
"012320","13:18:25","582003595","177856627","5.0.14.0","1","3","end_of_study_questions_ufirst","unintentionality","0","0","0","0","a few","1","6667"
"012320","13:18:25","582003595","177856627","5.0.14.0","1","4","end_of_study_questions_ufirst","intentionality","0","0","0","0","a few","1","10082"
"012320","13:18:25","582003595","177856627","5.0.14.0","1","5","end_of_study_questions_ufirst","self_exclusion_1","0","0","0","0","Yes, use my data","1","6452"
"012320","13:18:25","582003595","177856627","5.0.14.0","1","5","end_of_study_questions_ufirst","self_exclusion_1other","0","0","0","0","","1","6452"
"012320","13:18:04","158507878","423455956","5.0.14.0","1","1","end_of_study_questions_ifirst","awareness","0","0","0","0","about half","1","41890"
"012320","13:18:04","158507878","423455956","5.0.14.0","1","2","end_of_study_questions_ifirst","influence_general","0","0","0","0","less than half","1","13539"
"012320","13:18:04","158507878","423455956","5.0.14.0","1","3","end_of_study_questions_ifirst","intentionality","0","0","0","0","a few","1","13134"
"012320","13:18:04","158507878","423455956","5.0.14.0","1","4","end_of_study_questions_ifirst","unintentionality","0","0","0","0","about half","1","19094"
"012320","13:18:04","158507878","423455956","5.0.14.0","1","5","end_of_study_questions_ifirst","self_exclusion_1","0","0","0","0","Yes, use my data","1","37158"
"012320","13:18:04","158507878","423455956","5.0.14.0","1","5","end_of_study_questions_ifirst","self_exclusion_1other","0","0","0","0","","1","37158"
"012320","13:19:39","358013253","32435442","5.0.14.0","1","1","end_of_study_questions_ifirst","awareness","0","0","0","0","most","1","15573"
"012320","13:19:39","358013253","32435442","5.0.14.0","1","2","end_of_study_questions_ifirst","influence_general","0","0","0","0","more than half","1","6286"
"012320","13:19:39","358013253","32435442","5.0.14.0","1","3","end_of_study_questions_ifirst","intentionality","0","0","0","0","less than half","1","9213"
"012320","13:19:39","358013253","32435442","5.0.14.0","1","4","end_of_study_questions_ifirst","unintentionality","0","0","0","0","about half","1","5333"
"012320","13:19:39","358013253","32435442","5.0.14.0","1","5","end_of_study_questions_ifirst","self_exclusion_1","0","0","0","0","Yes, use my data","1","6301"
"012320","13:19:39","358013253","32435442","5.0.14.0","1","5","end_of_study_questions_ifirst","self_exclusion_1other","0","0","0","0","","1","6301"
"012320","13:18:39","239227130","40414465","5.0.14.0","1","1","end_of_study_questions_ufirst","awareness","0","0","0","0","more than half","1","33540"
"012320","13:18:39","239227130","40414465","5.0.14.0","1","2","end_of_study_questions_ufirst","influence_general","0","0","0","0","more than half","1","8122"
"012320","13:18:39","239227130","40414465","5.0.14.0","1","3","end_of_study_questions_ufirst","unintentionality","0","0","0","0","none","1","35494"
"012320","13:18:39","239227130","40414465","5.0.14.0","1","4","end_of_study_questions_ufirst","intentionality","0","0","0","0","none","1","10261"
"012320","13:18:39","239227130","40414465","5.0.14.0","1","5","end_of_study_questions_ufirst","self_exclusion_1","0","0","0","0","Yes, use my data","1","9861"
"012320","13:18:39","239227130","40414465","5.0.14.0","1","5","end_of_study_questions_ufirst","self_exclusion_1other","0","0","0","0","","1","9861"
"012320","13:19:26","420908617","444858110","5.0.14.0","1","1","end_of_study_questions_ifirst","awareness","0","0","0","0","all","1","40537"
"012320","13:19:26","420908617","444858110","5.0.14.0","1","2","end_of_study_questions_ifirst","influence_general","0","0","0","0","less than half","1","13437"
"012320","13:19:26","420908617","444858110","5.0.14.0","1","3","end_of_study_questions_ifirst","intentionality","0","0","0","0","a few","1","19356"
"012320","13:19:26","420908617","444858110","5.0.14.0","1","4","end_of_study_questions_ifirst","unintentionality","0","0","0","0","less than half","1","10522"
"012320","13:19:26","420908617","444858110","5.0.14.0","1","5","end_of_study_questions_ifirst","self_exclusion_1","0","0","0","0","Yes, use my data","1","8560"
"012320","13:19:26","420908617","444858110","5.0.14.0","1","5","end_of_study_questions_ifirst","self_exclusion_1other","0","0","0","0","","1","8560"
"012320","13:19:27","435840804","947541640","5.0.14.0","1","1","end_of_study_questions_ifirst","awareness","0","0","0","0","most","1","32833"
"012320","13:19:27","435840804","947541640","5.0.14.0","1","2","end_of_study_questions_ifirst","influence_general","0","0","0","0","less than half","1","17317"
"012320","13:19:27","435840804","947541640","5.0.14.0","1","3","end_of_study_questions_ifirst","intentionality","0","0","0","0","less than half","1","19059"
"012320","13:19:27","435840804","947541640","5.0.14.0","1","4","end_of_study_questions_ifirst","unintentionality","0","0","0","0","more than half","1","13084"
"012320","13:19:27","435840804","947541640","5.0.14.0","1","5","end_of_study_questions_ifirst","self_exclusion_1","0","0","0","0","Yes, use my data","1","23284"
"012320","13:19:27","435840804","947541640","5.0.14.0","1","5","end_of_study_questions_ifirst","self_exclusion_1other","0","0","0","0","","1","23284"
"012420","00:20:09","91052178","613813814","5.0.14.0","1","1","end_of_study_questions_ifirst","awareness","0","0","0","0","most","1","27823"
"012420","00:20:09","91052178","613813814","5.0.14.0","1","2","end_of_study_questions_ifirst","influence_general","0","0","0","0","a few","1","10076"
"012420","00:20:09","91052178","613813814","5.0.14.0","1","3","end_of_study_questions_ifirst","intentionality","0","0","0","0","most","1","10513"
"012420","00:20:09","91052178","613813814","5.0.14.0","1","4","end_of_study_questions_ifirst","unintentionality","0","0","0","0","a few","1","9155"
"012420","00:20:09","91052178","613813814","5.0.14.0","1","5","end_of_study_questions_ifirst","self_exclusion_1","0","0","0","0","Yes, use my data","1","23019"
"012420","00:20:09","91052178","613813814","5.0.14.0","1","5","end_of_study_questions_ifirst","self_exclusion_1other","0","0","0","0","","1","23019"
"012320","13:20:49","711601591","612737229","5.0.15.0","1","1","end_of_study_questions_ufirst","awareness","0","0","0","0","all","1","22694"
"012320","13:20:49","711601591","612737229","5.0.15.0","1","2","end_of_study_questions_ufirst","influence_general","0","0","0","0","less than half","1","8293"
"012320","13:20:49","711601591","612737229","5.0.15.0","1","3","end_of_study_questions_ufirst","unintentionality","0","0","0","0","more than half","1","6708"
"012320","13:20:49","711601591","612737229","5.0.15.0","1","4","end_of_study_questions_ufirst","intentionality","0","0","0","0","a few","1","8472"
"012320","13:20:49","711601591","612737229","5.0.15.0","1","5","end_of_study_questions_ufirst","self_exclusion_1","0","0","0","0","Yes, use my data","1","14053"
"012320","13:20:49","711601591","612737229","5.0.15.0","1","5","end_of_study_questions_ufirst","self_exclusion_1other","0","0","0","0","","1","14053"
"012320","13:22:07","762221696","702019007","5.0.14.0","1","1","end_of_study_questions_ufirst","awareness","0","0","0","0","all","1","18514"
"012320","13:22:07","762221696","702019007","5.0.14.0","1","2","end_of_study_questions_ufirst","influence_general","0","0","0","0","more than half","1","11802"
"012320","13:22:07","762221696","702019007","5.0.14.0","1","3","end_of_study_questions_ufirst","unintentionality","0","0","0","0","most","1","9535"
"012320","13:22:07","762221696","702019007","5.0.14.0","1","4","end_of_study_questions_ufirst","intentionality","0","0","0","0","a few","1","15096"
"012320","13:22:07","762221696","702019007","5.0.14.0","1","5","end_of_study_questions_ufirst","self_exclusion_1","0","0","0","0","Yes, use my data","1","18755"
"012320","13:22:07","762221696","702019007","5.0.14.0","1","5","end_of_study_questions_ufirst","self_exclusion_1other","0","0","0","0","","1","18755"
"012320","13:21:09","732299585","172756511","5.0.14.0","1","1","end_of_study_questions_ufirst","awareness","0","0","0","0","all","1","45239"
"012320","13:21:09","732299585","172756511","5.0.14.0","1","2","end_of_study_questions_ufirst","influence_general","0","0","0","0","about half","1","19718"
"012320","13:21:09","732299585","172756511","5.0.14.0","1","3","end_of_study_questions_ufirst","unintentionality","0","0","0","0","about half","1","17814"
"012320","13:21:09","732299585","172756511","5.0.14.0","1","4","end_of_study_questions_ufirst","intentionality","0","0","0","0","all","1","40799"
"012320","13:21:09","732299585","172756511","5.0.14.0","1","5","end_of_study_questions_ufirst","self_exclusion_1","0","0","0","0","Yes, use my data","1","33448"
"012320","13:21:09","732299585","172756511","5.0.14.0","1","5","end_of_study_questions_ufirst","self_exclusion_1other","0","0","0","0","","1","33448"
"012320","13:23:28","789852597","749797574","5.0.14.0","1","1","end_of_study_questions_ifirst","awareness","0","0","0","0","all","1","22600"
"012320","13:23:28","789852597","749797574","5.0.14.0","1","2","end_of_study_questions_ifirst","influence_general","0","0","0","0","more than half","1","9502"
"012320","13:23:28","789852597","749797574","5.0.14.0","1","3","end_of_study_questions_ifirst","intentionality","0","0","0","0","about half","1","6155"
"012320","13:23:28","789852597","749797574","5.0.14.0","1","4","end_of_study_questions_ifirst","unintentionality","0","0","0","0","about half","1","5555"
"012320","13:23:28","789852597","749797574","5.0.14.0","1","5","end_of_study_questions_ifirst","self_exclusion_1","0","0","0","0","Yes, use my data","1","5435"
"012320","13:23:28","789852597","749797574","5.0.14.0","1","5","end_of_study_questions_ifirst","self_exclusion_1other","0","0","0","0","","1","5435"
"012320","08:24:59","247193329","918606882","5.0.14.0","1","1","end_of_study_questions_ifirst","awareness","0","0","0","0","all","1","32013"
"012320","08:24:59","247193329","918606882","5.0.14.0","1","2","end_of_study_questions_ifirst","influence_general","0","0","0","0","a few","1","11114"
"012320","08:24:59","247193329","918606882","5.0.14.0","1","3","end_of_study_questions_ifirst","intentionality","0","0","0","0","a few","1","12052"
"012320","08:24:59","247193329","918606882","5.0.14.0","1","4","end_of_study_questions_ifirst","unintentionality","0","0","0","0","a few","1","8292"
"012320","08:24:59","247193329","918606882","5.0.14.0","1","5","end_of_study_questions_ifirst","self_exclusion_1","0","0","0","0","Yes, use my data","1","23044"
"012320","08:24:59","247193329","918606882","5.0.14.0","1","5","end_of_study_questions_ifirst","self_exclusion_1other","0","0","0","0","","1","23044"
"012320","08:25:26","78039471","316187377","5.0.15.0","1","1","end_of_study_questions_ufirst","awareness","0","0","0","0","all","1","16892"
"012320","08:25:26","78039471","316187377","5.0.15.0","1","2","end_of_study_questions_ufirst","influence_general","0","0","0","0","more than half","1","11201"
"012320","08:25:26","78039471","316187377","5.0.15.0","1","3","end_of_study_questions_ufirst","unintentionality","0","0","0","0","a few","1","11486"
"012320","08:25:26","78039471","316187377","5.0.15.0","1","4","end_of_study_questions_ufirst","intentionality","0","0","0","0","about half","1","9853"
"012320","08:25:26","78039471","316187377","5.0.15.0","1","5","end_of_study_questions_ufirst","self_exclusion_1","0","0","0","0","Yes, use my data","1","16471"
"012320","08:25:26","78039471","316187377","5.0.15.0","1","5","end_of_study_questions_ufirst","self_exclusion_1other","0","0","0","0","","1","16471"
"012320","13:26:47","830323408","789988893","5.0.14.0","1","1","end_of_study_questions_ufirst","awareness","0","0","0","0","all","1","27666"
"012320","13:26:47","830323408","789988893","5.0.14.0","1","2","end_of_study_questions_ufirst","influence_general","0","0","0","0","about half","1","29018"
"012320","13:26:47","830323408","789988893","5.0.14.0","1","3","end_of_study_questions_ufirst","unintentionality","0","0","0","0","a few","1","15531"
"012320","13:26:47","830323408","789988893","5.0.14.0","1","4","end_of_study_questions_ufirst","intentionality","0","0","0","0","a few","1","14415"
"012320","13:26:47","830323408","789988893","5.0.14.0","1","5","end_of_study_questions_ufirst","self_exclusion_1","0","0","0","0","Yes, use my data","1","36621"
"012320","13:26:47","830323408","789988893","5.0.14.0","1","5","end_of_study_questions_ufirst","self_exclusion_1other","0","0","0","0","","1","36621"
"012320","13:29:41","930182712","519606322","5.0.14.0","1","1","end_of_study_questions_ifirst","awareness","0","0","0","0","about half","1","10752"
"012320","13:29:41","930182712","519606322","5.0.14.0","1","2","end_of_study_questions_ifirst","influence_general","0","0","0","0","about half","1","26162"
"012320","13:29:41","930182712","519606322","5.0.14.0","1","3","end_of_study_questions_ifirst","intentionality","0","0","0","0","less than half","1","7370"
"012320","13:29:41","930182712","519606322","5.0.14.0","1","4","end_of_study_questions_ifirst","unintentionality","0","0","0","0","most","1","4812"
"012320","13:29:41","930182712","519606322","5.0.14.0","1","5","end_of_study_questions_ifirst","self_exclusion_1","0","0","0","0","Yes, use my data","1","4918"
"012320","13:29:41","930182712","519606322","5.0.14.0","1","5","end_of_study_questions_ifirst","self_exclusion_1other","0","0","0","0","","1","4918"
"012320","13:29:41","617049490","292746900","5.0.14.0","1","1","end_of_study_questions_ifirst","awareness","0","0","0","0","all","1","19989"
"012320","13:29:41","617049490","292746900","5.0.14.0","1","2","end_of_study_questions_ifirst","influence_general","0","0","0","0","a few","1","10867"
"012320","13:29:41","617049490","292746900","5.0.14.0","1","3","end_of_study_questions_ifirst","intentionality","0","0","0","0","none","1","11976"
"012320","13:29:41","617049490","292746900","5.0.14.0","1","4","end_of_study_questions_ifirst","unintentionality","0","0","0","0","a few","1","8260"
"012320","13:29:41","617049490","292746900","5.0.14.0","1","5","end_of_study_questions_ifirst","self_exclusion_1","0","0","0","0","Yes, use my data","1","13855"
"012320","13:29:41","617049490","292746900","5.0.14.0","1","5","end_of_study_questions_ifirst","self_exclusion_1other","0","0","0","0","","1","13855"
"012420","00:30:43","464370924","443860297","5.0.14.0","1","1","end_of_study_questions_ufirst","awareness","0","0","0","0","all","1","12148"
"012420","00:30:43","464370924","443860297","5.0.14.0","1","2","end_of_study_questions_ufirst","influence_general","0","0","0","0","more than half","1","14843"
"012420","00:30:43","464370924","443860297","5.0.14.0","1","3","end_of_study_questions_ufirst","unintentionality","0","0","0","0","most","1","7720"
"012420","00:30:43","464370924","443860297","5.0.14.0","1","4","end_of_study_questions_ufirst","intentionality","0","0","0","0","none","1","9375"
"012420","00:30:43","464370924","443860297","5.0.14.0","1","5","end_of_study_questions_ufirst","self_exclusion_1","0","0","0","0","Yes, use my data","1","13058"
"012420","00:30:43","464370924","443860297","5.0.14.0","1","5","end_of_study_questions_ufirst","self_exclusion_1other","0","0","0","0","","1","13058"
"012320","13:31:00","237975087","26378635","5.0.14.0","1","1","end_of_study_questions_ufirst","awareness","0","0","0","0","most","1","17823"
"012320","13:31:00","237975087","26378635","5.0.14.0","1","2","end_of_study_questions_ufirst","influence_general","0","0","0","0","less than half","1","9571"
"012320","13:31:00","237975087","26378635","5.0.14.0","1","3","end_of_study_questions_ufirst","unintentionality","0","0","0","0","less than half","1","8022"
"012320","13:31:00","237975087","26378635","5.0.14.0","1","4","end_of_study_questions_ufirst","intentionality","0","0","0","0","less than half","1","7393"
"012320","13:31:00","237975087","26378635","5.0.14.0","1","5","end_of_study_questions_ufirst","self_exclusion_1","0","0","0","0","Yes, use my data","1","8889"
"012320","13:31:00","237975087","26378635","5.0.14.0","1","5","end_of_study_questions_ufirst","self_exclusion_1other","0","0","0","0","","1","8889"
"012320","13:28:35","943648226","459632917","5.0.14.0","1","1","end_of_study_questions_ufirst","awareness","0","0","0","0","all","1","117999"
"012320","13:28:35","943648226","459632917","5.0.14.0","1","2","end_of_study_questions_ufirst","influence_general","0","0","0","0","about half","1","34562"
"012320","13:28:35","943648226","459632917","5.0.14.0","1","3","end_of_study_questions_ufirst","unintentionality","0","0","0","0","less than half","1","26008"
"012320","13:28:35","943648226","459632917","5.0.14.0","1","4","end_of_study_questions_ufirst","intentionality","0","0","0","0","less than half","1","24119"
"012320","13:28:35","943648226","459632917","5.0.14.0","1","5","end_of_study_questions_ufirst","self_exclusion_1","0","0","0","0","Yes, use my data","1","14273"
"012320","13:28:35","943648226","459632917","5.0.14.0","1","5","end_of_study_questions_ufirst","self_exclusion_1other","0","0","0","0","","1","14273"
"012320","08:31:55","979355131","263496132","5.0.14.0","1","1","end_of_study_questions_ifirst","awareness","0","0","0","0","all","1","17016"
"012320","08:31:55","979355131","263496132","5.0.14.0","1","2","end_of_study_questions_ifirst","influence_general","0","0","0","0","none","1","7161"
"012320","08:31:55","979355131","263496132","5.0.14.0","1","3","end_of_study_questions_ifirst","intentionality","0","0","0","0","none","1","12040"
"012320","08:31:55","979355131","263496132","5.0.14.0","1","4","end_of_study_questions_ifirst","unintentionality","0","0","0","0","none","1","8957"
"012320","08:31:55","979355131","263496132","5.0.14.0","1","5","end_of_study_questions_ifirst","self_exclusion_1","0","0","0","0","Yes, use my data","1","9763"
"012320","08:31:55","979355131","263496132","5.0.14.0","1","5","end_of_study_questions_ifirst","self_exclusion_1other","0","0","0","0","","1","9763"
"012320","09:32:05","892812998","157172179","5.0.14.0","1","1","end_of_study_questions_ufirst","awareness","0","0","0","0","most","1","33763"
"012320","09:32:05","892812998","157172179","5.0.14.0","1","2","end_of_study_questions_ufirst","influence_general","0","0","0","0","none","1","9599"
"012320","09:32:05","892812998","157172179","5.0.14.0","1","3","end_of_study_questions_ufirst","unintentionality","0","0","0","0","none","1","9625"
"012320","09:32:05","892812998","157172179","5.0.14.0","1","4","end_of_study_questions_ufirst","intentionality","0","0","0","0","none","1","10201"
"012320","09:32:05","892812998","157172179","5.0.14.0","1","5","end_of_study_questions_ufirst","self_exclusion_1","0","0","0","0","Yes, use my data","1","16035"
"012320","09:32:05","892812998","157172179","5.0.14.0","1","5","end_of_study_questions_ufirst","self_exclusion_1other","0","0","0","0","","1","16035"
"012320","09:32:31","451840922","475790417","5.0.14.0","1","1","end_of_study_questions_ufirst","awareness","0","0","0","0","a few","1","95513"
"012320","09:32:31","451840922","475790417","5.0.14.0","1","2","end_of_study_questions_ufirst","influence_general","0","0","0","0","all","1","13404"
"012320","09:32:31","451840922","475790417","5.0.14.0","1","3","end_of_study_questions_ufirst","unintentionality","0","0","0","0","less than half","1","5464"
"012320","09:32:31","451840922","475790417","5.0.14.0","1","4","end_of_study_questions_ufirst","intentionality","0","0","0","0","most","1","8154"
"012320","09:32:31","451840922","475790417","5.0.14.0","1","5","end_of_study_questions_ufirst","self_exclusion_1","0","0","0","0","Yes, use my data","1","3038"
"012320","09:32:31","451840922","475790417","5.0.14.0","1","5","end_of_study_questions_ufirst","self_exclusion_1other","0","0","0","0","","1","3038"
"012320","07:33:59","546162756","142604711","5.0.14.0","1","1","end_of_study_questions_ufirst","awareness","0","0","0","0","all","1","15132"
"012320","07:33:59","546162756","142604711","5.0.14.0","1","2","end_of_study_questions_ufirst","influence_general","0","0","0","0","none","1","12814"
"012320","07:33:59","546162756","142604711","5.0.14.0","1","3","end_of_study_questions_ufirst","unintentionality","0","0","0","0","none","1","7450"
"012320","07:33:59","546162756","142604711","5.0.14.0","1","4","end_of_study_questions_ufirst","intentionality","0","0","0","0","none","1","16875"
"012320","07:33:59","546162756","142604711","5.0.14.0","1","5","end_of_study_questions_ufirst","self_exclusion_1","0","0","0","0","Yes, use my data","1","5348"
"012320","07:33:59","546162756","142604711","5.0.14.0","1","5","end_of_study_questions_ufirst","self_exclusion_1other","0","0","0","0","","1","5348"
"012320","13:34:59","977424563","956581077","5.0.14.0","1","1","end_of_study_questions_ufirst","awareness","0","0","0","0","more than half","1","4990"
"012320","13:34:59","977424563","956581077","5.0.14.0","1","2","end_of_study_questions_ufirst","influence_general","0","0","0","0","more than half","1","2458"
"012320","13:34:59","977424563","956581077","5.0.14.0","1","3","end_of_study_questions_ufirst","unintentionality","0","0","0","0","more than half","1","2447"
"012320","13:34:59","977424563","956581077","5.0.14.0","1","4","end_of_study_questions_ufirst","intentionality","0","0","0","0","more than half","1","1992"
"012320","13:34:59","977424563","956581077","5.0.14.0","1","5","end_of_study_questions_ufirst","self_exclusion_1","0","0","0","0","Yes, use my data","1","2667"
"012320","13:34:59","977424563","956581077","5.0.14.0","1","5","end_of_study_questions_ufirst","self_exclusion_1other","0","0","0","0","","1","2667"
"012320","08:34:50","946452754","54181250","5.0.14.0","1","1","end_of_study_questions_ifirst","awareness","0","0","0","0","none","1","9168"
"012320","08:34:50","946452754","54181250","5.0.14.0","1","2","end_of_study_questions_ifirst","influence_general","0","0","0","0","a few","1","10215"
"012320","08:34:50","946452754","54181250","5.0.14.0","1","3","end_of_study_questions_ifirst","intentionality","0","0","0","0","none","1","5297"
"012320","08:34:50","946452754","54181250","5.0.14.0","1","4","end_of_study_questions_ifirst","unintentionality","0","0","0","0","less than half","1","7159"
"012320","08:34:50","946452754","54181250","5.0.14.0","1","5","end_of_study_questions_ifirst","self_exclusion_1","0","0","0","0","Yes, use my data","1","5794"
"012320","08:34:50","946452754","54181250","5.0.14.0","1","5","end_of_study_questions_ifirst","self_exclusion_1other","0","0","0","0","","1","5794"
"012320","13:34:14","980752605","265191732","5.0.14.0","1","1","end_of_study_questions_ifirst","awareness","0","0","0","0","all","1","17183"
"012320","13:34:14","980752605","265191732","5.0.14.0","1","2","end_of_study_questions_ifirst","influence_general","0","0","0","0","less than half","1","10874"
"012320","13:34:14","980752605","265191732","5.0.14.0","1","3","end_of_study_questions_ifirst","intentionality","0","0","0","0","a few","1","12989"
"012320","13:34:14","980752605","265191732","5.0.14.0","1","4","end_of_study_questions_ifirst","unintentionality","0","0","0","0","a few","1","10935"
"012320","13:34:14","980752605","265191732","5.0.14.0","1","5","end_of_study_questions_ifirst","self_exclusion_1","0","0","0","0","Yes, use my data","1","23942"
"012320","13:34:14","980752605","265191732","5.0.14.0","1","5","end_of_study_questions_ifirst","self_exclusion_1other","0","0","0","0","","1","23942"
"012320","13:34:43","285672358","33872229","5.0.14.0","1","1","end_of_study_questions_ufirst","awareness","0","0","0","0","all","1","19477"
"012320","13:34:43","285672358","33872229","5.0.14.0","1","2","end_of_study_questions_ufirst","influence_general","0","0","0","0","less than half","1","8887"
"012320","13:34:43","285672358","33872229","5.0.14.0","1","3","end_of_study_questions_ufirst","unintentionality","0","0","0","0","a few","1","7204"
"012320","13:34:43","285672358","33872229","5.0.14.0","1","4","end_of_study_questions_ufirst","intentionality","0","0","0","0","a few","1","10109"
"012320","13:34:43","285672358","33872229","5.0.14.0","1","5","end_of_study_questions_ufirst","self_exclusion_1","0","0","0","0","Yes, use my data","1","15799"
"012320","13:34:43","285672358","33872229","5.0.14.0","1","5","end_of_study_questions_ufirst","self_exclusion_1other","0","0","0","0","","1","15799"
"012320","08:34:58","805066421","858548903","5.0.14.0","1","1","end_of_study_questions_ufirst","awareness","0","0","0","0","all","1","16422"
"012320","08:34:58","805066421","858548903","5.0.14.0","1","2","end_of_study_questions_ufirst","influence_general","0","0","0","0","more than half","1","13225"
"012320","08:34:58","805066421","858548903","5.0.14.0","1","3","end_of_study_questions_ufirst","unintentionality","0","0","0","0","less than half","1","13739"
"012320","08:34:58","805066421","858548903","5.0.14.0","1","4","end_of_study_questions_ufirst","intentionality","0","0","0","0","about half","1","17343"
"012320","08:34:58","805066421","858548903","5.0.14.0","1","5","end_of_study_questions_ufirst","self_exclusion_1","0","0","0","0","Yes, use my data","1","4178"
"012320","08:34:58","805066421","858548903","5.0.14.0","1","5","end_of_study_questions_ufirst","self_exclusion_1other","0","0","0","0","","1","4178"
"012320","13:34:23","313875144","231035127","5.0.14.0","1","1","end_of_study_questions_ufirst","awareness","0","0","0","0","all","1","31459"
"012320","13:34:23","313875144","231035127","5.0.14.0","1","2","end_of_study_questions_ufirst","influence_general","0","0","0","0","about half","1","21350"
"012320","13:34:23","313875144","231035127","5.0.14.0","1","3","end_of_study_questions_ufirst","unintentionality","0","0","0","0","a few","1","28024"
"012320","13:34:23","313875144","231035127","5.0.14.0","1","4","end_of_study_questions_ufirst","intentionality","0","0","0","0","more than half","1","16397"
"012320","13:34:23","313875144","231035127","5.0.14.0","1","5","end_of_study_questions_ufirst","self_exclusion_1","0","0","0","0","Yes, use my data","1","21976"
"012320","13:34:23","313875144","231035127","5.0.14.0","1","5","end_of_study_questions_ufirst","self_exclusion_1other","0","0","0","0","","1","21976"
"012320","13:36:04","723148221","981965007","5.0.14.0","1","1","end_of_study_questions_ufirst","awareness","0","0","0","0","most","1","14629"
"012320","13:36:04","723148221","981965007","5.0.14.0","1","2","end_of_study_questions_ufirst","influence_general","0","0","0","0","all","1","7311"
"012320","13:36:04","723148221","981965007","5.0.14.0","1","3","end_of_study_questions_ufirst","unintentionality","0","0","0","0","all","1","13681"
"012320","13:36:04","723148221","981965007","5.0.14.0","1","4","end_of_study_questions_ufirst","intentionality","0","0","0","0","all","1","7225"
"012320","13:36:04","723148221","981965007","5.0.14.0","1","5","end_of_study_questions_ufirst","self_exclusion_1","0","0","0","0","Yes, use my data","1","7989"
"012320","13:36:04","723148221","981965007","5.0.14.0","1","5","end_of_study_questions_ufirst","self_exclusion_1other","0","0","0","0","","1","7989"
"012320","13:35:10","369526916","962919588","5.0.14.0","1","1","end_of_study_questions_ifirst","awareness","0","0","0","0","all","1","52520"
"012320","13:35:10","369526916","962919588","5.0.14.0","1","2","end_of_study_questions_ifirst","influence_general","0","0","0","0","none","1","6513"
"012320","13:35:10","369526916","962919588","5.0.14.0","1","3","end_of_study_questions_ifirst","intentionality","0","0","0","0","none","1","12881"
"012320","13:35:10","369526916","962919588","5.0.14.0","1","4","end_of_study_questions_ifirst","unintentionality","0","0","0","0","none","1","6525"
"012320","13:35:10","369526916","962919588","5.0.14.0","1","5","end_of_study_questions_ifirst","self_exclusion_1","0","0","0","0","Yes, use my data","1","16917"
"012320","13:35:10","369526916","962919588","5.0.14.0","1","5","end_of_study_questions_ifirst","self_exclusion_1other","0","0","0","0","","1","16917"
"012320","06:36:26","938522367","740073869","5.0.14.0","1","1","end_of_study_questions_ufirst","awareness","0","0","0","0","all","1","17243"
"012320","06:36:26","938522367","740073869","5.0.14.0","1","2","end_of_study_questions_ufirst","influence_general","0","0","0","0","all","1","10490"
"012320","06:36:26","938522367","740073869","5.0.14.0","1","3","end_of_study_questions_ufirst","unintentionality","0","0","0","0","most","1","17778"
"012320","06:36:26","938522367","740073869","5.0.14.0","1","4","end_of_study_questions_ufirst","intentionality","0","0","0","0","a few","1","14896"
"012320","06:36:26","938522367","740073869","5.0.14.0","1","5","end_of_study_questions_ufirst","self_exclusion_1","0","0","0","0","Yes, use my data","1","17106"
"012320","06:36:26","938522367","740073869","5.0.14.0","1","5","end_of_study_questions_ufirst","self_exclusion_1other","0","0","0","0","","1","17106"
"012320","07:36:39","320241318","299397832","5.0.14.0","1","1","end_of_study_questions_ifirst","awareness","0","0","0","0","less than half","1","23953"
"012320","07:36:39","320241318","299397832","5.0.14.0","1","2","end_of_study_questions_ifirst","influence_general","0","0","0","0","less than half","1","15089"
"012320","07:36:39","320241318","299397832","5.0.14.0","1","3","end_of_study_questions_ifirst","intentionality","0","0","0","0","less than half","1","21428"
"012320","07:36:39","320241318","299397832","5.0.14.0","1","4","end_of_study_questions_ifirst","unintentionality","0","0","0","0","less than half","1","11122"
"012320","07:36:39","320241318","299397832","5.0.14.0","1","5","end_of_study_questions_ifirst","self_exclusion_1","0","0","0","0","Yes, use my data","1","24909"
"012320","07:36:39","320241318","299397832","5.0.14.0","1","5","end_of_study_questions_ifirst","self_exclusion_1other","0","0","0","0","","1","24909"
"012320","13:38:10","28737137","706281989","5.0.14.0","1","1","end_of_study_questions_ufirst","awareness","0","0","0","0","all","1","19810"
"012320","13:38:10","28737137","706281989","5.0.14.0","1","2","end_of_study_questions_ufirst","influence_general","0","0","0","0","none","1","9381"
"012320","13:38:10","28737137","706281989","5.0.14.0","1","3","end_of_study_questions_ufirst","unintentionality","0","0","0","0","none","1","6557"
"012320","13:38:10","28737137","706281989","5.0.14.0","1","4","end_of_study_questions_ufirst","intentionality","0","0","0","0","none","1","6058"
"012320","13:38:10","28737137","706281989","5.0.14.0","1","5","end_of_study_questions_ufirst","self_exclusion_1","0","0","0","0","Yes, use my data","1","16471"
"012320","13:38:10","28737137","706281989","5.0.14.0","1","5","end_of_study_questions_ufirst","self_exclusion_1other","0","0","0","0","","1","16471"
"012320","08:37:07","996810161","256587365","5.0.14.0","1","1","end_of_study_questions_ufirst","awareness","0","0","0","0","all","1","25648"
"012320","08:37:07","996810161","256587365","5.0.14.0","1","2","end_of_study_questions_ufirst","influence_general","0","0","0","0","none","1","44291"
"012320","08:37:07","996810161","256587365","5.0.14.0","1","3","end_of_study_questions_ufirst","unintentionality","0","0","0","0","a few","1","7900"
"012320","08:37:07","996810161","256587365","5.0.14.0","1","4","end_of_study_questions_ufirst","intentionality","0","0","0","0","none","1","22837"
"012320","08:37:07","996810161","256587365","5.0.14.0","1","5","end_of_study_questions_ufirst","self_exclusion_1","0","0","0","0","Yes, use my data","1","33148"
"012320","08:37:07","996810161","256587365","5.0.14.0","1","5","end_of_study_questions_ufirst","self_exclusion_1other","0","0","0","0","","1","33148"
"012320","08:39:22","871907090","237392409","5.0.14.0","1","1","end_of_study_questions_ufirst","awareness","0","0","0","0","all","1","21339"
"012320","08:39:22","871907090","237392409","5.0.14.0","1","2","end_of_study_questions_ufirst","influence_general","0","0","0","0","about half","1","6697"
"012320","08:39:22","871907090","237392409","5.0.14.0","1","3","end_of_study_questions_ufirst","unintentionality","0","0","0","0","more than half","1","6475"
"012320","08:39:22","871907090","237392409","5.0.14.0","1","4","end_of_study_questions_ufirst","intentionality","0","0","0","0","a few","1","12411"
"012320","08:39:22","871907090","237392409","5.0.14.0","1","5","end_of_study_questions_ufirst","self_exclusion_1","0","0","0","0","Yes, use my data","1","19487"
"012320","08:39:22","871907090","237392409","5.0.14.0","1","5","end_of_study_questions_ufirst","self_exclusion_1other","0","0","0","0","","1","19487"
"012320","08:40:20","673285867","543926415","5.0.14.0","1","1","end_of_study_questions_ufirst","awareness","0","0","0","0","all","1","13470"
"012320","08:40:20","673285867","543926415","5.0.14.0","1","2","end_of_study_questions_ufirst","influence_general","0","0","0","0","all","1","7543"
"012320","08:40:20","673285867","543926415","5.0.14.0","1","3","end_of_study_questions_ufirst","unintentionality","0","0","0","0","all","1","14703"
"012320","08:40:20","673285867","543926415","5.0.14.0","1","4","end_of_study_questions_ufirst","intentionality","0","0","0","0","most","1","10330"
"012320","08:40:20","673285867","543926415","5.0.14.0","1","5","end_of_study_questions_ufirst","self_exclusion_1","0","0","0","0","Yes, use my data","1","16102"
"012320","08:40:20","673285867","543926415","5.0.14.0","1","5","end_of_study_questions_ufirst","self_exclusion_1other","0","0","0","0","","1","16102"
"012320","08:39:54","809150755","925038743","5.0.14.0","1","1","end_of_study_questions_ufirst","awareness","0","0","0","0","more than half","1","47006"
"012320","08:39:54","809150755","925038743","5.0.14.0","1","2","end_of_study_questions_ufirst","influence_general","0","0","0","0","a few","1","8223"
"012320","08:39:54","809150755","925038743","5.0.14.0","1","3","end_of_study_questions_ufirst","unintentionality","0","0","0","0","a few","1","6627"
"012320","08:39:54","809150755","925038743","5.0.14.0","1","4","end_of_study_questions_ufirst","intentionality","0","0","0","0","a few","1","6208"
"012320","08:39:54","809150755","925038743","5.0.14.0","1","5","end_of_study_questions_ufirst","self_exclusion_1","0","0","0","0","No, exclude my data (please specify why):","1","41603"
"012320","08:39:54","809150755","925038743","5.0.14.0","1","5","end_of_study_questions_ufirst","self_exclusion_1other","0","0","0","0","Someone walked in when I was taking this test and started a conversation with me and I became distracted. ","1","41603"
"012320","07:43:48","553629149","48944973","5.0.14.0","1","1","end_of_study_questions_ufirst","awareness","0","0","0","0","all","1","14620"
"012320","07:43:48","553629149","48944973","5.0.14.0","1","2","end_of_study_questions_ufirst","influence_general","0","0","0","0","none","1","9887"
"012320","07:43:48","553629149","48944973","5.0.14.0","1","3","end_of_study_questions_ufirst","unintentionality","0","0","0","0","a few","1","8723"
"012320","07:43:48","553629149","48944973","5.0.14.0","1","4","end_of_study_questions_ufirst","intentionality","0","0","0","0","none","1","6203"
"012320","07:43:48","553629149","48944973","5.0.14.0","1","5","end_of_study_questions_ufirst","self_exclusion_1","0","0","0","0","Yes, use my data","1","5570"
"012320","07:43:48","553629149","48944973","5.0.14.0","1","5","end_of_study_questions_ufirst","self_exclusion_1other","0","0","0","0","","1","5570"
"012320","13:44:05","655798540","714153786","5.0.14.0","1","1","end_of_study_questions_ifirst","awareness","0","0","0","0","most","1","16725"
"012320","13:44:05","655798540","714153786","5.0.14.0","1","2","end_of_study_questions_ifirst","influence_general","0","0","0","0","a few","1","10590"
"012320","13:44:05","655798540","714153786","5.0.14.0","1","3","end_of_study_questions_ifirst","intentionality","0","0","0","0","none","1","7541"
"012320","13:44:05","655798540","714153786","5.0.14.0","1","4","end_of_study_questions_ifirst","unintentionality","0","0","0","0","a few","1","7319"
"012320","13:44:05","655798540","714153786","5.0.14.0","1","5","end_of_study_questions_ifirst","self_exclusion_1","0","0","0","0","Yes, use my data","1","12192"
"012320","13:44:05","655798540","714153786","5.0.14.0","1","5","end_of_study_questions_ifirst","self_exclusion_1other","0","0","0","0","","1","12192"
"012320","08:44:38","843090930","107450118","5.0.14.0","1","1","end_of_study_questions_ifirst","awareness","0","0","0","0","most","1","16036"
"012320","08:44:38","843090930","107450118","5.0.14.0","1","2","end_of_study_questions_ifirst","influence_general","0","0","0","0","more than half","1","18489"
"012320","08:44:38","843090930","107450118","5.0.14.0","1","3","end_of_study_questions_ifirst","intentionality","0","0","0","0","about half","1","8667"
"012320","08:44:38","843090930","107450118","5.0.14.0","1","4","end_of_study_questions_ifirst","unintentionality","0","0","0","0","a few","1","7205"
"012320","08:44:38","843090930","107450118","5.0.14.0","1","5","end_of_study_questions_ifirst","self_exclusion_1","0","0","0","0","Yes, use my data","1","13046"
"012320","08:44:38","843090930","107450118","5.0.14.0","1","5","end_of_study_questions_ifirst","self_exclusion_1other","0","0","0","0","","1","13046"
"012320","13:46:20","960263898","371427534","5.0.15.0","1","1","end_of_study_questions_ifirst","awareness","0","0","0","0","less than half","1","3358"
"012320","13:46:20","960263898","371427534","5.0.15.0","1","2","end_of_study_questions_ifirst","influence_general","0","0","0","0","less than half","1","3444"
"012320","13:46:20","960263898","371427534","5.0.15.0","1","3","end_of_study_questions_ifirst","intentionality","0","0","0","0","less than half","1","1447"
"012320","13:46:20","960263898","371427534","5.0.15.0","1","4","end_of_study_questions_ifirst","unintentionality","0","0","0","0","about half","1","2645"
"012320","13:46:20","960263898","371427534","5.0.15.0","1","5","end_of_study_questions_ifirst","self_exclusion_1","0","0","0","0","Yes, use my data","1","6752"
"012320","13:46:20","960263898","371427534","5.0.15.0","1","5","end_of_study_questions_ifirst","self_exclusion_1other","0","0","0","0","","1","6752"
"012320","13:46:01","891988616","176427757","5.0.14.0","1","1","end_of_study_questions_ufirst","awareness","0","0","0","0","more than half","1","19474"
"012320","13:46:01","891988616","176427757","5.0.14.0","1","2","end_of_study_questions_ufirst","influence_general","0","0","0","0","about half","1","9040"
"012320","13:46:01","891988616","176427757","5.0.14.0","1","3","end_of_study_questions_ufirst","unintentionality","0","0","0","0","more than half","1","9942"
"012320","13:46:01","891988616","176427757","5.0.14.0","1","4","end_of_study_questions_ufirst","intentionality","0","0","0","0","about half","1","5028"
"012320","13:46:01","891988616","176427757","5.0.14.0","1","5","end_of_study_questions_ufirst","self_exclusion_1","0","0","0","0","Yes, use my data","1","3003"
"012320","13:46:01","891988616","176427757","5.0.14.0","1","5","end_of_study_questions_ufirst","self_exclusion_1other","0","0","0","0","","1","3003"
"012320","13:46:19","2509983","366147815","5.0.14.0","1","1","end_of_study_questions_ufirst","awareness","0","0","0","0","less than half","1","14308"
"012320","13:46:19","2509983","366147815","5.0.14.0","1","2","end_of_study_questions_ufirst","influence_general","0","0","0","0","a few","1","9526"
"012320","13:46:19","2509983","366147815","5.0.14.0","1","3","end_of_study_questions_ufirst","unintentionality","0","0","0","0","a few","1","10265"
"012320","13:46:19","2509983","366147815","5.0.14.0","1","4","end_of_study_questions_ufirst","intentionality","0","0","0","0","none","1","9632"
"012320","13:46:19","2509983","366147815","5.0.14.0","1","5","end_of_study_questions_ufirst","self_exclusion_1","0","0","0","0","Yes, use my data","1","8228"
"012320","13:46:19","2509983","366147815","5.0.14.0","1","5","end_of_study_questions_ufirst","self_exclusion_1other","0","0","0","0","","1","8228"
"012320","13:47:38","972584711","821297833","5.0.14.0","1","1","end_of_study_questions_ufirst","awareness","0","0","0","0","all","1","34379"
"012320","13:47:38","972584711","821297833","5.0.14.0","1","2","end_of_study_questions_ufirst","influence_general","0","0","0","0","none","1","7968"
"012320","13:47:38","972584711","821297833","5.0.14.0","1","3","end_of_study_questions_ufirst","unintentionality","0","0","0","0","none","1","10107"
"012320","13:47:38","972584711","821297833","5.0.14.0","1","4","end_of_study_questions_ufirst","intentionality","0","0","0","0","all","1","17011"
"012320","13:47:38","972584711","821297833","5.0.14.0","1","5","end_of_study_questions_ufirst","self_exclusion_1","0","0","0","0","Yes, use my data","1","22650"
"012320","13:47:38","972584711","821297833","5.0.14.0","1","5","end_of_study_questions_ufirst","self_exclusion_1other","0","0","0","0","","1","22650"
"012320","08:47:47","368315343","190841178","5.0.14.0","1","1","end_of_study_questions_ifirst","awareness","0","0","0","0","all","1","35428"
"012320","08:47:47","368315343","190841178","5.0.14.0","1","2","end_of_study_questions_ifirst","influence_general","0","0","0","0","none","1","8690"
"012320","08:47:47","368315343","190841178","5.0.14.0","1","3","end_of_study_questions_ifirst","intentionality","0","0","0","0","none","1","8256"
"012320","08:47:47","368315343","190841178","5.0.14.0","1","4","end_of_study_questions_ifirst","unintentionality","0","0","0","0","none","1","8645"
"012320","08:47:47","368315343","190841178","5.0.14.0","1","5","end_of_study_questions_ifirst","self_exclusion_1","0","0","0","0","Yes, use my data","1","27252"
"012320","08:47:47","368315343","190841178","5.0.14.0","1","5","end_of_study_questions_ifirst","self_exclusion_1other","0","0","0","0","","1","27252"
"012320","08:51:04","682757294","973916649","5.0.14.0","1","1","end_of_study_questions_ufirst","awareness","0","0","0","0","all","1","24392"
"012320","08:51:04","682757294","973916649","5.0.14.0","1","2","end_of_study_questions_ufirst","influence_general","0","0","0","0","less than half","1","6202"
"012320","08:51:04","682757294","973916649","5.0.14.0","1","3","end_of_study_questions_ufirst","unintentionality","0","0","0","0","less than half","1","8196"
"012320","08:51:04","682757294","973916649","5.0.14.0","1","4","end_of_study_questions_ufirst","intentionality","0","0","0","0","a few","1","5928"
"012320","08:51:04","682757294","973916649","5.0.14.0","1","5","end_of_study_questions_ufirst","self_exclusion_1","0","0","0","0","Yes, use my data","1","16291"
"012320","08:51:04","682757294","973916649","5.0.14.0","1","5","end_of_study_questions_ufirst","self_exclusion_1other","0","0","0","0","","1","16291"
"012320","13:52:46","882579311","404695321","5.0.14.0","1","1","end_of_study_questions_ufirst","awareness","0","0","0","0","all","1","8981"
"012320","13:52:46","882579311","404695321","5.0.14.0","1","2","end_of_study_questions_ufirst","influence_general","0","0","0","0","about half","1","6677"
"012320","13:52:46","882579311","404695321","5.0.14.0","1","3","end_of_study_questions_ufirst","unintentionality","0","0","0","0","a few","1","10984"
"012320","13:52:46","882579311","404695321","5.0.14.0","1","4","end_of_study_questions_ufirst","intentionality","0","0","0","0","none","1","5917"
"012320","13:52:46","882579311","404695321","5.0.14.0","1","5","end_of_study_questions_ufirst","self_exclusion_1","0","0","0","0","Yes, use my data","1","3724"
"012320","13:52:46","882579311","404695321","5.0.14.0","1","5","end_of_study_questions_ufirst","self_exclusion_1other","0","0","0","0","","1","3724"
"012320","13:52:32","46652458","337513661","5.0.14.0","1","1","end_of_study_questions_ufirst","awareness","0","0","0","0","all","1","12899"
"012320","13:52:32","46652458","337513661","5.0.14.0","1","2","end_of_study_questions_ufirst","influence_general","0","0","0","0","about half","1","7334"
"012320","13:52:32","46652458","337513661","5.0.14.0","1","3","end_of_study_questions_ufirst","unintentionality","0","0","0","0","less than half","1","6073"
"012320","13:52:32","46652458","337513661","5.0.14.0","1","4","end_of_study_questions_ufirst","intentionality","0","0","0","0","none","1","8203"
"012320","13:52:32","46652458","337513661","5.0.14.0","1","5","end_of_study_questions_ufirst","self_exclusion_1","0","0","0","0","Yes, use my data","1","18479"
"012320","13:52:32","46652458","337513661","5.0.14.0","1","5","end_of_study_questions_ufirst","self_exclusion_1other","0","0","0","0","","1","18479"
"012320","07:52:01","197947255","873644651","5.0.14.0","1","1","end_of_study_questions_ufirst","awareness","0","0","0","0","all","1","24227"
"012320","07:52:01","197947255","873644651","5.0.14.0","1","2","end_of_study_questions_ufirst","influence_general","0","0","0","0","more than half","1","14654"
"012320","07:52:01","197947255","873644651","5.0.14.0","1","3","end_of_study_questions_ufirst","unintentionality","0","0","0","0","more than half","1","16684"
"012320","07:52:01","197947255","873644651","5.0.14.0","1","4","end_of_study_questions_ufirst","intentionality","0","0","0","0","a few","1","12886"
"012320","07:52:01","197947255","873644651","5.0.14.0","1","5","end_of_study_questions_ufirst","self_exclusion_1","0","0","0","0","Yes, use my data","1","16246"
"012320","07:52:01","197947255","873644651","5.0.14.0","1","5","end_of_study_questions_ufirst","self_exclusion_1other","0","0","0","0","","1","16246"
"012320","08:53:04","197655622","404662778","5.0.14.0","1","1","end_of_study_questions_ifirst","awareness","0","0","0","0","all","1","20676"
"012320","08:53:04","197655622","404662778","5.0.14.0","1","2","end_of_study_questions_ifirst","influence_general","0","0","0","0","less than half","1","10701"
"012320","08:53:04","197655622","404662778","5.0.14.0","1","3","end_of_study_questions_ifirst","intentionality","0","0","0","0","none","1","9498"
"012320","08:53:04","197655622","404662778","5.0.14.0","1","4","end_of_study_questions_ifirst","unintentionality","0","0","0","0","a few","1","6556"
"012320","08:53:04","197655622","404662778","5.0.14.0","1","5","end_of_study_questions_ifirst","self_exclusion_1","0","0","0","0","Yes, use my data","1","5858"
"012320","08:53:04","197655622","404662778","5.0.14.0","1","5","end_of_study_questions_ifirst","self_exclusion_1other","0","0","0","0","","1","5858"
"012320","13:51:56","830622320","633068216","5.0.14.0","1","1","end_of_study_questions_ifirst","awareness","0","0","0","0","none","1","17232"
"012320","13:51:56","830622320","633068216","5.0.14.0","1","2","end_of_study_questions_ifirst","influence_general","0","0","0","0","none","1","5988"
"012320","13:51:56","830622320","633068216","5.0.14.0","1","3","end_of_study_questions_ifirst","intentionality","0","0","0","0","none","1","10980"
"012320","13:51:56","830622320","633068216","5.0.14.0","1","4","end_of_study_questions_ifirst","unintentionality","0","0","0","0","none","1","7469"
"012320","13:51:56","830622320","633068216","5.0.14.0","1","5","end_of_study_questions_ifirst","self_exclusion_1","0","0","0","0","Yes, use my data","1","20469"
"012320","13:51:56","830622320","633068216","5.0.14.0","1","5","end_of_study_questions_ifirst","self_exclusion_1other","0","0","0","0","","1","20469"
"012320","08:52:56","770130563","241082593","5.0.15.0","1","1","end_of_study_questions_ufirst","awareness","0","0","0","0","about half","1","32630"
"012320","08:52:56","770130563","241082593","5.0.15.0","1","2","end_of_study_questions_ufirst","influence_general","0","0","0","0","more than half","1","8533"
"012320","08:52:56","770130563","241082593","5.0.15.0","1","3","end_of_study_questions_ufirst","unintentionality","0","0","0","0","less than half","1","12232"
"012320","08:52:56","770130563","241082593","5.0.15.0","1","4","end_of_study_questions_ufirst","intentionality","0","0","0","0","all","1","13168"
"012320","08:52:56","770130563","241082593","5.0.15.0","1","5","end_of_study_questions_ufirst","self_exclusion_1","0","0","0","0","Yes, use my data","1","8671"
"012320","08:52:56","770130563","241082593","5.0.15.0","1","5","end_of_study_questions_ufirst","self_exclusion_1other","0","0","0","0","","1","8671"
"012320","13:56:54","825653551","31170097","5.0.14.0","1","1","end_of_study_questions_ufirst","awareness","0","0","0","0","all","1","46395"
"012320","13:56:54","825653551","31170097","5.0.14.0","1","2","end_of_study_questions_ufirst","influence_general","0","0","0","0","a few","1","11616"
"012320","13:56:54","825653551","31170097","5.0.14.0","1","3","end_of_study_questions_ufirst","unintentionality","0","0","0","0","a few","1","13514"
"012320","13:56:54","825653551","31170097","5.0.14.0","1","4","end_of_study_questions_ufirst","intentionality","0","0","0","0","none","1","12948"
"012320","13:56:54","825653551","31170097","5.0.14.0","1","5","end_of_study_questions_ufirst","self_exclusion_1","0","0","0","0","Yes, use my data","1","14365"
"012320","13:56:54","825653551","31170097","5.0.14.0","1","5","end_of_study_questions_ufirst","self_exclusion_1other","0","0","0","0","","1","14365"
"012320","08:57:05","30029814","6080319","5.0.14.0","1","1","end_of_study_questions_ufirst","awareness","0","0","0","0","all","1","20534"
"012320","08:57:05","30029814","6080319","5.0.14.0","1","2","end_of_study_questions_ufirst","influence_general","0","0","0","0","less than half","1","9859"
"012320","08:57:05","30029814","6080319","5.0.14.0","1","3","end_of_study_questions_ufirst","unintentionality","0","0","0","0","none","1","17669"
"012320","08:57:05","30029814","6080319","5.0.14.0","1","4","end_of_study_questions_ufirst","intentionality","0","0","0","0","a few","1","10759"
"012320","08:57:05","30029814","6080319","5.0.14.0","1","5","end_of_study_questions_ufirst","self_exclusion_1","0","0","0","0","Yes, use my data","1","18457"
"012320","08:57:05","30029814","6080319","5.0.14.0","1","5","end_of_study_questions_ufirst","self_exclusion_1other","0","0","0","0","","1","18457"
"012320","13:56:43","351966937","842998902","5.0.14.0","1","1","end_of_study_questions_ifirst","awareness","0","0","0","0","all","1","12844"
"012320","13:56:43","351966937","842998902","5.0.14.0","1","2","end_of_study_questions_ifirst","influence_general","0","0","0","0","most","1","6080"
"012320","13:56:43","351966937","842998902","5.0.14.0","1","3","end_of_study_questions_ifirst","intentionality","0","0","0","0","a few","1","10102"
"012320","13:56:43","351966937","842998902","5.0.14.0","1","4","end_of_study_questions_ifirst","unintentionality","0","0","0","0","more than half","1","84315"
"012320","13:56:43","351966937","842998902","5.0.14.0","1","5","end_of_study_questions_ifirst","self_exclusion_1","0","0","0","0","Yes, use my data","1","12271"
"012320","13:56:43","351966937","842998902","5.0.14.0","1","5","end_of_study_questions_ifirst","self_exclusion_1other","0","0","0","0","","1","12271"
"012320","13:55:18","150786166","204268642","5.0.14.0","1","1","end_of_study_questions_ifirst","awareness","0","0","0","0","all","1","24560"
"012320","13:55:18","150786166","204268642","5.0.14.0","1","2","end_of_study_questions_ifirst","influence_general","0","0","0","0","a few","1","9304"
"012320","13:55:18","150786166","204268642","5.0.14.0","1","3","end_of_study_questions_ifirst","intentionality","0","0","0","0","none","1","12778"
"012320","13:55:18","150786166","204268642","5.0.14.0","1","4","end_of_study_questions_ifirst","unintentionality","0","0","0","0","a few","1","15130"
"012320","13:55:18","150786166","204268642","5.0.14.0","1","5","end_of_study_questions_ifirst","self_exclusion_1","0","0","0","0","No, exclude my data (please specify why):","1","162477"
"012320","13:55:18","150786166","204268642","5.0.14.0","1","5","end_of_study_questions_ifirst","self_exclusion_1other","0","0","0","0","There weren't any distractions and I focused purely on the task, but I do have a weird feeling about shapes. There are some shapes which I like, and others which I don't and I tend to feel rather strongly about that. Having said that though, I don't know if this is how people normally feel about shapes so I may not really stand out. I think I could still have subconciously been influenced by the pictures, but I know that there were some shapes which I was going to respond to regardless of whether it was a positive or negative image in front of it.","1","162477"
"012320","13:57:57","334095548","751390472","5.0.14.0","1","1","end_of_study_questions_ifirst","awareness","0","0","0","0","all","1","21872"
"012320","13:57:57","334095548","751390472","5.0.14.0","1","2","end_of_study_questions_ifirst","influence_general","0","0","0","0","a few","1","8322"
"012320","13:57:57","334095548","751390472","5.0.14.0","1","3","end_of_study_questions_ifirst","intentionality","0","0","0","0","none","1","12275"
"012320","13:57:57","334095548","751390472","5.0.14.0","1","4","end_of_study_questions_ifirst","unintentionality","0","0","0","0","a few","1","7960"
"012320","13:57:57","334095548","751390472","5.0.14.0","1","5","end_of_study_questions_ifirst","self_exclusion_1","0","0","0","0","Yes, use my data","1","19906"
"012320","13:57:57","334095548","751390472","5.0.14.0","1","5","end_of_study_questions_ifirst","self_exclusion_1other","0","0","0","0","","1","19906"
"012320","13:57:47","206586013","549554979","5.0.14.0","1","1","end_of_study_questions_ufirst","awareness","0","0","0","0","all","1","22360"
"012320","13:57:47","206586013","549554979","5.0.14.0","1","2","end_of_study_questions_ufirst","influence_general","0","0","0","0","more than half","1","18149"
"012320","13:57:47","206586013","549554979","5.0.14.0","1","3","end_of_study_questions_ufirst","unintentionality","0","0","0","0","about half","1","20950"
"012320","13:57:47","206586013","549554979","5.0.14.0","1","4","end_of_study_questions_ufirst","intentionality","0","0","0","0","a few","1","13241"
"012320","13:57:47","206586013","549554979","5.0.14.0","1","5","end_of_study_questions_ufirst","self_exclusion_1","0","0","0","0","Yes, use my data","1","37059"
"012320","13:57:47","206586013","549554979","5.0.14.0","1","5","end_of_study_questions_ufirst","self_exclusion_1other","0","0","0","0","","1","37059"
"012320","08:59:42","366671882","494480318","5.0.14.0","1","1","end_of_study_questions_ifirst","awareness","0","0","0","0","about half","1","9463"
"012320","08:59:42","366671882","494480318","5.0.14.0","1","2","end_of_study_questions_ifirst","influence_general","0","0","0","0","none","1","5613"
"012320","08:59:42","366671882","494480318","5.0.14.0","1","3","end_of_study_questions_ifirst","intentionality","0","0","0","0","none","1","5382"
"012320","08:59:42","366671882","494480318","5.0.14.0","1","4","end_of_study_questions_ifirst","unintentionality","0","0","0","0","none","1","6971"
"012320","08:59:42","366671882","494480318","5.0.14.0","1","5","end_of_study_questions_ifirst","self_exclusion_1","0","0","0","0","Yes, use my data","1","6301"
"012320","08:59:42","366671882","494480318","5.0.14.0","1","5","end_of_study_questions_ifirst","self_exclusion_1other","0","0","0","0","","1","6301"
"012320","13:58:25","103371520","899686086","5.0.14.0","1","1","end_of_study_questions_ifirst","awareness","0","0","0","0","more than half","1","23800"
"012320","13:58:25","103371520","899686086","5.0.14.0","1","2","end_of_study_questions_ifirst","influence_general","0","0","0","0","more than half","1","8132"
"012320","13:58:25","103371520","899686086","5.0.14.0","1","3","end_of_study_questions_ifirst","intentionality","0","0","0","0","less than half","1","12391"
"012320","13:58:25","103371520","899686086","5.0.14.0","1","4","end_of_study_questions_ifirst","unintentionality","0","0","0","0","about half","1","16246"
"012320","13:58:25","103371520","899686086","5.0.14.0","1","5","end_of_study_questions_ifirst","self_exclusion_1","0","0","0","0","No, exclude my data (please specify why):","1","72235"
"012320","13:58:25","103371520","899686086","5.0.14.0","1","5","end_of_study_questions_ifirst","self_exclusion_1other","0","0","0","0","The images appeared and disapeared very rapidly - didnt really get much of a cnance to see the characters completely a lot of te time ","1","72235"
"012320","09:00:24","511268121","875800345","5.0.14.0","1","1","end_of_study_questions_ufirst","awareness","0","0","0","0","all","1","21719"
"012320","09:00:24","511268121","875800345","5.0.14.0","1","2","end_of_study_questions_ufirst","influence_general","0","0","0","0","a few","1","9349"
"012320","09:00:24","511268121","875800345","5.0.14.0","1","3","end_of_study_questions_ufirst","unintentionality","0","0","0","0","a few","1","7072"
"012320","09:00:24","511268121","875800345","5.0.14.0","1","4","end_of_study_questions_ufirst","intentionality","0","0","0","0","a few","1","6380"
"012320","09:00:24","511268121","875800345","5.0.14.0","1","5","end_of_study_questions_ufirst","self_exclusion_1","0","0","0","0","Yes, use my data","1","11957"
"012320","09:00:24","511268121","875800345","5.0.14.0","1","5","end_of_study_questions_ufirst","self_exclusion_1other","0","0","0","0","","1","11957"
"012320","14:01:08","891970807","3983155","5.0.14.0","1","1","end_of_study_questions_ufirst","awareness","0","0","0","0","all","1","16538"
"012320","14:01:08","891970807","3983155","5.0.14.0","1","2","end_of_study_questions_ufirst","influence_general","0","0","0","0","most","1","5333"
"012320","14:01:08","891970807","3983155","5.0.14.0","1","3","end_of_study_questions_ufirst","unintentionality","0","0","0","0","less than half","1","6149"
"012320","14:01:08","891970807","3983155","5.0.14.0","1","4","end_of_study_questions_ufirst","intentionality","0","0","0","0","about half","1","6960"
"012320","14:01:08","891970807","3983155","5.0.14.0","1","5","end_of_study_questions_ufirst","self_exclusion_1","0","0","0","0","Yes, use my data","1","5643"
"012320","14:01:08","891970807","3983155","5.0.14.0","1","5","end_of_study_questions_ufirst","self_exclusion_1other","0","0","0","0","","1","5643"
"012320","14:58:28","317776857","836843570","5.0.14.0","1","1","end_of_study_questions_ifirst","awareness","0","0","0","0","more than half","1","22304"
"012320","14:58:28","317776857","836843570","5.0.14.0","1","2","end_of_study_questions_ifirst","influence_general","0","0","0","0","none","1","25052"
"012320","14:58:28","317776857","836843570","5.0.14.0","1","3","end_of_study_questions_ifirst","intentionality","0","0","0","0","none","1","15152"
"012320","14:58:28","317776857","836843570","5.0.14.0","1","4","end_of_study_questions_ifirst","unintentionality","0","0","0","0","less than half","1","143220"
"012320","14:58:28","317776857","836843570","5.0.14.0","1","5","end_of_study_questions_ifirst","self_exclusion_1","0","0","0","0","Yes, use my data","1","40361"
"012320","14:58:28","317776857","836843570","5.0.14.0","1","5","end_of_study_questions_ifirst","self_exclusion_1other","0","0","0","0","","1","40361"
"012320","14:02:10","385536854","161771481","5.0.14.0","1","1","end_of_study_questions_ufirst","awareness","0","0","0","0","most","1","27022"
"012320","14:02:10","385536854","161771481","5.0.14.0","1","2","end_of_study_questions_ufirst","influence_general","0","0","0","0","less than half","1","11916"
