"date","time","subject","blockcode","blocknum","trialcode","trialnum","values.primestim","values.targetstim","correct","latency","trial.prime_positive.totalpercentcorrect","trial.prime_negative.totalpercentcorrect"
"012320","13:02:23","314831908","practice","1","prime_positive_practice","4","0","0","0","530","0","0"
"012320","13:02:23","314831908","practice","1","prime_positive_practice","5","0","0","0","0","0","0"
"012320","13:02:23","314831908","test","2","prime_positive","2","11","51","0","367","0","0"
"012320","13:02:23","314831908","test","2","prime_negative","3","9","69","1","303","0","100"
"012320","13:02:23","314831908","test","2","prime_positive","4","1","71","1","464","50","100"
"012320","12:16:23","163889718","practice","1","prime_negative_practice","4","0","0","0","4550","0","0"
"012320","12:16:23","163889718","practice","1","prime_positive_practice","5","0","0","0","2084","0","0"
"012320","12:16:23","163889718","practice","1","prime_negative_practice","6","0","0","1","3752","0","0"
"012320","12:16:23","163889718","practice","1","prime_negative_practice","7","0","0","0","1586","0","0"
"012320","12:16:23","163889718","practice","1","prime_negative_practice","8","0","0","0","1950","0","0"
"012320","12:16:23","163889718","practice","1","prime_positive_practice","9","0","0","0","3897","0","0"
"012320","12:16:23","163889718","practice","1","prime_positive_practice","10","0","0","1","2148","0","0"
"012320","12:16:23","163889718","practice","1","prime_negative_practice","11","0","0","1","1319","0","0"
"012320","12:16:23","163889718","practice","1","prime_positive_practice","12","0","0","0","3284","0","0"
"012320","12:16:23","163889718","practice","1","prime_positive_practice","13","0","0","0","2232","0","0"
"012320","12:16:23","163889718","test","2","prime_positive","2","4","6","1","4039","100","0"
"012320","12:16:23","163889718","test","2","prime_positive","3","11","31","1","3149","100","0"
"012320","12:16:23","163889718","test","2","prime_positive","4","2","67","0","1931","66","0"
"012320","12:16:23","163889718","test","2","prime_negative","5","3","37","1","1224","66","100"
"012320","12:16:23","163889718","test","2","prime_positive","6","10","12","1","992","75","100"
"012320","12:16:23","163889718","test","2","prime_negative","7","9","55","1","793","75","100"
"012320","12:16:23","163889718","test","2","prime_positive","8","6","29","0","1666","60","100"
"012320","12:16:23","163889718","test","2","prime_positive","9","12","7","1","1085","66","100"
"012320","12:16:23","163889718","test","2","prime_negative","10","10","32","1","895","66","100"
"012320","12:16:23","163889718","test","2","prime_positive","11","9","71","1","1025","71","100"
"012320","12:16:23","163889718","test","2","prime_positive","12","7","69","0","1505","62","100"
"012320","12:16:23","163889718","test","2","prime_positive","13","2","51","0","2046","55","100"
"012320","12:16:23","163889718","test","2","prime_positive","14","1","35","0","1332","50","100"
"012320","12:16:23","163889718","test","2","prime_negative","15","1","53","1","699","50","100"
"012320","12:16:23","163889718","test","2","prime_negative","16","7","30","1","1174","50","100"
"012320","12:16:23","163889718","test","2","prime_positive","17","6","23","0","1796","45","100"
"012320","12:16:23","163889718","test","2","prime_positive","18","12","33","1","741","50","100"
"012320","12:16:23","163889718","test","2","prime_negative","19","5","3","1","1630","50","100"
"012320","12:16:23","163889718","test","2","prime_negative","20","4","26","1","1598","50","100"
"012320","12:16:23","163889718","test","2","prime_negative","21","5","40","1","841","50","100"
"012320","12:16:23","163889718","test","2","prime_negative","22","9","59","1","884","50","100"
"012320","12:16:23","163889718","test","2","prime_negative","23","10","48","1","1331","50","100"
"012320","12:16:23","163889718","test","2","prime_negative","24","11","70","1","1297","50","100"
"012320","12:16:23","163889718","test","2","prime_positive","25","4","58","1","740","53","100"
"012320","12:16:23","163889718","test","2","prime_positive","26","8","38","1","1270","57","100"
"012320","12:16:23","163889718","test","2","prime_positive","27","11","1","0","1135","53","100"
"012320","12:16:23","163889718","test","2","prime_negative","28","3","72","1","982","53","100"
"012320","12:16:23","163889718","test","2","prime_negative","29","1","27","1","684","53","100"
"012320","12:16:23","163889718","test","2","prime_positive","30","3","57","1","2749","56","100"
"012320","12:16:23","163889718","test","2","prime_negative","31","7","36","1","750","56","100"
"012320","12:16:23","163889718","test","2","prime_positive","32","10","19","1","1925","58","100"
"012320","12:16:23","163889718","test","2","prime_negative","33","2","41","1","809","58","100"
"012320","12:16:23","163889718","test","2","prime_positive","34","5","20","1","1174","61","100"
"012320","12:16:23","163889718","test","2","prime_positive","35","9","25","1","1442","63","100"
"012320","12:16:23","163889718","test","2","prime_positive","36","6","28","0","1996","60","100"
"012320","12:16:23","163889718","test","2","prime_negative","37","4","8","1","667","60","100"
"012320","12:16:23","163889718","test","2","prime_negative","38","8","62","1","629","60","100"
"012320","12:16:23","163889718","test","2","prime_negative","39","6","5","1","1016","60","100"
"012320","12:16:23","163889718","test","2","prime_negative","40","12","24","1","1058","60","100"
"012320","12:16:23","163889718","test","2","prime_positive","41","8","44","1","925","61","100"
"012320","12:16:23","163889718","test","2","prime_positive","42","2","60","0","1766","59","100"
"012320","12:16:23","163889718","test","2","prime_negative","43","6","46","1","748","59","100"
"012320","12:16:23","163889718","test","2","prime_positive","44","1","34","1","749","60","100"
"012320","12:16:23","163889718","test","2","prime_negative","45","2","49","1","733","60","100"
"012320","12:16:23","163889718","test","2","prime_negative","46","3","47","1","826","60","100"
"012320","12:16:23","163889718","test","2","prime_positive","47","3","43","1","1050","62","100"
"012320","12:16:23","163889718","test","2","prime_negative","48","11","22","1","1043","62","100"
"012320","12:16:23","163889718","test","2","prime_positive","49","4","18","1","2763","64","100"
"012320","12:16:23","163889718","test","2","prime_positive","50","5","15","0","990","61","100"
"012320","12:16:23","163889718","test","2","prime_negative","51","7","64","1","708","61","100"
"012320","12:16:23","163889718","test","2","prime_positive","52","11","45","0","1664","59","100"
"012320","12:16:23","163889718","test","2","prime_positive","53","9","66","1","791","60","100"
"012320","12:16:23","163889718","test","2","prime_positive","54","7","63","0","1617","58","100"
"012320","12:16:23","163889718","test","2","prime_positive","55","10","11","1","1027","60","100"
"012320","12:16:23","163889718","test","2","prime_negative","56","10","54","1","715","60","100"
"012320","12:16:23","163889718","test","2","prime_positive","57","12","17","0","1252","58","100"
"012320","12:16:23","163889718","test","2","prime_negative","58","9","13","1","1550","58","100"
"012320","12:16:23","163889718","test","2","prime_positive","59","4","14","1","1202","59","100"
"012320","12:16:23","163889718","test","2","prime_negative","60","12","39","1","839","59","100"
"012320","12:16:23","163889718","test","2","prime_negative","61","8","52","1","1767","59","100"
"012320","12:16:23","163889718","test","2","prime_negative","62","1","61","1","1265","59","100"
"012320","12:16:23","163889718","test","2","prime_positive","63","2","21","0","907","57","100"
"012320","12:16:23","163889718","test","2","prime_positive","64","1","20","1","851","58","100"
"012320","12:16:23","163889718","test","2","prime_negative","65","4","67","1","834","58","100"
"012320","12:16:23","163889718","test","2","prime_negative","66","5","22","1","2410","58","100"
"012320","12:16:23","163889718","test","2","prime_positive","67","6","72","0","2462","57","100"
"012320","12:16:23","163889718","test","2","prime_negative","68","7","10","1","616","57","100"
"012320","12:16:23","163889718","test","2","prime_positive","69","5","63","0","1024","55","100"
"012320","12:16:23","163889718","test","2","prime_negative","70","1","2","1","2799","55","100"
"012320","12:16:23","163889718","test","2","prime_negative","71","8","32","1","707","55","100"
"012320","12:16:23","163889718","test","2","prime_negative","72","12","71","0","1025","55","97"
"012320","12:16:23","163889718","test","2","prime_negative","73","11","64","1","961","55","97"
"012320","12:23:41","180926818","practice","1","prime_positive_practice","4","0","0","1","18207","0","0"
"012320","12:23:41","180926818","practice","1","prime_negative_practice","5","0","0","0","5417","0","0"
"012320","12:23:41","180926818","practice","1","prime_negative_practice","6","0","0","1","6261","0","0"
"012320","12:23:41","180926818","practice","1","prime_positive_practice","7","0","0","1","3736","0","0"
"012320","12:23:41","180926818","practice","1","prime_positive_practice","8","0","0","1","1453","0","0"
"012320","12:23:41","180926818","practice","1","prime_positive_practice","9","0","0","1","876","0","0"
"012320","12:23:41","180926818","practice","1","prime_negative_practice","10","0","0","0","12851","0","0"
"012320","12:23:41","180926818","practice","1","prime_negative_practice","11","0","0","1","2661","0","0"
"012320","12:23:41","180926818","practice","1","prime_positive_practice","12","0","0","1","2452","0","0"
"012320","12:23:41","180926818","practice","1","prime_negative_practice","13","0","0","1","471","0","0"
"012320","12:23:41","180926818","test","2","prime_negative","2","11","21","1","5384","0","100"
"012320","12:23:41","180926818","test","2","prime_negative","3","7","53","1","918","0","100"
"012320","12:23:41","180926818","test","2","prime_positive","4","11","32","1","613","100","100"
"012320","12:23:41","180926818","test","2","prime_positive","5","2","23","1","1783","100","100"
"012320","12:23:41","180926818","test","2","prime_positive","6","1","60","1","437","100","100"
"012320","12:23:41","180926818","test","2","prime_positive","7","12","30","1","1145","100","100"
"012320","12:23:41","180926818","test","2","prime_positive","8","4","42","1","1324","100","100"
"012320","12:23:41","180926818","test","2","prime_negative","9","3","64","1","3992","100","100"
"012320","12:23:41","180926818","test","2","prime_negative","10","6","18","0","1669","100","75"
"012320","12:23:41","180926818","test","2","prime_positive","11","6","47","1","377","100","75"
"012320","12:23:41","180926818","test","2","prime_negative","12","9","36","0","949","100","60"
"012320","12:23:41","180926818","test","2","prime_positive","13","5","10","1","895","100","60"
"012320","12:23:41","180926818","test","2","prime_positive","14","12","40","1","824","100","60"
"012320","12:23:41","180926818","test","2","prime_negative","15","2","9","1","1747","100","66"
"012320","12:23:41","180926818","test","2","prime_negative","16","10","4","1","720","100","71"
"012320","12:23:41","180926818","test","2","prime_negative","17","12","65","0","11192","100","62"
"012320","12:23:41","180926818","test","2","prime_negative","18","10","29","1","2630","100","66"
"012320","12:23:41","180926818","test","2","prime_positive","19","2","12","0","1093","88","66"
"012320","12:23:41","180926818","test","2","prime_positive","20","9","59","1","2409","90","66"
"012320","12:23:41","180926818","test","2","prime_positive","21","7","11","0","2003","81","66"
"012320","12:23:41","180926818","test","2","prime_positive","22","4","19","0","1428","75","66"
"012320","12:23:41","180926818","test","2","prime_negative","23","5","26","0","1059","75","60"
"012320","12:23:41","180926818","test","2","prime_positive","24","8","1","0","754","69","60"
"012320","12:23:41","180926818","test","2","prime_positive","25","1","54","0","2055","64","60"
"012320","12:23:41","180926818","test","2","prime_negative","26","9","28","1","1841","64","63"
"012320","12:23:41","180926818","test","2","prime_negative","27","8","43","1","616","64","66"
"012320","12:23:41","180926818","test","2","prime_positive","28","10","34","0","4345","60","66"
"012320","12:23:41","180926818","test","2","prime_negative","29","2","69","1","1771","60","69"
"012320","12:23:41","180926818","test","2","prime_negative","30","7","15","0","1152","60","64"
"012320","12:23:41","180926818","test","2","prime_positive","31","5","35","0","961","56","64"
"012320","12:23:41","180926818","test","2","prime_positive","32","11","3","0","840","52","64"
"012320","12:23:41","180926818","test","2","prime_positive","33","3","8","0","1309","50","64"
"012320","12:23:41","180926818","test","2","prime_positive","34","6","25","0","827","47","64"
"012320","12:23:41","180926818","test","2","prime_positive","35","12","5","0","920","45","64"
"012320","12:23:41","180926818","test","2","prime_positive","36","2","39","0","1245","42","64"
"012320","12:23:41","180926818","test","2","prime_negative","37","11","61","1","1528","42","66"
"012320","12:23:41","180926818","test","2","prime_positive","38","10","56","0","1638","40","66"
"012320","12:23:41","180926818","test","2","prime_negative","39","6","49","1","2054","40","68"
"012320","12:23:41","180926818","test","2","prime_negative","40","1","62","1","1947","40","70"
"012320","12:23:41","180926818","test","2","prime_negative","41","4","22","0","5114","40","66"
"012320","12:23:41","180926818","test","2","prime_positive","42","8","16","0","1365","39","66"
"012320","12:23:41","180926818","test","2","prime_positive","43","1","2","0","344","37","66"
"012320","12:23:41","180926818","test","2","prime_negative","44","3","67","1","1477","37","68"
"012320","12:23:41","180926818","test","2","prime_negative","45","10","51","1","2613","37","70"
"012320","12:23:41","180926818","test","2","prime_positive","46","6","46","0","1075","36","70"
"012320","12:23:41","180926818","test","2","prime_positive","47","5","24","0","2183","34","70"
"012320","12:23:41","180926818","test","2","prime_negative","48","6","71","0","995","34","66"
"012320","12:23:41","180926818","test","2","prime_negative","49","9","50","1","3246","34","68"
"012320","12:23:41","180926818","test","2","prime_negative","50","2","27","1","4115","34","69"
"012320","12:23:41","180926818","test","2","prime_negative","51","1","41","1","4102","34","70"
"012320","12:23:41","180926818","test","2","prime_negative","52","3","68","1","2270","34","72"
"012320","12:23:41","180926818","test","2","prime_positive","53","7","14","0","1185","33","72"
"012320","12:23:41","180926818","test","2","prime_negative","54","4","20","0","1508","33","69"
"012320","12:23:41","180926818","test","2","prime_positive","55","4","72","1","4115","35","69"
"012320","12:23:41","180926818","test","2","prime_negative","56","7","37","0","1784","35","66"
"012320","12:23:41","180926818","test","2","prime_negative","57","12","70","1","2456","35","67"
"012320","12:23:41","180926818","test","2","prime_positive","58","9","52","0","2203","34","67"
"012320","12:23:41","180926818","test","2","prime_negative","59","5","17","1","3204","34","68"
"012320","12:23:41","180926818","test","2","prime_positive","60","11","44","1","2079","36","68"
"012320","12:23:41","180926818","test","2","prime_positive","61","3","13","1","1738","38","68"
"012320","12:23:41","180926818","test","2","prime_negative","62","8","58","1","794","38","70"
"012320","12:23:41","180926818","test","2","prime_negative","63","11","57","1","1420","38","70"
"012320","12:23:41","180926818","test","2","prime_positive","64","7","55","0","1279","37","70"
"012320","12:23:41","180926818","test","2","prime_positive","65","9","45","0","1838","36","70"
"012320","12:23:41","180926818","test","2","prime_negative","66","9","20","1","1367","36","71"
"012320","12:23:41","180926818","test","2","prime_positive","67","10","6","0","2132","35","71"
"012320","12:23:41","180926818","test","2","prime_positive","68","8","65","0","1799","34","71"
"012320","12:23:41","180926818","test","2","prime_negative","69","10","30","1","1894","34","72"
"012320","12:23:41","180926818","test","2","prime_positive","70","1","58","0","1289","33","72"
"012320","12:23:41","180926818","test","2","prime_negative","71","8","49","0","4457","33","70"
"012320","12:23:41","180926818","test","2","prime_negative","72","3","5","1","7949","33","71"
"012320","12:23:41","180926818","test","2","prime_negative","73","7","68","0","2386","33","69"
"012320","12:29:37","848717023","practice","1","prime_positive_practice","4","0","0","1","1482","0","0"
"012320","12:29:37","848717023","practice","1","prime_positive_practice","5","0","0","0","818","0","0"
"012320","12:29:37","848717023","practice","1","prime_negative_practice","6","0","0","1","805","0","0"
"012320","12:29:37","848717023","practice","1","prime_negative_practice","7","0","0","1","724","0","0"
"012320","12:29:37","848717023","practice","1","prime_positive_practice","8","0","0","1","903","0","0"
"012320","12:29:37","848717023","practice","1","prime_positive_practice","9","0","0","1","582","0","0"
"012320","12:29:37","848717023","practice","1","prime_negative_practice","10","0","0","1","696","0","0"
"012320","12:29:37","848717023","practice","1","prime_negative_practice","11","0","0","1","633","0","0"
"012320","12:29:37","848717023","practice","1","prime_positive_practice","12","0","0","0","763","0","0"
"012320","12:29:37","848717023","practice","1","prime_negative_practice","13","0","0","0","657","0","0"
"012320","12:29:37","848717023","test","2","prime_negative","2","4","33","0","756","0","0"
"012320","12:29:37","848717023","test","2","prime_positive","3","12","23","0","808","0","0"
"012320","12:29:37","848717023","test","2","prime_negative","4","8","59","1","709","0","50"
"012320","12:29:37","848717023","test","2","prime_positive","5","3","48","1","550","50","50"
"012320","12:29:37","848717023","test","2","prime_negative","6","5","26","1","553","50","66"
"012320","12:29:37","848717023","test","2","prime_negative","7","7","56","1","548","50","75"
"012320","12:29:37","848717023","test","2","prime_negative","8","1","5","1","554","50","80"
"012320","12:29:37","848717023","test","2","prime_positive","9","8","11","0","1064","33","80"
"012320","12:29:37","848717023","test","2","prime_positive","10","6","46","1","491","50","80"
"012320","12:29:37","848717023","test","2","prime_negative","11","6","38","1","515","50","83"
"012320","12:29:37","848717023","test","2","prime_negative","12","12","31","1","630","50","85"
"012320","12:29:37","848717023","test","2","prime_positive","13","10","6","1","637","60","85"
"012320","12:29:37","848717023","test","2","prime_positive","14","9","1","1","416","66","85"
"012320","12:29:37","848717023","test","2","prime_negative","15","12","47","0","824","66","75"
"012320","12:29:37","848717023","test","2","prime_positive","16","1","34","1","518","71","75"
"012320","12:29:37","848717023","test","2","prime_positive","17","9","35","1","478","75","75"
"012320","12:29:37","848717023","test","2","prime_negative","18","7","3","1","703","75","77"
"012320","12:29:37","848717023","test","2","prime_positive","19","3","70","1","821","77","77"
"012320","12:29:37","848717023","test","2","prime_negative","20","3","66","1","539","77","80"
"012320","12:29:37","848717023","test","2","prime_positive","21","2","2","0","603","70","80"
"012320","12:29:37","848717023","test","2","prime_positive","22","1","62","0","564","63","80"
"012320","12:29:37","848717023","test","2","prime_negative","23","2","20","1","594","63","81"
"012320","12:29:37","848717023","test","2","prime_negative","24","1","53","0","464","63","75"
"012320","12:29:37","848717023","test","2","prime_positive","25","11","45","0","527","58","75"
"012320","12:29:37","848717023","test","2","prime_positive","26","12","72","1","367","61","75"
"012320","12:29:37","848717023","test","2","prime_negative","27","5","29","1","541","61","76"
"012320","12:29:37","848717023","test","2","prime_positive","28","7","63","1","429","64","76"
"012320","12:29:37","848717023","test","2","prime_negative","29","6","22","0","566","64","71"
"012320","12:29:37","848717023","test","2","prime_positive","30","8","16","1","684","66","71"
"012320","12:29:37","848717023","test","2","prime_negative","31","8","71","1","678","66","73"
"012320","12:29:37","848717023","test","2","prime_negative","32","10","24","0","785","66","68"
"012320","12:29:37","848717023","test","2","prime_negative","33","9","64","0","573","66","64"
"012320","12:29:37","848717023","test","2","prime_positive","34","6","10","1","790","68","64"
"012320","12:29:37","848717023","test","2","prime_positive","35","4","50","1","539","70","64"
"012320","12:29:37","848717023","test","2","prime_negative","36","11","17","0","603","70","61"
"012320","12:29:37","848717023","test","2","prime_negative","37","4","68","1","574","70","63"
"012320","12:29:37","848717023","test","2","prime_negative","38","10","12","1","818","70","65"
"012320","12:29:37","848717023","test","2","prime_positive","39","5","67","1","491","72","65"
"012320","12:29:37","848717023","test","2","prime_positive","40","10","28","1","473","73","65"
"012320","12:29:37","848717023","test","2","prime_negative","41","4","37","1","433","73","66"
"012320","12:29:37","848717023","test","2","prime_positive","42","2","39","1","557","75","66"
"012320","12:29:37","848717023","test","2","prime_negative","43","5","57","1","470","75","68"
"012320","12:29:37","848717023","test","2","prime_positive","44","4","60","1","464","76","68"
"012320","12:29:37","848717023","test","2","prime_positive","45","6","36","1","687","77","68"
"012320","12:29:37","848717023","test","2","prime_negative","46","7","8","0","516","77","65"
"012320","12:29:37","848717023","test","2","prime_negative","47","1","58","1","533","77","66"
"012320","12:29:37","848717023","test","2","prime_negative","48","3","55","1","678","77","68"
"012320","12:29:37","848717023","test","2","prime_negative","49","2","14","0","517","77","65"
"012320","12:29:37","848717023","test","2","prime_positive","50","11","41","1","684","78","65"
"012320","12:29:37","848717023","test","2","prime_positive","51","9","25","0","610","75","65"
"012320","12:29:37","848717023","test","2","prime_positive","52","5","4","0","571","72","65"
"012320","12:29:37","848717023","test","2","prime_negative","53","6","19","0","567","72","62"
"012320","12:29:37","848717023","test","2","prime_positive","54","3","54","1","457","73","62"
"012320","12:29:37","848717023","test","2","prime_positive","55","1","65","0","792","70","62"
"012320","12:29:37","848717023","test","2","prime_negative","56","9","43","1","393","70","64"
"012320","12:29:37","848717023","test","2","prime_negative","57","8","49","1","543","70","65"
"012320","12:29:37","848717023","test","2","prime_positive","58","8","18","1","481","71","65"
"012320","12:29:37","848717023","test","2","prime_negative","59","12","7","1","592","71","66"
"012320","12:29:37","848717023","test","2","prime_negative","60","11","27","1","467","71","67"
"012320","12:29:37","848717023","test","2","prime_negative","61","12","30","1","426","71","68"
"012320","12:29:37","848717023","test","2","prime_positive","62","7","51","0","827","68","68"
"012320","12:29:37","848717023","test","2","prime_positive","63","12","21","1","387","70","68"
"012320","12:29:37","848717023","test","2","prime_positive","64","10","22","0","631","67","68"
"012320","12:29:37","848717023","test","2","prime_negative","65","1","49","1","550","67","69"
"012320","12:29:37","848717023","test","2","prime_positive","66","9","72","1","434","68","69"
"012320","12:29:37","848717023","test","2","prime_negative","67","2","19","1","780","68","70"
"012320","12:29:37","848717023","test","2","prime_positive","68","4","54","1","465","69","70"
"012320","12:29:37","848717023","test","2","prime_positive","69","12","64","1","686","70","70"
"012320","12:29:37","848717023","test","2","prime_positive","70","6","51","1","466","71","70"
"012320","12:29:37","848717023","test","2","prime_negative","71","9","26","1","567","71","71"
"012320","12:29:37","848717023","test","2","prime_positive","72","2","21","0","461","69","71"
"012320","12:29:37","848717023","test","2","prime_negative","73","10","48","0","405","69","69"
"012320","12:31:39","614509532","practice","1","prime_positive_practice","4","0","0","1","7942","0","0"
"012320","12:31:39","614509532","practice","1","prime_negative_practice","5","0","0","0","3507","0","0"
"012320","12:31:39","614509532","practice","1","prime_negative_practice","6","0","0","1","4524","0","0"
"012320","12:31:39","614509532","practice","1","prime_negative_practice","7","0","0","0","2682","0","0"
"012320","12:31:39","614509532","practice","1","prime_negative_practice","8","0","0","1","3082","0","0"
"012320","12:31:39","614509532","practice","1","prime_positive_practice","9","0","0","1","3191","0","0"
"012320","12:31:39","614509532","practice","1","prime_positive_practice","10","0","0","1","3347","0","0"
"012320","12:31:39","614509532","practice","1","prime_positive_practice","11","0","0","0","3018","0","0"
"012320","12:31:39","614509532","practice","1","prime_negative_practice","12","0","0","1","2235","0","0"
"012320","12:31:39","614509532","practice","1","prime_positive_practice","13","0","0","1","1326","0","0"
"012320","12:31:39","614509532","test","2","prime_positive","2","5","49","1","1578","100","0"
"012320","12:31:39","614509532","test","2","prime_negative","3","4","39","1","1176","100","100"
"012320","12:31:39","614509532","test","2","prime_negative","4","5","72","1","1454","100","100"
"012320","12:31:39","614509532","test","2","prime_negative","5","10","51","0","969","100","66"
"012320","12:31:39","614509532","test","2","prime_negative","6","8","27","1","1135","100","75"
"012320","12:31:39","614509532","test","2","prime_positive","7","7","18","0","829","50","75"
"012320","12:31:39","614509532","test","2","prime_negative","8","12","56","0","1249","50","60"
"012320","12:31:39","614509532","test","2","prime_negative","9","3","59","0","968","50","50"
"012320","12:31:39","614509532","test","2","prime_negative","10","7","37","0","1348","50","42"
"012320","12:31:39","614509532","test","2","prime_positive","11","3","31","0","1338","33","42"
"012320","12:31:39","614509532","test","2","prime_positive","12","1","55","1","841","50","42"
"012320","12:31:39","614509532","test","2","prime_negative","13","10","69","1","1368","50","50"
"012320","12:31:39","614509532","test","2","prime_negative","14","11","68","1","1156","50","55"
"012320","12:31:39","614509532","test","2","prime_negative","15","2","3","1","1306","50","60"
"012320","12:31:39","614509532","test","2","prime_negative","16","6","11","1","1932","50","63"
"012320","12:31:39","614509532","test","2","prime_positive","17","8","4","0","736","40","63"
"012320","12:31:39","614509532","test","2","prime_negative","18","5","28","0","977","40","58"
"012320","12:31:39","614509532","test","2","prime_negative","19","12","24","1","600","40","61"
"012320","12:31:39","614509532","test","2","prime_positive","20","11","47","0","761","33","61"
"012320","12:31:39","614509532","test","2","prime_negative","21","9","45","0","734","33","57"
"012320","12:31:39","614509532","test","2","prime_negative","22","4","25","1","651","33","60"
"012320","12:31:39","614509532","test","2","prime_negative","23","8","46","1","740","33","62"
"012320","12:31:39","614509532","test","2","prime_negative","24","3","34","0","1174","33","58"
"012320","12:31:39","614509532","test","2","prime_negative","25","7","33","1","726","33","61"
"012320","12:31:39","614509532","test","2","prime_negative","26","1","12","0","938","33","57"
"012320","12:31:39","614509532","test","2","prime_positive","27","2","6","0","924","28","57"
"012320","12:31:39","614509532","test","2","prime_positive","28","7","66","0","915","25","57"
"012320","12:31:39","614509532","test","2","prime_positive","29","9","50","0","676","22","57"
"012320","12:31:39","614509532","test","2","prime_positive","30","5","36","1","1085","30","57"
"012320","12:31:39","614509532","test","2","prime_negative","31","4","58","1","851","30","60"
"012320","12:31:39","614509532","test","2","prime_positive","32","6","52","0","1251","27","60"
"012320","12:31:39","614509532","test","2","prime_negative","33","1","38","1","1691","27","61"
"012320","12:31:39","614509532","test","2","prime_negative","34","2","16","1","795","27","63"
"012320","12:31:39","614509532","test","2","prime_positive","35","8","61","1","703","33","63"
"012320","12:31:39","614509532","test","2","prime_negative","36","10","7","0","842","33","60"
"012320","12:31:39","614509532","test","2","prime_positive","37","3","14","0","693","30","60"
"012320","12:31:39","614509532","test","2","prime_negative","38","11","43","1","738","30","62"
"012320","12:31:39","614509532","test","2","prime_positive","39","4","20","0","672","28","62"
"012320","12:31:39","614509532","test","2","prime_negative","40","6","35","1","598","28","64"
"012320","12:31:39","614509532","test","2","prime_negative","41","5","8","0","711","28","61"
"012320","12:31:39","614509532","test","2","prime_negative","42","12","62","0","852","28","59"
"012320","12:31:39","614509532","test","2","prime_positive","43","10","48","0","678","26","59"
"012320","12:31:39","614509532","test","2","prime_positive","44","11","2","1","565","31","59"
"012320","12:31:39","614509532","test","2","prime_positive","45","12","15","0","799","29","59"
"012320","12:31:39","614509532","test","2","prime_negative","46","3","63","0","909","29","57"
"012320","12:31:39","614509532","test","2","prime_positive","47","1","1","1","1413","33","57"
"012320","12:31:39","614509532","test","2","prime_positive","48","2","40","1","487","36","57"
"012320","12:31:39","614509532","test","2","prime_positive","49","9","71","0","648","35","57"
"012320","12:31:39","614509532","test","2","prime_positive","50","4","65","1","1161","38","57"
"012320","12:31:39","614509532","test","2","prime_positive","51","11","23","1","712","40","57"
"012320","12:31:39","614509532","test","2","prime_negative","52","7","53","0","1233","40","55"
"012320","12:31:39","614509532","test","2","prime_negative","53","9","9","1","1505","40","56"
"012320","12:31:39","614509532","test","2","prime_positive","54","1","19","0","654","39","56"
"012320","12:31:39","614509532","test","2","prime_positive","55","5","29","1","679","41","56"
"012320","12:31:39","614509532","test","2","prime_negative","56","8","21","0","622","41","54"
"012320","12:31:39","614509532","test","2","prime_negative","57","5","26","0","674","41","53"
"012320","12:31:39","614509532","test","2","prime_positive","58","3","10","0","1031","40","53"
"012320","12:31:39","614509532","test","2","prime_negative","59","12","32","0","672","40","51"
"012320","12:31:39","614509532","test","2","prime_positive","60","12","17","1","734","42","51"
"012320","12:31:39","614509532","test","2","prime_negative","61","1","13","0","810","42","50"
"012320","12:31:39","614509532","test","2","prime_positive","62","10","54","0","667","40","50"
"012320","12:31:39","614509532","test","2","prime_positive","63","8","22","1","608","42","50"
"012320","12:31:39","614509532","test","2","prime_negative","64","9","69","0","682","42","48"
"012320","12:31:39","614509532","test","2","prime_positive","65","7","62","0","739","41","48"
"012320","12:31:39","614509532","test","2","prime_positive","66","6","32","0","512","40","48"
"012320","12:31:39","614509532","test","2","prime_negative","67","3","56","0","515","40","47"
"012320","12:31:39","614509532","test","2","prime_positive","68","2","27","1","585","41","47"
"012320","12:31:39","614509532","test","2","prime_positive","69","5","24","1","697","43","47"
"012320","12:31:39","614509532","test","2","prime_positive","70","12","48","0","576","42","47"
"012320","12:31:39","614509532","test","2","prime_positive","71","8","15","0","855","41","47"
"012320","12:31:39","614509532","test","2","prime_positive","72","4","53","0","849","40","47"
"012320","12:31:39","614509532","test","2","prime_positive","73","3","36","1","611","41","47"
"012320","07:36:37","59842540","practice","1","prime_negative_practice","4","0","0","0","3929","0","0"
"012320","07:36:37","59842540","practice","1","prime_negative_practice","5","0","0","0","1075","0","0"
"012320","07:36:37","59842540","practice","1","prime_positive_practice","6","0","0","1","953","0","0"
"012320","07:36:37","59842540","practice","1","prime_negative_practice","7","0","0","0","1547","0","0"
"012320","07:36:37","59842540","practice","1","prime_negative_practice","8","0","0","0","1457","0","0"
"012320","07:36:37","59842540","practice","1","prime_negative_practice","9","0","0","0","645","0","0"
"012320","07:36:37","59842540","practice","1","prime_positive_practice","10","0","0","1","1393","0","0"
"012320","07:36:37","59842540","practice","1","prime_positive_practice","11","0","0","0","1313","0","0"
"012320","07:36:37","59842540","practice","1","prime_positive_practice","12","0","0","1","829","0","0"
"012320","07:36:37","59842540","practice","1","prime_positive_practice","13","0","0","1","1205","0","0"
"012320","07:36:37","59842540","test","2","prime_positive","2","6","20","1","1870","100","0"
"012320","07:36:37","59842540","test","2","prime_negative","3","9","56","1","2033","100","100"
"012320","07:36:37","59842540","test","2","prime_positive","4","9","38","1","737","100","100"
"012320","07:36:37","59842540","test","2","prime_negative","5","6","53","1","885","100","100"
"012320","07:36:37","59842540","test","2","prime_negative","6","8","65","0","1081","100","66"
"012320","07:36:37","59842540","test","2","prime_positive","7","3","61","1","679","100","66"
"012320","07:36:37","59842540","test","2","prime_positive","8","8","5","1","1068","100","66"
"012320","07:36:37","59842540","test","2","prime_negative","9","12","31","0","1160","100","50"
"012320","07:36:37","59842540","test","2","prime_negative","10","4","6","0","607","100","40"
"012320","07:36:37","59842540","test","2","prime_negative","11","2","25","0","995","100","33"
"012320","07:36:37","59842540","test","2","prime_negative","12","11","23","0","638","100","28"
"012320","07:36:37","59842540","test","2","prime_positive","13","5","45","1","820","100","28"
"012320","07:36:37","59842540","test","2","prime_positive","14","2","54","1","1220","100","28"
"012320","07:36:37","59842540","test","2","prime_positive","15","11","13","0","1291","85","28"
"012320","07:36:37","59842540","test","2","prime_positive","16","4","8","0","451","75","28"
"012320","07:36:37","59842540","test","2","prime_positive","17","6","10","0","978","66","28"
"012320","07:36:37","59842540","test","2","prime_negative","18","1","41","0","462","66","25"
"012320","07:36:37","59842540","test","2","prime_negative","19","9","52","0","651","66","22"
"012320","07:36:37","59842540","test","2","prime_positive","20","8","42","1","554","70","22"
"012320","07:36:37","59842540","test","2","prime_negative","21","10","27","0","563","70","20"
"012320","07:36:37","59842540","test","2","prime_negative","22","7","28","0","458","70","18"
"012320","07:36:37","59842540","test","2","prime_negative","23","2","37","0","453","70","16"
"012320","07:36:37","59842540","test","2","prime_positive","24","3","72","1","490","72","16"
"012320","07:36:37","59842540","test","2","prime_positive","25","11","49","1","832","75","16"
"012320","07:36:37","59842540","test","2","prime_positive","26","2","67","1","454","76","16"
"012320","07:36:37","59842540","test","2","prime_negative","27","8","70","0","344","76","15"
"012320","07:36:37","59842540","test","2","prime_positive","28","9","59","1","538","78","15"
"012320","07:36:37","59842540","test","2","prime_negative","29","4","2","0","374","78","14"
"012320","07:36:37","59842540","test","2","prime_negative","30","5","58","0","366","78","13"
"012320","07:36:37","59842540","test","2","prime_positive","31","1","51","1","373","80","13"
"012320","07:36:37","59842540","test","2","prime_negative","32","12","44","0","490","80","12"
"012320","07:36:37","59842540","test","2","prime_positive","33","12","19","1","519","81","12"
"012320","07:36:37","59842540","test","2","prime_positive","34","7","4","1","398","82","12"
"012320","07:36:37","59842540","test","2","prime_positive","35","10","69","1","621","83","12"
"012320","07:36:37","59842540","test","2","prime_negative","36","6","30","1","472","83","17"
"012320","07:36:37","59842540","test","2","prime_positive","37","5","3","1","581","84","17"
"012320","07:36:37","59842540","test","2","prime_positive","38","9","21","1","563","85","17"
"012320","07:36:37","59842540","test","2","prime_negative","39","11","7","1","399","85","22"
"012320","07:36:37","59842540","test","2","prime_negative","40","3","32","0","313","85","21"
"012320","07:36:37","59842540","test","2","prime_negative","41","1","43","0","289","85","20"
"012320","07:36:37","59842540","test","2","prime_positive","42","6","46","1","419","85","20"
"012320","07:36:37","59842540","test","2","prime_negative","43","4","24","0","581","85","19"
"012320","07:36:37","59842540","test","2","prime_positive","44","3","60","1","388","86","19"
"012320","07:36:37","59842540","test","2","prime_positive","45","1","66","1","315","86","19"
"012320","07:36:37","59842540","test","2","prime_positive","46","11","62","1","363","87","19"
"012320","07:36:37","59842540","test","2","prime_negative","47","8","18","0","356","87","18"
"012320","07:36:37","59842540","test","2","prime_positive","48","5","9","1","434","88","18"
"012320","07:36:37","59842540","test","2","prime_negative","49","7","35","0","496","88","17"
"012320","07:36:37","59842540","test","2","prime_negative","50","3","29","0","411","88","16"
"012320","07:36:37","59842540","test","2","prime_negative","51","5","22","0","239","88","16"
"012320","07:36:37","59842540","test","2","prime_positive","52","7","34","1","895","88","16"
"012320","07:36:37","59842540","test","2","prime_negative","53","2","15","0","483","88","15"
"012320","07:36:37","59842540","test","2","prime_negative","54","6","14","0","431","88","14"
"012320","07:36:37","59842540","test","2","prime_negative","55","10","12","0","323","88","14"
"012320","07:36:37","59842540","test","2","prime_positive","56","8","71","1","415","88","14"
"012320","07:36:37","59842540","test","2","prime_positive","57","12","47","1","333","89","14"
"012320","07:36:37","59842540","test","2","prime_positive","58","10","64","1","492","89","14"
"012320","07:36:37","59842540","test","2","prime_positive","59","4","36","0","314","86","14"
"012320","07:36:37","59842540","test","2","prime_negative","60","9","39","0","324","86","13"
"012320","07:36:37","59842540","test","2","prime_negative","61","11","33","0","431","86","13"
"012320","07:36:37","59842540","test","2","prime_negative","62","12","48","0","385","86","12"
"012320","07:36:37","59842540","test","2","prime_negative","63","12","40","0","302","86","12"
"012320","07:36:37","59842540","test","2","prime_negative","64","11","5","1","335","86","15"
"012320","07:36:37","59842540","test","2","prime_positive","65","2","53","1","337","87","15"
"012320","07:36:37","59842540","test","2","prime_negative","66","8","37","0","324","87","14"
"012320","07:36:37","59842540","test","2","prime_negative","67","2","59","0","291","87","14"
"012320","07:36:37","59842540","test","2","prime_negative","68","4","57","0","334","87","13"
"012320","07:36:37","59842540","test","2","prime_positive","69","5","69","1","550","87","13"
"012320","07:36:37","59842540","test","2","prime_positive","70","12","24","1","386","87","13"
"012320","07:36:37","59842540","test","2","prime_positive","71","8","42","1","2708","88","13"
"012320","07:36:37","59842540","test","2","prime_positive","72","6","4","1","496","88","13"
"012320","07:36:37","59842540","test","2","prime_positive","73","9","55","1","307","88","13"
"012320","12:37:30","519776923","practice","1","prime_positive_practice","4","0","0","1","5101","0","0"
"012320","12:37:30","519776923","practice","1","prime_positive_practice","5","0","0","1","2685","0","0"
"012320","12:37:30","519776923","practice","1","prime_positive_practice","6","0","0","0","7308","0","0"
"012320","12:37:30","519776923","practice","1","prime_positive_practice","7","0","0","1","1139","0","0"
"012320","12:37:30","519776923","practice","1","prime_negative_practice","8","0","0","1","1769","0","0"
"012320","12:37:30","519776923","practice","1","prime_positive_practice","9","0","0","0","2313","0","0"
"012320","12:37:30","519776923","practice","1","prime_negative_practice","10","0","0","1","1800","0","0"
"012320","12:37:30","519776923","practice","1","prime_negative_practice","11","0","0","1","2366","0","0"
"012320","12:37:30","519776923","practice","1","prime_negative_practice","12","0","0","0","2824","0","0"
"012320","12:37:30","519776923","practice","1","prime_negative_practice","13","0","0","1","1890","0","0"
"012320","12:37:30","519776923","test","2","prime_positive","2","7","69","1","2213","100","0"
"012320","12:37:30","519776923","test","2","prime_positive","3","5","34","1","1183","100","0"
"012320","12:37:30","519776923","test","2","prime_positive","4","4","57","0","1402","66","0"
"012320","12:37:30","519776923","test","2","prime_negative","5","5","4","0","1323","66","0"
"012320","12:37:30","519776923","test","2","prime_positive","6","11","7","1","783","75","0"
"012320","12:37:30","519776923","test","2","prime_negative","7","4","18","1","950","75","50"
"012320","12:37:30","519776923","test","2","prime_negative","8","8","2","0","1417","75","33"
"012320","12:37:30","519776923","test","2","prime_negative","9","7","5","1","935","75","50"
"012320","12:37:30","519776923","test","2","prime_positive","10","6","55","0","1286","60","50"
"012320","12:37:30","519776923","test","2","prime_positive","11","10","47","1","826","66","50"
"012320","12:37:30","519776923","test","2","prime_negative","12","2","37","1","1252","66","60"
"012320","12:37:30","519776923","test","2","prime_negative","13","12","25","1","944","66","66"
"012320","12:37:30","519776923","test","2","prime_positive","14","1","62","1","974","71","66"
"012320","12:37:30","519776923","test","2","prime_positive","15","1","56","1","1811","75","66"
"012320","12:37:30","519776923","test","2","prime_positive","16","9","41","1","959","77","66"
"012320","12:37:30","519776923","test","2","prime_negative","17","1","15","0","1202","77","57"
"012320","12:37:30","519776923","test","2","prime_positive","18","4","40","1","1097","80","57"
"012320","12:37:30","519776923","test","2","prime_negative","19","3","20","1","1835","80","62"
"012320","12:37:30","519776923","test","2","prime_positive","20","5","6","1","728","81","62"
"012320","12:37:30","519776923","test","2","prime_negative","21","11","26","0","976","81","55"
"012320","12:37:30","519776923","test","2","prime_negative","22","7","48","0","1753","81","50"
"012320","12:37:30","519776923","test","2","prime_negative","23","1","16","1","1131","81","54"
"012320","12:37:30","519776923","test","2","prime_positive","24","12","42","1","2334","83","54"
"012320","12:37:30","519776923","test","2","prime_positive","25","11","28","1","971","84","54"
"012320","12:37:30","519776923","test","2","prime_negative","26","2","10","1","1307","84","58"
"012320","12:37:30","519776923","test","2","prime_negative","27","8","60","0","800","84","53"
"012320","12:37:30","519776923","test","2","prime_negative","28","6","53","0","1202","84","50"
"012320","12:37:30","519776923","test","2","prime_positive","29","3","14","1","650","85","50"
"012320","12:37:30","519776923","test","2","prime_negative","30","4","63","1","757","85","53"
"012320","12:37:30","519776923","test","2","prime_positive","31","10","43","1","656","86","53"
"012320","12:37:30","519776923","test","2","prime_negative","32","5","30","1","1293","86","56"
"012320","12:37:30","519776923","test","2","prime_positive","33","6","17","0","1209","81","56"
"012320","12:37:30","519776923","test","2","prime_positive","34","2","32","1","1592","82","56"
"012320","12:37:30","519776923","test","2","prime_negative","35","10","67","0","974","82","52"
"012320","12:37:30","519776923","test","2","prime_negative","36","9","39","1","748","82","55"
"012320","12:37:30","519776923","test","2","prime_negative","37","12","8","1","783","82","57"
"012320","12:37:30","519776923","test","2","prime_positive","38","7","38","1","848","83","57"
"012320","12:37:30","519776923","test","2","prime_positive","39","8","51","1","768","84","57"
"012320","12:37:30","519776923","test","2","prime_negative","40","5","45","0","1163","84","55"
"012320","12:37:30","519776923","test","2","prime_negative","41","8","54","0","937","84","52"
"012320","12:37:30","519776923","test","2","prime_negative","42","10","52","0","842","84","50"
"012320","12:37:30","519776923","test","2","prime_negative","43","12","19","1","656","84","52"
"012320","12:37:30","519776923","test","2","prime_positive","44","8","9","1","649","85","52"
"012320","12:37:30","519776923","test","2","prime_positive","45","10","13","1","694","85","52"
"012320","12:37:30","519776923","test","2","prime_positive","46","11","21","1","529","86","52"
"012320","12:37:30","519776923","test","2","prime_negative","47","4","49","1","644","86","54"
"012320","12:37:30","519776923","test","2","prime_negative","48","7","68","1","943","86","56"
"012320","12:37:30","519776923","test","2","prime_negative","49","6","3","1","1192","86","57"
"012320","12:37:30","519776923","test","2","prime_positive","50","4","59","1","1163","86","57"
"012320","12:37:30","519776923","test","2","prime_positive","51","9","12","1","654","87","57"
"012320","12:37:30","519776923","test","2","prime_negative","52","1","65","0","591","87","55"
"012320","12:37:30","519776923","test","2","prime_negative","53","2","22","1","1325","87","57"
"012320","12:37:30","519776923","test","2","prime_positive","54","1","24","1","476","88","57"
"012320","12:37:30","519776923","test","2","prime_negative","55","11","46","1","483","88","58"
"012320","12:37:30","519776923","test","2","prime_positive","56","5","33","1","449","88","58"
"012320","12:37:30","519776923","test","2","prime_negative","57","9","70","1","416","88","60"
"012320","12:37:30","519776923","test","2","prime_negative","58","3","29","1","565","88","61"
"012320","12:37:30","519776923","test","2","prime_negative","59","6","50","1","730","88","62"
"012320","12:37:30","519776923","test","2","prime_positive","60","6","58","1","634","88","62"
"012320","12:37:30","519776923","test","2","prime_negative","61","8","64","0","587","88","60"
"012320","12:37:30","519776923","test","2","prime_positive","62","12","11","1","560","89","60"
"012320","12:37:30","519776923","test","2","prime_negative","63","1","72","0","621","89","58"
"012320","12:37:30","519776923","test","2","prime_positive","64","2","2","1","470","89","58"
"012320","12:37:30","519776923","test","2","prime_positive","65","3","15","1","498","90","58"
"012320","12:37:30","519776923","test","2","prime_negative","66","10","65","0","699","90","57"
"012320","12:37:30","519776923","test","2","prime_positive","67","7","20","1","465","90","57"
"012320","12:37:30","519776923","test","2","prime_negative","68","3","55","1","509","90","58"
"012320","12:37:30","519776923","test","2","prime_positive","69","11","45","1","453","90","58"
"012320","12:37:30","519776923","test","2","prime_positive","70","6","41","1","347","90","58"
"012320","12:37:30","519776923","test","2","prime_positive","71","8","57","1","598","91","58"
"012320","12:37:30","519776923","test","2","prime_positive","72","5","66","1","1103","91","58"
"012320","12:37:30","519776923","test","2","prime_positive","73","3","19","1","525","91","58"
"012320","12:36:33","266569838","practice","1","prime_positive_practice","4","0","0","0","5432","0","0"
"012320","12:36:33","266569838","practice","1","prime_negative_practice","5","0","0","0","5805","0","0"
"012320","12:36:33","266569838","practice","1","prime_positive_practice","6","0","0","1","1546","0","0"
"012320","12:36:33","266569838","practice","1","prime_negative_practice","7","0","0","1","1402","0","0"
"012320","12:36:33","266569838","practice","1","prime_positive_practice","8","0","0","1","704","0","0"
"012320","12:36:33","266569838","practice","1","prime_positive_practice","9","0","0","1","1473","0","0"
"012320","12:36:33","266569838","practice","1","prime_negative_practice","10","0","0","1","2180","0","0"
"012320","12:36:33","266569838","practice","1","prime_negative_practice","11","0","0","0","634","0","0"
"012320","12:36:33","266569838","practice","1","prime_positive_practice","12","0","0","1","1903","0","0"
"012320","12:36:33","266569838","practice","1","prime_negative_practice","13","0","0","0","425","0","0"
"012320","12:36:33","266569838","test","2","prime_negative","2","3","27","0","2023","0","0"
"012320","12:36:33","266569838","test","2","prime_positive","3","1","23","1","780","100","0"
"012320","12:36:33","266569838","test","2","prime_negative","4","6","33","0","1754","100","0"
"012320","12:36:33","266569838","test","2","prime_negative","5","8","71","0","682","100","0"
"012320","12:36:33","266569838","test","2","prime_negative","6","9","16","0","636","100","0"
"012320","12:36:33","266569838","test","2","prime_positive","7","4","64","0","601","50","0"
"012320","12:36:33","266569838","test","2","prime_negative","8","10","53","0","759","50","0"
"012320","12:36:33","266569838","test","2","prime_negative","9","11","59","1","830","50","16"
"012320","12:36:33","266569838","test","2","prime_negative","10","12","47","0","675","50","14"
"012320","12:36:33","266569838","test","2","prime_positive","11","3","24","1","709","66","14"
"012320","12:36:33","266569838","test","2","prime_positive","12","10","50","1","567","75","14"
"012320","12:36:33","266569838","test","2","prime_negative","13","11","72","1","1238","75","25"
"012320","12:36:33","266569838","test","2","prime_positive","14","8","21","1","1010","80","25"
"012320","12:36:33","266569838","test","2","prime_positive","15","5","1","1","903","83","25"
"012320","12:36:33","266569838","test","2","prime_negative","16","12","42","0","505","83","22"
"012320","12:36:33","266569838","test","2","prime_positive","17","12","70","1","5090","85","22"
"012320","12:36:33","266569838","test","2","prime_negative","18","7","18","0","493","85","20"
"012320","12:36:33","266569838","test","2","prime_negative","19","2","39","0","448","85","18"
"012320","12:36:33","266569838","test","2","prime_positive","20","1","14","1","491","87","18"
"012320","12:36:33","266569838","test","2","prime_positive","21","2","22","1","509","88","18"
"012320","12:36:33","266569838","test","2","prime_positive","22","10","2","1","408","90","18"
"012320","12:36:33","266569838","test","2","prime_positive","23","12","38","1","1782","90","18"
"012320","12:36:33","266569838","test","2","prime_positive","24","5","54","1","804","91","18"
"012320","12:36:33","266569838","test","2","prime_positive","25","7","52","1","434","92","18"
"012320","12:36:33","266569838","test","2","prime_positive","26","3","37","1","327","92","18"
"012320","12:36:33","266569838","test","2","prime_negative","27","10","61","0","360","92","16"
"012320","12:36:33","266569838","test","2","prime_positive","28","9","15","1","1800","93","16"
"012320","12:36:33","266569838","test","2","prime_negative","29","1","20","0","462","93","15"
"012320","12:36:33","266569838","test","2","prime_positive","30","4","3","1","1042","93","15"
"012320","12:36:33","266569838","test","2","prime_positive","31","11","36","1","575","94","15"
"012320","12:36:33","266569838","test","2","prime_negative","32","4","32","0","1094","94","14"
"012320","12:36:33","266569838","test","2","prime_positive","33","8","44","1","1089","94","14"
"012320","12:36:33","266569838","test","2","prime_positive","34","6","19","1","1331","94","14"
"012320","12:36:33","266569838","test","2","prime_negative","35","9","30","0","1156","94","13"
"012320","12:36:33","266569838","test","2","prime_negative","36","6","26","0","548","94","12"
"012320","12:36:33","266569838","test","2","prime_negative","37","5","66","0","1124","94","11"
"012320","12:36:33","266569838","test","2","prime_negative","38","3","46","0","573","94","11"
"012320","12:36:33","266569838","test","2","prime_negative","39","8","9","0","380","94","10"
"012320","12:36:33","266569838","test","2","prime_negative","40","8","68","0","427","94","10"
"012320","12:36:33","266569838","test","2","prime_negative","41","4","69","0","432","94","9"
"012320","12:36:33","266569838","test","2","prime_positive","42","8","35","1","501","95","9"
"012320","12:36:33","266569838","test","2","prime_positive","43","12","6","1","455","95","9"
"012320","12:36:33","266569838","test","2","prime_positive","44","5","10","1","331","95","9"
"012320","12:36:33","266569838","test","2","prime_negative","45","3","29","0","563","95","9"
"012320","12:36:33","266569838","test","2","prime_positive","46","2","63","1","363","95","9"
"012320","12:36:33","266569838","test","2","prime_positive","47","1","41","1","282","95","9"
"012320","12:36:33","266569838","test","2","prime_negative","48","12","65","0","932","95","8"
"012320","12:36:33","266569838","test","2","prime_negative","49","10","51","0","397","95","8"
"012320","12:36:33","266569838","test","2","prime_positive","50","3","60","1","379","96","8"
"012320","12:36:33","266569838","test","2","prime_positive","51","9","34","1","730","96","8"
"012320","12:36:33","266569838","test","2","prime_negative","52","1","67","0","419","96","8"
"012320","12:36:33","266569838","test","2","prime_negative","53","9","62","0","400","96","7"
"012320","12:36:33","266569838","test","2","prime_positive","54","7","4","1","502","96","7"
"012320","12:36:33","266569838","test","2","prime_positive","55","10","8","1","424","96","7"
"012320","12:36:33","266569838","test","2","prime_negative","56","2","57","0","350","96","7"
"012320","12:36:33","266569838","test","2","prime_negative","57","6","17","0","390","96","7"
"012320","12:36:33","266569838","test","2","prime_negative","58","7","31","0","388","96","6"
"012320","12:36:33","266569838","test","2","prime_positive","59","11","28","1","763","96","6"
"012320","12:36:33","266569838","test","2","prime_positive","60","4","25","1","1283","96","6"
"012320","12:36:33","266569838","test","2","prime_negative","61","11","43","1","1469","96","10"
"012320","12:36:33","266569838","test","2","prime_positive","62","6","48","1","616","96","10"
"012320","12:36:33","266569838","test","2","prime_negative","63","5","11","0","774","96","9"
"012320","12:36:33","266569838","test","2","prime_negative","64","5","10","0","437","96","9"
"012320","12:36:33","266569838","test","2","prime_negative","65","4","17","0","418","96","9"
"012320","12:36:33","266569838","test","2","prime_negative","66","3","6","0","327","96","8"
"012320","12:36:33","266569838","test","2","prime_positive","67","9","24","1","592","96","8"
"012320","12:36:33","266569838","test","2","prime_positive","68","8","69","1","231","96","8"
"012320","12:36:33","266569838","test","2","prime_negative","69","2","56","1","195","96","11"
"012320","12:36:33","266569838","test","2","prime_negative","70","6","8","0","1010","96","11"
"012320","12:36:33","266569838","test","2","prime_positive","71","1","9","1","656","97","11"
"012320","12:36:33","266569838","test","2","prime_positive","72","4","33","1","1300","97","11"
"012320","12:36:33","266569838","test","2","prime_positive","73","6","29","1","478","97","11"
"012320","12:37:53","976702210","practice","1","prime_negative_practice","4","0","0","0","4621","0","0"
"012320","12:37:53","976702210","practice","1","prime_negative_practice","5","0","0","0","10518","0","0"
"012320","12:37:53","976702210","practice","1","prime_negative_practice","6","0","0","0","1152","0","0"
"012320","12:37:53","976702210","practice","1","prime_positive_practice","7","0","0","1","5544","0","0"
"012320","12:37:53","976702210","practice","1","prime_positive_practice","8","0","0","1","1468","0","0"
"012320","12:37:53","976702210","practice","1","prime_negative_practice","9","0","0","0","1284","0","0"
"012320","12:37:53","976702210","practice","1","prime_positive_practice","10","0","0","1","3426","0","0"
"012320","12:37:53","976702210","practice","1","prime_positive_practice","11","0","0","1","3493","0","0"
"012320","12:37:53","976702210","practice","1","prime_positive_practice","12","0","0","1","2151","0","0"
"012320","12:37:53","976702210","practice","1","prime_negative_practice","13","0","0","1","3066","0","0"
"012320","12:37:53","976702210","test","2","prime_negative","2","10","46","0","1996","0","0"
"012320","12:37:53","976702210","test","2","prime_positive","3","6","24","1","853","100","0"
"012320","12:37:53","976702210","test","2","prime_positive","4","10","3","1","4066","100","0"
"012320","12:37:53","976702210","test","2","prime_negative","5","2","16","1","9429","100","50"
"012320","12:37:53","976702210","test","2","prime_negative","6","9","60","1","2303","100","66"
"012320","12:37:53","976702210","test","2","prime_negative","7","7","33","0","3430","100","50"
"012320","12:37:53","976702210","test","2","prime_negative","8","5","32","1","3613","100","60"
"012320","12:37:53","976702210","test","2","prime_negative","9","8","45","0","4894","100","50"
"012320","12:37:53","976702210","test","2","prime_negative","10","3","52","1","3585","100","57"
"012320","12:37:53","976702210","test","2","prime_positive","11","8","63","1","2146","100","57"
"012320","12:37:53","976702210","test","2","prime_negative","12","1","4","1","2601","100","62"
"012320","12:37:53","976702210","test","2","prime_negative","13","10","57","1","2369","100","66"
"012320","12:37:53","976702210","test","2","prime_negative","14","7","69","1","1200","100","70"
"012320","12:37:53","976702210","test","2","prime_positive","15","12","62","1","2335","100","70"
"012320","12:37:53","976702210","test","2","prime_negative","16","9","29","1","1608","100","72"
"012320","12:37:53","976702210","test","2","prime_positive","17","3","13","1","1822","100","72"
"012320","12:37:53","976702210","test","2","prime_positive","18","5","30","1","2206","100","72"
"012320","12:37:53","976702210","test","2","prime_negative","19","12","25","1","1932","100","75"
"012320","12:37:53","976702210","test","2","prime_positive","20","9","37","1","7333","100","75"
"012320","12:37:53","976702210","test","2","prime_negative","21","6","19","1","1044","100","76"
"012320","12:37:53","976702210","test","2","prime_positive","22","6","47","1","1584","100","76"
"012320","12:37:53","976702210","test","2","prime_positive","23","7","61","1","3011","100","76"
"012320","12:37:53","976702210","test","2","prime_positive","24","2","8","1","996","100","76"
"012320","12:37:53","976702210","test","2","prime_positive","25","8","70","1","1725","100","76"
"012320","12:37:53","976702210","test","2","prime_negative","26","5","68","0","2652","100","71"
"012320","12:37:53","976702210","test","2","prime_positive","27","1","10","1","981","100","71"
"012320","12:37:53","976702210","test","2","prime_negative","28","4","64","1","3019","100","73"
"012320","12:37:53","976702210","test","2","prime_negative","29","11","23","0","1040","100","68"
"012320","12:37:53","976702210","test","2","prime_negative","30","2","35","0","4975","100","64"
"012320","12:37:53","976702210","test","2","prime_positive","31","10","44","1","2923","100","64"
"012320","12:37:53","976702210","test","2","prime_positive","32","4","31","1","1554","100","64"
"012320","12:37:53","976702210","test","2","prime_positive","33","5","59","1","1382","100","64"
"012320","12:37:53","976702210","test","2","prime_negative","34","3","49","1","1425","100","66"
"012320","12:37:53","976702210","test","2","prime_negative","35","8","66","1","668","100","68"
"012320","12:37:53","976702210","test","2","prime_negative","36","11","11","1","1583","100","70"
"012320","12:37:53","976702210","test","2","prime_negative","37","6","48","1","1520","100","71"
"012320","12:37:53","976702210","test","2","prime_positive","38","11","36","1","738","100","71"
"012320","12:37:53","976702210","test","2","prime_positive","39","12","18","1","910","100","71"
"012320","12:37:53","976702210","test","2","prime_negative","40","12","34","1","793","100","72"
"012320","12:37:53","976702210","test","2","prime_positive","41","3","1","1","557","100","72"
"012320","12:37:53","976702210","test","2","prime_positive","42","9","42","1","1353","100","72"
"012320","12:37:53","976702210","test","2","prime_positive","43","8","7","0","1637","95","72"
"012320","12:37:53","976702210","test","2","prime_negative","44","4","41","1","1377","95","73"
"012320","12:37:53","976702210","test","2","prime_negative","45","8","17","1","1744","95","75"
"012320","12:37:53","976702210","test","2","prime_positive","46","7","27","1","1267","95","75"
"012320","12:37:53","976702210","test","2","prime_positive","47","5","5","1","927","95","75"
"012320","12:37:53","976702210","test","2","prime_positive","48","3","28","1","431","95","75"
"012320","12:37:53","976702210","test","2","prime_negative","49","7","6","1","7506","95","76"
"012320","12:37:53","976702210","test","2","prime_positive","50","11","43","1","1518","95","76"
"012320","12:37:53","976702210","test","2","prime_negative","51","3","67","1","1246","95","76"
"012320","12:37:53","976702210","test","2","prime_negative","52","5","39","1","922","95","77"
"012320","12:37:53","976702210","test","2","prime_positive","53","10","65","1","150","96","77"
"012320","12:37:53","976702210","test","2","prime_negative","54","2","2","1","225","96","78"
"012320","12:37:53","976702210","test","2","prime_negative","55","1","38","1","216","96","79"
"012320","12:37:53","976702210","test","2","prime_positive","56","2","51","1","404","96","79"
"012320","12:37:53","976702210","test","2","prime_positive","57","4","26","1","829","96","79"
"012320","12:37:53","976702210","test","2","prime_negative","58","9","71","1","437","96","80"
"012320","12:37:53","976702210","test","2","prime_positive","59","6","14","1","829","96","80"
"012320","12:37:53","976702210","test","2","prime_negative","60","10","72","0","1885","96","77"
"012320","12:37:53","976702210","test","2","prime_positive","61","9","58","1","529","96","77"
"012320","12:37:53","976702210","test","2","prime_negative","62","7","21","1","810","96","78"
"012320","12:37:53","976702210","test","2","prime_negative","63","5","50","1","618","96","78"
"012320","12:37:53","976702210","test","2","prime_positive","64","12","63","1","842","96","78"
"012320","12:37:53","976702210","test","2","prime_positive","65","1","69","1","1492","96","78"
"012320","12:37:53","976702210","test","2","prime_positive","66","6","23","1","265","96","78"
"012320","12:37:53","976702210","test","2","prime_positive","67","8","49","1","472","96","78"
"012320","12:37:53","976702210","test","2","prime_positive","68","4","30","1","352","97","78"
"012320","12:37:53","976702210","test","2","prime_positive","69","11","10","1","68","97","78"
"012320","12:37:53","976702210","test","2","prime_negative","70","1","60","1","693","97","79"
"012320","12:37:53","976702210","test","2","prime_negative","71","8","40","1","675","97","80"
"012320","12:37:53","976702210","test","2","prime_negative","72","9","2","1","408","97","80"
"012320","12:37:53","976702210","test","2","prime_positive","73","1","54","1","807","97","80"
"012320","12:44:52","301706853","practice","1","prime_positive_practice","4","0","0","0","3115","0","0"
"012320","12:44:52","301706853","practice","1","prime_positive_practice","5","0","0","0","7574","0","0"
"012320","12:44:52","301706853","practice","1","prime_negative_practice","6","0","0","0","3361","0","0"
"012320","12:44:52","301706853","practice","1","prime_positive_practice","7","0","0","0","2144","0","0"
"012320","12:44:52","301706853","practice","1","prime_negative_practice","8","0","0","0","1531","0","0"
"012320","12:44:52","301706853","practice","1","prime_negative_practice","9","0","0","0","938","0","0"
"012320","12:44:52","301706853","practice","1","prime_negative_practice","10","0","0","0","869","0","0"
"012320","12:44:52","301706853","practice","1","prime_positive_practice","11","0","0","0","761","0","0"
"012320","12:44:52","301706853","practice","1","prime_negative_practice","12","0","0","0","1045","0","0"
"012320","12:44:52","301706853","practice","1","prime_positive_practice","13","0","0","0","3786","0","0"
"012320","12:44:52","301706853","test","2","prime_positive","2","11","35","1","3970","100","0"
"012320","12:44:52","301706853","test","2","prime_negative","3","10","69","1","2954","100","100"
"012320","12:44:52","301706853","test","2","prime_negative","4","7","8","1","4396","100","100"
"012320","12:44:52","301706853","test","2","prime_positive","5","8","31","0","1549","50","100"
"012320","12:44:52","301706853","test","2","prime_positive","6","5","63","1","1938","66","100"
"012320","12:44:52","301706853","test","2","prime_negative","7","4","68","0","1752","66","66"
"012320","12:44:52","301706853","test","2","prime_negative","8","8","1","1","3211","66","75"
"012320","12:44:52","301706853","test","2","prime_negative","9","2","5","1","1033","66","80"
"012320","12:44:52","301706853","test","2","prime_negative","10","1","22","1","1589","66","83"
"012320","12:44:52","301706853","test","2","prime_positive","11","1","2","0","1851","50","83"
"012320","12:44:52","301706853","test","2","prime_positive","12","3","64","0","1092","40","83"
"012320","12:44:52","301706853","test","2","prime_positive","13","12","67","0","1303","33","83"
"012320","12:44:52","301706853","test","2","prime_positive","14","2","54","0","581","28","83"
"012320","12:44:52","301706853","test","2","prime_negative","15","5","14","1","987","28","85"
"012320","12:44:52","301706853","test","2","prime_positive","16","11","28","0","584","25","85"
"012320","12:44:52","301706853","test","2","prime_positive","17","1","36","0","1116","22","85"
"012320","12:44:52","301706853","test","2","prime_negative","18","12","46","0","1678","22","75"
"012320","12:44:52","301706853","test","2","prime_negative","19","3","15","1","695","22","77"
"012320","12:44:52","301706853","test","2","prime_negative","20","1","26","1","694","22","80"
"012320","12:44:52","301706853","test","2","prime_positive","21","8","42","0","810","20","80"
"012320","12:44:52","301706853","test","2","prime_positive","22","2","57","0","702","18","80"
"012320","12:44:52","301706853","test","2","prime_positive","23","10","50","0","1078","16","80"
"012320","12:44:52","301706853","test","2","prime_negative","24","4","34","1","573","16","81"
"012320","12:44:52","301706853","test","2","prime_negative","25","11","56","0","807","16","75"
"012320","12:44:52","301706853","test","2","prime_negative","26","7","47","1","505","16","76"
"012320","12:44:52","301706853","test","2","prime_positive","27","7","24","1","1131","23","76"
"012320","12:44:52","301706853","test","2","prime_negative","28","5","19","1","727","23","78"
"012320","12:44:52","301706853","test","2","prime_negative","29","10","18","1","597","23","80"
"012320","12:44:52","301706853","test","2","prime_negative","30","8","70","1","507","23","81"
"012320","12:44:52","301706853","test","2","prime_positive","31","3","33","0","390","21","81"
"012320","12:44:52","301706853","test","2","prime_positive","32","4","48","0","881","20","81"
"012320","12:44:52","301706853","test","2","prime_positive","33","6","40","0","402","18","81"
"012320","12:44:52","301706853","test","2","prime_positive","34","12","25","0","402","17","81"
"012320","12:44:52","301706853","test","2","prime_negative","35","2","51","1","340","17","82"
"012320","12:44:52","301706853","test","2","prime_negative","36","6","55","1","594","17","83"
"012320","12:44:52","301706853","test","2","prime_negative","37","9","39","0","1350","17","78"
"012320","12:44:52","301706853","test","2","prime_negative","38","4","52","1","645","17","80"
"012320","12:44:52","301706853","test","2","prime_positive","39","9","65","0","795","16","80"
"012320","12:44:52","301706853","test","2","prime_positive","40","5","41","0","1211","15","80"
"012320","12:44:52","301706853","test","2","prime_negative","41","12","4","0","518","15","76"
"012320","12:44:52","301706853","test","2","prime_negative","42","9","27","0","395","15","72"
"012320","12:44:52","301706853","test","2","prime_negative","43","6","44","1","594","15","73"
"012320","12:44:52","301706853","test","2","prime_negative","44","3","16","1","352","15","75"
"012320","12:44:52","301706853","test","2","prime_negative","45","11","61","0","423","15","72"
"012320","12:44:52","301706853","test","2","prime_positive","46","10","59","0","418","15","72"
"012320","12:44:52","301706853","test","2","prime_negative","47","5","53","1","365","15","73"
"012320","12:44:52","301706853","test","2","prime_positive","48","3","58","0","292","14","73"
"012320","12:44:52","301706853","test","2","prime_negative","49","1","71","1","520","14","74"
"012320","12:44:52","301706853","test","2","prime_positive","50","2","37","0","1764","13","74"
"012320","12:44:52","301706853","test","2","prime_positive","51","7","6","1","699","17","74"
"012320","12:44:52","301706853","test","2","prime_negative","52","8","45","1","334","17","75"
"012320","12:44:52","301706853","test","2","prime_negative","53","7","12","1","343","17","75"
"012320","12:44:52","301706853","test","2","prime_negative","54","2","32","1","312","17","76"
"012320","12:44:52","301706853","test","2","prime_negative","55","10","23","1","311","17","77"
"012320","12:44:52","301706853","test","2","prime_negative","56","7","30","1","380","17","78"
"012320","12:44:52","301706853","test","2","prime_positive","57","8","9","0","309","16","78"
"012320","12:44:52","301706853","test","2","prime_negative","58","5","7","1","291","16","78"
"012320","12:44:52","301706853","test","2","prime_negative","59","10","13","1","680","16","79"
"012320","12:44:52","301706853","test","2","prime_positive","60","6","10","0","315","16","79"
"012320","12:44:52","301706853","test","2","prime_positive","61","1","60","0","327","15","79"
"012320","12:44:52","301706853","test","2","prime_positive","62","9","49","0","312","14","79"
"012320","12:44:52","301706853","test","2","prime_positive","63","11","21","0","290","14","79"
"012320","12:44:52","301706853","test","2","prime_positive","64","12","3","0","294","13","79"
"012320","12:44:52","301706853","test","2","prime_positive","65","4","33","0","602","13","79"
"012320","12:44:52","301706853","test","2","prime_positive","66","5","9","0","296","12","79"
"012320","12:44:52","301706853","test","2","prime_positive","67","7","14","1","986","15","79"
"012320","12:44:52","301706853","test","2","prime_negative","68","9","43","0","873","15","77"
"012320","12:44:52","301706853","test","2","prime_negative","69","11","52","0","300","15","75"
"012320","12:44:52","301706853","test","2","prime_positive","70","12","35","0","313","15","75"
"012320","12:44:52","301706853","test","2","prime_positive","71","2","21","0","274","14","75"
"012320","12:44:52","301706853","test","2","prime_positive","72","5","30","0","190","14","75"
"012320","12:44:52","301706853","test","2","prime_positive","73","6","45","0","1103","13","75"
"012320","12:44:30","840659829","practice","1","prime_positive_practice","4","0","0","0","5083","0","0"
"012320","12:44:30","840659829","practice","1","prime_positive_practice","5","0","0","0","2752","0","0"
"012320","12:44:30","840659829","practice","1","prime_negative_practice","6","0","0","0","1234","0","0"
"012320","12:44:30","840659829","practice","1","prime_positive_practice","7","0","0","1","1108","0","0"
"012320","12:44:30","840659829","practice","1","prime_positive_practice","8","0","0","1","3267","0","0"
"012320","12:44:30","840659829","practice","1","prime_negative_practice","9","0","0","0","869","0","0"
"012320","12:44:30","840659829","practice","1","prime_negative_practice","10","0","0","1","647","0","0"
"012320","12:44:30","840659829","practice","1","prime_positive_practice","11","0","0","0","501","0","0"
"012320","12:44:30","840659829","practice","1","prime_negative_practice","12","0","0","1","1037","0","0"
"012320","12:44:30","840659829","practice","1","prime_negative_practice","13","0","0","1","367","0","0"
"012320","12:44:30","840659829","test","2","prime_positive","2","3","56","0","1813","0","0"
"012320","12:44:30","840659829","test","2","prime_negative","3","3","47","0","245","0","0"
"012320","12:44:30","840659829","test","2","prime_positive","4","4","70","1","1795","50","0"
"012320","12:44:30","840659829","test","2","prime_positive","5","10","50","0","158","33","0"
"012320","12:44:30","840659829","test","2","prime_positive","6","11","42","1","602","50","0"
"012320","12:44:30","840659829","test","2","prime_positive","7","1","37","0","101","40","0"
"012320","12:44:30","840659829","test","2","prime_positive","8","8","19","1","1203","50","0"
"012320","12:44:30","840659829","test","2","prime_positive","9","9","68","0","348","42","0"
"012320","12:44:30","840659829","test","2","prime_negative","10","1","46","1","599","42","50"
"012320","12:44:30","840659829","test","2","prime_negative","11","7","49","0","613","42","33"
"012320","12:44:30","840659829","test","2","prime_positive","12","12","44","1","734","50","33"
"012320","12:44:30","840659829","test","2","prime_positive","13","3","34","0","510","44","33"
"012320","12:44:30","840659829","test","2","prime_negative","14","11","1","1","749","44","50"
"012320","12:44:30","840659829","test","2","prime_positive","15","9","6","0","454","40","50"
"012320","12:44:30","840659829","test","2","prime_negative","16","9","23","1","439","40","60"
"012320","12:44:30","840659829","test","2","prime_positive","17","2","14","0","530","36","60"
"012320","12:44:30","840659829","test","2","prime_negative","18","8","71","1","626","36","66"
"012320","12:44:30","840659829","test","2","prime_negative","19","10","18","0","400","36","57"
"012320","12:44:30","840659829","test","2","prime_negative","20","3","33","1","475","36","62"
"012320","12:44:30","840659829","test","2","prime_positive","21","5","26","1","626","41","62"
"012320","12:44:30","840659829","test","2","prime_negative","22","8","38","0","352","41","55"
"012320","12:44:30","840659829","test","2","prime_negative","23","2","41","0","430","41","50"
"012320","12:44:30","840659829","test","2","prime_positive","24","1","62","1","709","46","50"
"012320","12:44:30","840659829","test","2","prime_positive","25","6","20","1","338","50","50"
"012320","12:44:30","840659829","test","2","prime_positive","26","10","4","0","239","46","50"
"012320","12:44:30","840659829","test","2","prime_positive","27","7","40","1","366","50","50"
"012320","12:44:30","840659829","test","2","prime_positive","28","8","30","1","210","52","50"
"012320","12:44:30","840659829","test","2","prime_negative","29","7","16","0","408","52","45"
"012320","12:44:30","840659829","test","2","prime_negative","30","4","60","0","208","52","41"
"012320","12:44:30","840659829","test","2","prime_positive","31","11","36","1","496","55","41"
"012320","12:44:30","840659829","test","2","prime_positive","32","4","27","1","431","57","41"
"012320","12:44:30","840659829","test","2","prime_negative","33","9","21","0","307","57","38"
"012320","12:44:30","840659829","test","2","prime_negative","34","1","32","1","1502","57","42"
"012320","12:44:30","840659829","test","2","prime_positive","35","11","28","0","770","55","42"
"012320","12:44:30","840659829","test","2","prime_positive","36","5","3","1","352","57","42"
"012320","12:44:30","840659829","test","2","prime_negative","37","12","66","1","652","57","46"
"012320","12:44:30","840659829","test","2","prime_positive","38","12","5","1","512","59","46"
"012320","12:44:30","840659829","test","2","prime_negative","39","5","25","1","318","59","50"
"012320","12:44:30","840659829","test","2","prime_negative","40","10","43","1","379","59","52"
"012320","12:44:30","840659829","test","2","prime_positive","41","8","22","0","399","56","52"
"012320","12:44:30","840659829","test","2","prime_negative","42","11","58","1","676","56","55"
"012320","12:44:30","840659829","test","2","prime_negative","43","6","13","1","794","56","57"
"012320","12:44:30","840659829","test","2","prime_negative","44","8","31","1","693","56","60"
"012320","12:44:30","840659829","test","2","prime_positive","45","6","24","1","534","58","60"
"012320","12:44:30","840659829","test","2","prime_negative","46","9","15","1","461","58","61"
"012320","12:44:30","840659829","test","2","prime_negative","47","11","52","1","2138","58","63"
"012320","12:44:30","840659829","test","2","prime_positive","48","3","9","1","1559","60","63"
"012320","12:44:30","840659829","test","2","prime_positive","49","10","35","0","1181","57","63"
"012320","12:44:30","840659829","test","2","prime_negative","50","5","64","1","680","57","65"
"012320","12:44:30","840659829","test","2","prime_negative","51","1","69","1","825","57","66"
"012320","12:44:30","840659829","test","2","prime_negative","52","6","55","1","381","57","68"
"012320","12:44:30","840659829","test","2","prime_negative","53","12","59","1","926","57","69"
"012320","12:44:30","840659829","test","2","prime_negative","54","2","61","0","781","57","66"
"012320","12:44:30","840659829","test","2","prime_negative","55","4","2","1","568","57","67"
"012320","12:44:30","840659829","test","2","prime_positive","56","2","11","1","418","59","67"
"012320","12:44:30","840659829","test","2","prime_positive","57","7","12","0","217","57","67"
"012320","12:44:30","840659829","test","2","prime_positive","58","4","45","1","414","58","67"
"012320","12:44:30","840659829","test","2","prime_positive","59","9","57","1","367","60","67"
"012320","12:44:30","840659829","test","2","prime_positive","60","1","8","0","537","58","67"
"012320","12:44:30","840659829","test","2","prime_positive","61","5","67","0","563","56","67"
"012320","12:44:30","840659829","test","2","prime_positive","62","3","65","1","643","57","67"
"012320","12:44:30","840659829","test","2","prime_negative","63","7","54","0","445","57","65"
"012320","12:44:30","840659829","test","2","prime_negative","64","10","30","1","480","57","66"
"012320","12:44:30","840659829","test","2","prime_positive","65","8","58","1","3087","58","66"
"012320","12:44:30","840659829","test","2","prime_negative","66","3","51","0","387","58","64"
"012320","12:44:30","840659829","test","2","prime_negative","67","3","18","1","1231","58","65"
"012320","12:44:30","840659829","test","2","prime_positive","68","6","52","0","334","57","65"
"012320","12:44:30","840659829","test","2","prime_negative","69","9","9","1","807","57","66"
"012320","12:44:30","840659829","test","2","prime_positive","70","7","67","0","191","55","66"
"012320","12:44:30","840659829","test","2","prime_negative","71","12","47","1","54","55","67"
"012320","12:44:30","840659829","test","2","prime_negative","72","2","35","0","103","55","65"
"012320","12:44:30","840659829","test","2","prime_negative","73","1","48","0","39911","55","63"
"012320","12:45:18","25737401","practice","1","prime_positive_practice","4","0","0","1","2774","0","0"
"012320","12:45:18","25737401","practice","1","prime_negative_practice","5","0","0","1","930","0","0"
"012320","12:45:18","25737401","practice","1","prime_positive_practice","6","0","0","1","1064","0","0"
"012320","12:45:18","25737401","practice","1","prime_negative_practice","7","0","0","1","1938","0","0"
"012320","12:45:18","25737401","practice","1","prime_negative_practice","8","0","0","1","1079","0","0"
"012320","12:45:18","25737401","practice","1","prime_negative_practice","9","0","0","0","489","0","0"
"012320","12:45:18","25737401","practice","1","prime_negative_practice","10","0","0","0","426","0","0"
"012320","12:45:18","25737401","practice","1","prime_positive_practice","11","0","0","1","1293","0","0"
"012320","12:45:18","25737401","practice","1","prime_positive_practice","12","0","0","1","397","0","0"
"012320","12:45:18","25737401","practice","1","prime_positive_practice","13","0","0","0","538","0","0"
"012320","12:45:18","25737401","test","2","prime_negative","2","3","12","1","813","0","100"
"012320","12:45:18","25737401","test","2","prime_positive","3","1","10","1","344","100","100"
"012320","12:45:18","25737401","test","2","prime_positive","4","10","60","0","367","50","100"
"012320","12:45:18","25737401","test","2","prime_negative","5","12","13","0","581","50","50"
"012320","12:45:18","25737401","test","2","prime_negative","6","4","15","0","586","50","33"
"012320","12:45:18","25737401","test","2","prime_negative","7","10","29","0","872","50","25"
"012320","12:45:18","25737401","test","2","prime_positive","8","12","43","1","1096","66","25"
"012320","12:45:18","25737401","test","2","prime_negative","9","11","5","1","393","66","40"
"012320","12:45:18","25737401","test","2","prime_negative","10","1","64","1","301","66","50"
"012320","12:45:18","25737401","test","2","prime_negative","11","2","62","0","294","66","42"
"012320","12:45:18","25737401","test","2","prime_negative","12","1","7","1","640","66","50"
"012320","12:45:18","25737401","test","2","prime_negative","13","4","65","1","404","66","55"
"012320","12:45:18","25737401","test","2","prime_negative","14","10","66","1","376","66","60"
"012320","12:45:18","25737401","test","2","prime_positive","15","3","55","1","430","75","60"
"012320","12:45:18","25737401","test","2","prime_positive","16","9","61","1","697","80","60"
"012320","12:45:18","25737401","test","2","prime_negative","17","11","24","1","298","80","63"
"012320","12:45:18","25737401","test","2","prime_negative","18","8","28","1","243","80","66"
"012320","12:45:18","25737401","test","2","prime_negative","19","9","35","1","111","80","69"
"012320","12:45:18","25737401","test","2","prime_positive","20","7","32","0","224","66","69"
"012320","12:45:18","25737401","test","2","prime_positive","21","6","53","1","180","71","69"
"012320","12:45:18","25737401","test","2","prime_negative","22","5","47","1","201","71","71"
"012320","12:45:18","25737401","test","2","prime_positive","23","6","25","1","55","75","71"
"012320","12:45:18","25737401","test","2","prime_positive","24","12","52","1","625","77","71"
"012320","12:45:18","25737401","test","2","prime_positive","25","9","59","0","21","70","71"
"012320","12:45:18","25737401","test","2","prime_positive","26","7","42","0","250","63","71"
"012320","12:45:18","25737401","test","2","prime_negative","27","6","36","1","36","63","73"
"012320","12:45:18","25737401","test","2","prime_negative","28","3","54","1","97","63","75"
"012320","12:45:18","25737401","test","2","prime_positive","29","1","33","1","634","66","75"
"012320","12:45:18","25737401","test","2","prime_positive","30","8","21","1","157","69","75"
"012320","12:45:18","25737401","test","2","prime_positive","31","11","4","1","140","71","75"
"012320","12:45:18","25737401","test","2","prime_positive","32","3","63","1","92","73","75"
"012320","12:45:18","25737401","test","2","prime_negative","33","12","71","1","69","73","76"
"012320","12:45:18","25737401","test","2","prime_positive","34","4","57","1","8","75","76"
"012320","12:45:18","25737401","test","2","prime_negative","35","7","26","1","117","75","77"
"012320","12:45:18","25737401","test","2","prime_negative","36","2","18","1","909","75","78"
"012320","12:45:18","25737401","test","2","prime_negative","37","7","40","1","253","75","80"
"012320","12:45:18","25737401","test","2","prime_positive","38","2","49","1","504","76","80"
"012320","12:45:18","25737401","test","2","prime_negative","39","4","58","1","385","76","80"
"012320","12:45:18","25737401","test","2","prime_negative","40","8","11","1","822","76","81"
"012320","12:45:18","25737401","test","2","prime_positive","41","10","20","1","514","77","81"
"012320","12:45:18","25737401","test","2","prime_positive","42","5","14","1","338","78","81"
"012320","12:45:18","25737401","test","2","prime_negative","43","5","72","1","370","78","82"
"012320","12:45:18","25737401","test","2","prime_negative","44","10","31","1","519","78","83"
"012320","12:45:18","25737401","test","2","prime_positive","45","11","16","1","343","80","83"
"012320","12:45:18","25737401","test","2","prime_negative","46","2","9","1","1655","80","84"
"012320","12:45:18","25737401","test","2","prime_positive","47","8","17","1","824","80","84"
"012320","12:45:18","25737401","test","2","prime_positive","48","6","48","0","1404","77","84"
"012320","12:45:18","25737401","test","2","prime_positive","49","2","19","0","1144","73","84"
"012320","12:45:18","25737401","test","2","prime_negative","50","3","6","0","326","73","80"
"012320","12:45:18","25737401","test","2","prime_positive","51","9","37","1","334","75","80"
"012320","12:45:18","25737401","test","2","prime_positive","52","7","30","1","303","76","80"
"012320","12:45:18","25737401","test","2","prime_positive","53","4","50","1","319","76","80"
"012320","12:45:18","25737401","test","2","prime_positive","54","5","67","1","144","77","80"
"012320","12:45:18","25737401","test","2","prime_positive","55","12","51","1","207","78","80"
"012320","12:45:18","25737401","test","2","prime_positive","56","10","69","1","92","79","80"
"012320","12:45:18","25737401","test","2","prime_positive","57","1","39","1","117","80","80"
"012320","12:45:18","25737401","test","2","prime_positive","58","3","68","0","437","77","80"
"012320","12:45:18","25737401","test","2","prime_positive","59","2","56","1","681","78","80"
"012320","12:45:18","25737401","test","2","prime_negative","60","9","1","1","675","78","81"
"012320","12:45:18","25737401","test","2","prime_negative","61","12","22","1","172","78","82"
"012320","12:45:18","25737401","test","2","prime_positive","62","4","23","1","434","78","82"
"012320","12:45:18","25737401","test","2","prime_negative","63","1","41","1","494","78","82"
"012320","12:45:18","25737401","test","2","prime_positive","64","10","66","1","559","79","82"
"012320","12:45:18","25737401","test","2","prime_negative","65","11","6","1","494","79","83"
"012320","12:45:18","25737401","test","2","prime_negative","66","6","63","1","791","79","83"
"012320","12:45:18","25737401","test","2","prime_positive","67","6","35","1","476","80","83"
"012320","12:45:18","25737401","test","2","prime_negative","68","6","1","1","30","80","84"
"012320","12:45:18","25737401","test","2","prime_negative","69","8","60","1","1018","80","84"
"012320","12:45:18","25737401","test","2","prime_negative","70","7","15","1","461","80","85"
"012320","12:45:18","25737401","test","2","prime_positive","71","1","43","1","113","80","85"
"012320","12:45:18","25737401","test","2","prime_negative","72","3","61","1","41","80","85"
"012320","12:45:18","25737401","test","2","prime_negative","73","2","32","1","85","80","86"
"012320","23:43:42","497674009","practice","1","prime_positive_practice","4","0","0","1","6895","0","0"
"012320","23:43:42","497674009","practice","1","prime_negative_practice","5","0","0","1","8219","0","0"
"012320","23:43:42","497674009","practice","1","prime_positive_practice","6","0","0","1","3347","0","0"
"012320","23:43:42","497674009","practice","1","prime_positive_practice","7","0","0","1","1044","0","0"
"012320","23:43:42","497674009","practice","1","prime_negative_practice","8","0","0","0","2137","0","0"
"012320","23:43:42","497674009","practice","1","prime_negative_practice","9","0","0","0","4075","0","0"
"012320","23:43:42","497674009","practice","1","prime_negative_practice","10","0","0","0","3239","0","0"
"012320","23:43:42","497674009","practice","1","prime_positive_practice","11","0","0","1","764","0","0"
"012320","23:43:42","497674009","practice","1","prime_positive_practice","12","0","0","1","2964","0","0"
"012320","23:43:42","497674009","practice","1","prime_negative_practice","13","0","0","1","3197","0","0"
"012320","23:43:42","497674009","test","2","prime_negative","2","12","36","1","3953","0","100"
"012320","23:43:42","497674009","test","2","prime_negative","3","10","9","0","2362","0","50"
"012320","23:43:42","497674009","test","2","prime_positive","4","12","62","1","5442","100","50"
"012320","23:43:42","497674009","test","2","prime_negative","5","11","48","1","5929","100","66"
"012320","23:43:42","497674009","test","2","prime_positive","6","1","67","1","4235","100","66"
"012320","23:43:42","497674009","test","2","prime_negative","7","7","12","1","5337","100","75"
"012320","23:43:42","497674009","test","2","prime_positive","8","11","59","1","1628","100","75"
"012320","23:43:42","497674009","test","2","prime_negative","9","3","50","0","1057","100","60"
"012320","23:43:42","497674009","test","2","prime_negative","10","2","27","0","5422","100","50"
"012320","23:43:42","497674009","test","2","prime_negative","11","6","19","0","2188","100","42"
"012320","23:43:42","497674009","test","2","prime_positive","12","6","33","1","821","100","42"
"012320","23:43:42","497674009","test","2","prime_negative","13","1","35","0","633","100","37"
"012320","23:43:42","497674009","test","2","prime_negative","14","8","43","0","1383","100","33"
"012320","23:43:42","497674009","test","2","prime_negative","15","9","31","0","926","100","30"
"012320","23:43:42","497674009","test","2","prime_negative","16","7","56","0","984","100","27"
"012320","23:43:42","497674009","test","2","prime_positive","17","9","52","1","1375","100","27"
"012320","23:43:42","497674009","test","2","prime_positive","18","7","65","1","951","100","27"
"012320","23:43:42","497674009","test","2","prime_negative","19","12","11","0","1136","100","25"
"012320","23:43:42","497674009","test","2","prime_positive","20","3","44","1","729","100","25"
"012320","23:43:42","497674009","test","2","prime_negative","21","6","42","0","1162","100","23"
"012320","23:43:42","497674009","test","2","prime_positive","22","9","54","1","835","100","23"
"012320","23:43:42","497674009","test","2","prime_positive","23","7","22","1","3311","100","23"
"012320","23:43:42","497674009","test","2","prime_negative","24","4","72","0","2042","100","21"
"012320","23:43:42","497674009","test","2","prime_positive","25","2","47","1","679","100","21"
"012320","23:43:42","497674009","test","2","prime_negative","26","11","57","0","1426","100","20"
"012320","23:43:42","497674009","test","2","prime_positive","27","6","53","1","568","100","20"
"012320","23:43:42","497674009","test","2","prime_positive","28","3","37","1","2160","100","20"
"012320","23:43:42","497674009","test","2","prime_negative","29","10","45","0","816","100","18"
"012320","23:43:42","497674009","test","2","prime_negative","30","3","17","0","886","100","17"
"012320","23:43:42","497674009","test","2","prime_negative","31","5","3","0","969","100","16"
"012320","23:43:42","497674009","test","2","prime_positive","32","10","26","1","1225","100","16"
"012320","23:43:42","497674009","test","2","prime_negative","33","2","64","0","584","100","15"
"012320","23:43:42","497674009","test","2","prime_positive","34","1","41","1","614","100","15"
"012320","23:43:42","497674009","test","2","prime_negative","35","1","38","0","1180","100","15"
"012320","23:43:42","497674009","test","2","prime_positive","36","12","5","1","923","100","15"
"012320","23:43:42","497674009","test","2","prime_positive","37","5","69","1","765","100","15"
"012320","23:43:42","497674009","test","2","prime_positive","38","11","61","1","581","100","15"
"012320","23:43:42","497674009","test","2","prime_positive","39","8","66","1","860","100","15"
"012320","23:43:42","497674009","test","2","prime_negative","40","2","15","0","776","100","14"
"012320","23:43:42","497674009","test","2","prime_negative","41","10","21","0","760","100","13"
"012320","23:43:42","497674009","test","2","prime_negative","42","7","16","0","832","100","13"
"012320","23:43:42","497674009","test","2","prime_positive","43","4","40","1","1541","100","13"
"012320","23:43:42","497674009","test","2","prime_positive","44","12","39","1","782","100","13"
"012320","23:43:42","497674009","test","2","prime_negative","45","5","28","0","1557","100","12"
"012320","23:43:42","497674009","test","2","prime_positive","46","6","6","1","838","100","12"
"012320","23:43:42","497674009","test","2","prime_negative","47","8","49","0","1220","100","12"
"012320","23:43:42","497674009","test","2","prime_negative","48","12","7","0","1185","100","11"
"012320","23:43:42","497674009","test","2","prime_positive","49","9","4","1","537","100","11"
"012320","23:43:42","497674009","test","2","prime_negative","50","6","13","0","666","100","11"
"012320","23:43:42","497674009","test","2","prime_positive","51","10","18","1","766","100","11"
"012320","23:43:42","497674009","test","2","prime_positive","52","11","63","1","621","100","11"
"012320","23:43:42","497674009","test","2","prime_negative","53","11","51","0","4379","100","10"
"012320","23:43:42","497674009","test","2","prime_positive","54","3","29","1","516","100","10"
"012320","23:43:42","497674009","test","2","prime_positive","55","4","55","1","702","100","10"
"012320","23:43:42","497674009","test","2","prime_positive","56","7","60","1","536","100","10"
"012320","23:43:42","497674009","test","2","prime_positive","57","2","8","1","640","100","10"
"012320","23:43:42","497674009","test","2","prime_positive","58","8","2","1","598","100","10"
"012320","23:43:42","497674009","test","2","prime_negative","59","3","23","0","564","100","10"
"012320","23:43:42","497674009","test","2","prime_negative","60","4","34","0","764","100","10"
"012320","23:43:42","497674009","test","2","prime_positive","61","5","25","1","701","100","10"
"012320","23:43:42","497674009","test","2","prime_positive","62","1","68","1","918","100","10"
"012320","23:43:42","497674009","test","2","prime_negative","63","9","46","0","617","100","9"
"012320","23:43:42","497674009","test","2","prime_negative","64","5","24","0","751","100","9"
"012320","23:43:42","497674009","test","2","prime_positive","65","8","11","1","663","100","9"
"012320","23:43:42","497674009","test","2","prime_negative","66","6","8","0","659","100","9"
"012320","23:43:42","497674009","test","2","prime_positive","67","2","32","1","479","100","9"
"012320","23:43:42","497674009","test","2","prime_positive","68","12","55","1","514","100","9"
"012320","23:43:42","497674009","test","2","prime_negative","69","3","70","0","524","100","8"
"012320","23:43:42","497674009","test","2","prime_positive","70","11","23","1","734","100","8"
"012320","23:43:42","497674009","test","2","prime_negative","71","8","28","0","975","100","8"
"012320","23:43:42","497674009","test","2","prime_positive","72","3","61","1","503","100","8"
"012320","23:43:42","497674009","test","2","prime_negative","73","2","62","0","634","100","8"
"012320","12:47:55","377168445","practice","1","prime_negative_practice","4","0","0","0","2585","0","0"
"012320","12:47:55","377168445","practice","1","prime_negative_practice","5","0","0","0","1573","0","0"
"012320","12:47:55","377168445","practice","1","prime_negative_practice","6","0","0","0","1796","0","0"
"012320","12:47:55","377168445","practice","1","prime_positive_practice","7","0","0","1","693","0","0"
"012320","12:47:55","377168445","practice","1","prime_positive_practice","8","0","0","1","520","0","0"
"012320","12:47:55","377168445","practice","1","prime_positive_practice","9","0","0","1","645","0","0"
"012320","12:47:55","377168445","practice","1","prime_positive_practice","10","0","0","1","922","0","0"
"012320","12:47:55","377168445","practice","1","prime_negative_practice","11","0","0","0","453","0","0"
"012320","12:47:55","377168445","practice","1","prime_positive_practice","12","0","0","1","1138","0","0"
"012320","12:47:55","377168445","practice","1","prime_negative_practice","13","0","0","0","609","0","0"
"012320","12:47:55","377168445","test","2","prime_negative","2","7","31","0","682","0","0"
"012320","12:47:55","377168445","test","2","prime_negative","3","9","18","0","391","0","0"
"012320","12:47:55","377168445","test","2","prime_positive","4","6","13","1","462","100","0"
"012320","12:47:55","377168445","test","2","prime_negative","5","11","54","1","600","100","33"
"012320","12:47:55","377168445","test","2","prime_negative","6","10","40","0","397","100","25"
"012320","12:47:55","377168445","test","2","prime_positive","7","11","70","1","914","100","25"
"012320","12:47:55","377168445","test","2","prime_negative","8","2","46","0","1463","100","20"
"012320","12:47:55","377168445","test","2","prime_positive","9","1","1","1","591","100","20"
"012320","12:47:55","377168445","test","2","prime_positive","10","3","37","1","416","100","20"
"012320","12:47:55","377168445","test","2","prime_positive","11","2","8","1","329","100","20"
"012320","12:47:55","377168445","test","2","prime_positive","12","10","57","1","1456","100","20"
"012320","12:47:55","377168445","test","2","prime_positive","13","4","48","1","340","100","20"
"012320","12:47:55","377168445","test","2","prime_negative","14","6","22","0","671","100","16"
"012320","12:47:55","377168445","test","2","prime_negative","15","1","10","0","366","100","14"
"012320","12:47:55","377168445","test","2","prime_negative","16","2","5","0","196","100","12"
"012320","12:47:55","377168445","test","2","prime_negative","17","11","47","1","461","100","22"
"012320","12:47:55","377168445","test","2","prime_positive","18","2","35","1","404","100","22"
"012320","12:47:55","377168445","test","2","prime_negative","19","12","67","0","321","100","20"
"012320","12:47:55","377168445","test","2","prime_positive","20","12","4","1","625","100","20"
"012320","12:47:55","377168445","test","2","prime_positive","21","10","41","1","594","100","20"
"012320","12:47:55","377168445","test","2","prime_negative","22","9","43","0","355","100","18"
"012320","12:47:55","377168445","test","2","prime_positive","23","1","14","1","394","100","18"
"012320","12:47:55","377168445","test","2","prime_positive","24","4","62","1","421","100","18"
"012320","12:47:55","377168445","test","2","prime_positive","25","6","15","1","170","100","18"
"012320","12:47:55","377168445","test","2","prime_negative","26","5","53","0","386","100","16"
"012320","12:47:55","377168445","test","2","prime_negative","27","10","52","0","672","100","15"
"012320","12:47:55","377168445","test","2","prime_positive","28","5","45","1","465","100","15"
"012320","12:47:55","377168445","test","2","prime_negative","29","6","60","0","452","100","14"
"012320","12:47:55","377168445","test","2","prime_negative","30","3","65","0","379","100","13"
"012320","12:47:55","377168445","test","2","prime_positive","31","11","6","1","438","100","13"
"012320","12:47:55","377168445","test","2","prime_positive","32","3","16","1","433","100","13"
"012320","12:47:55","377168445","test","2","prime_negative","33","4","71","0","290","100","12"
"012320","12:47:55","377168445","test","2","prime_negative","34","1","20","0","479","100","11"
"012320","12:47:55","377168445","test","2","prime_positive","35","9","49","1","532","100","11"
