"date","time","group","subject","build","blocknum","trialnum","blockcode","trialcode","pretrialpause","posttrialpause","trialduration","trialtimeout","response","correct","latency"
"021719","15:38:08","459813194","206664142","5.0.14.0","1","1","end_of_study_questions_ifirst","awareness","0","0","0","0","none","1","2859"
"021719","15:38:08","459813194","206664142","5.0.14.0","1","2","end_of_study_questions_ifirst","influence_general","0","0","0","0","none","1","3124"
"021719","15:38:08","459813194","206664142","5.0.14.0","1","3","end_of_study_questions_ifirst","intentionality","0","0","0","0","none","1","1927"
"021719","15:38:08","459813194","206664142","5.0.14.0","1","4","end_of_study_questions_ifirst","unintentionality","0","0","0","0","none","1","1714"
"021719","15:38:08","459813194","206664142","5.0.14.0","1","5","end_of_study_questions_ifirst","self_exclusion_1","0","0","0","0","No, exclude my data (please specify why):","1","3629"
"021719","15:38:08","459813194","206664142","5.0.14.0","1","5","end_of_study_questions_ifirst","self_exclusion_1other","0","0","0","0","uuhiuhiu","1","3629"
"021719","09:54:56","898254741","886642803","5.0.14.0","1","1","end_of_study_questions_ufirst","awareness","0","0","0","0","all","1","22315"
"021719","09:54:56","898254741","886642803","5.0.14.0","1","2","end_of_study_questions_ufirst","influence_general","0","0","0","0","less than half","1","6414"
"021719","09:54:56","898254741","886642803","5.0.14.0","1","3","end_of_study_questions_ufirst","unintentionality","0","0","0","0","less than half","1","8341"
"021719","09:54:56","898254741","886642803","5.0.14.0","1","4","end_of_study_questions_ufirst","intentionality","0","0","0","0","none","1","13716"
"021719","09:54:56","898254741","886642803","5.0.14.0","1","5","end_of_study_questions_ufirst","self_exclusion_1","0","0","0","0","Yes, use my data","1","14638"
"021719","09:54:56","898254741","886642803","5.0.14.0","1","5","end_of_study_questions_ufirst","self_exclusion_1other","0","0","0","0","","1","14638"
"021719","15:04:13","900798257","766228610","5.0.14.0","1","1","end_of_study_questions_ifirst","awareness","0","0","0","0","all","1","15578"
"021719","15:04:13","900798257","766228610","5.0.14.0","1","2","end_of_study_questions_ifirst","influence_general","0","0","0","0","less than half","1","7076"
"021719","15:04:13","900798257","766228610","5.0.14.0","1","3","end_of_study_questions_ifirst","intentionality","0","0","0","0","none","1","14366"
"021719","15:04:13","900798257","766228610","5.0.14.0","1","4","end_of_study_questions_ifirst","unintentionality","0","0","0","0","about half","1","8387"
"021719","15:04:13","900798257","766228610","5.0.14.0","1","5","end_of_study_questions_ifirst","self_exclusion_1","0","0","0","0","Yes, use my data","1","13619"
"021719","15:04:13","900798257","766228610","5.0.14.0","1","5","end_of_study_questions_ifirst","self_exclusion_1other","0","0","0","0","","1","13619"
"021719","15:10:13","764401742","113460491","5.0.14.0","1","1","end_of_study_questions_ufirst","awareness","0","0","0","0","none","1","21916"
"021719","15:10:13","764401742","113460491","5.0.14.0","1","2","end_of_study_questions_ufirst","influence_general","0","0","0","0","none","1","5526"
"021719","15:10:13","764401742","113460491","5.0.14.0","1","3","end_of_study_questions_ufirst","unintentionality","0","0","0","0","none","1","7794"
"021719","15:10:13","764401742","113460491","5.0.14.0","1","4","end_of_study_questions_ufirst","intentionality","0","0","0","0","none","1","5962"
"021719","15:10:13","764401742","113460491","5.0.14.0","1","5","end_of_study_questions_ufirst","self_exclusion_1","0","0","0","0","Yes, use my data","1","14633"
"021719","15:10:13","764401742","113460491","5.0.14.0","1","5","end_of_study_questions_ufirst","self_exclusion_1other","0","0","0","0","","1","14633"
"021719","10:11:56","315635601","275523320","5.0.14.0","1","1","end_of_study_questions_ifirst","awareness","0","0","0","0","all","1","20418"
"021719","10:11:56","315635601","275523320","5.0.14.0","1","2","end_of_study_questions_ifirst","influence_general","0","0","0","0","less than half","1","6496"
"021719","10:11:56","315635601","275523320","5.0.14.0","1","3","end_of_study_questions_ifirst","intentionality","0","0","0","0","less than half","1","5256"
"021719","10:11:56","315635601","275523320","5.0.14.0","1","4","end_of_study_questions_ifirst","unintentionality","0","0","0","0","a few","1","5197"
"021719","10:11:56","315635601","275523320","5.0.14.0","1","5","end_of_study_questions_ifirst","self_exclusion_1","0","0","0","0","Yes, use my data","1","5342"
"021719","10:11:56","315635601","275523320","5.0.14.0","1","5","end_of_study_questions_ifirst","self_exclusion_1other","0","0","0","0","","1","5342"
"021719","15:11:18","318672776","272486146","5.0.14.0","1","1","end_of_study_questions_ifirst","awareness","0","0","0","0","all","1","24979"
"021719","15:11:18","318672776","272486146","5.0.14.0","1","2","end_of_study_questions_ifirst","influence_general","0","0","0","0","none","1","7514"
"021719","15:11:18","318672776","272486146","5.0.14.0","1","3","end_of_study_questions_ifirst","intentionality","0","0","0","0","none","1","7249"
"021719","15:11:18","318672776","272486146","5.0.14.0","1","4","end_of_study_questions_ifirst","unintentionality","0","0","0","0","a few","1","7244"
"021719","15:11:18","318672776","272486146","5.0.14.0","1","5","end_of_study_questions_ifirst","self_exclusion_1","0","0","0","0","No, exclude my data (please specify why):","1","72516"
"021719","15:11:18","318672776","272486146","5.0.14.0","1","5","end_of_study_questions_ifirst","self_exclusion_1other","0","0","0","0","I wasn't fully expecting the images to flash by so quickly, so I voted ""Unpleasant"" for perhaps the first 10 images in the first test without realising.","1","72516"
"021819","03:17:39","670420337","566506627","5.0.14.0","1","1","end_of_study_questions_ufirst","awareness","0","0","0","0","all","1","17811"
"021819","03:17:39","670420337","566506627","5.0.14.0","1","2","end_of_study_questions_ufirst","influence_general","0","0","0","0","most","1","4171"
"021819","03:17:39","670420337","566506627","5.0.14.0","1","3","end_of_study_questions_ufirst","unintentionality","0","0","0","0","all","1","6938"
"021819","03:17:39","670420337","566506627","5.0.14.0","1","4","end_of_study_questions_ufirst","intentionality","0","0","0","0","none","1","5977"
"021819","03:17:39","670420337","566506627","5.0.14.0","1","5","end_of_study_questions_ufirst","self_exclusion_1","0","0","0","0","Yes, use my data","1","9268"
"021819","03:17:39","670420337","566506627","5.0.14.0","1","5","end_of_study_questions_ufirst","self_exclusion_1other","0","0","0","0","","1","9268"
"021719","16:18:26","625067684","521153975","5.0.14.0","1","1","end_of_study_questions_ufirst","awareness","0","0","0","0","all","1","37877"
"021719","16:18:26","625067684","521153975","5.0.14.0","1","2","end_of_study_questions_ufirst","influence_general","0","0","0","0","none","1","10558"
"021719","16:18:26","625067684","521153975","5.0.14.0","1","3","end_of_study_questions_ufirst","unintentionality","0","0","0","0","none","1","5221"
"021719","16:18:26","625067684","521153975","5.0.14.0","1","4","end_of_study_questions_ufirst","intentionality","0","0","0","0","none","1","3068"
"021719","16:18:26","625067684","521153975","5.0.14.0","1","5","end_of_study_questions_ufirst","self_exclusion_1","0","0","0","0","No, exclude my data (please specify why):","1","46834"
"021719","16:18:26","625067684","521153975","5.0.14.0","1","5","end_of_study_questions_ufirst","self_exclusion_1other","0","0","0","0","I didn't see any chinese characters after the pictures.  What I saw was a real life image, a painting and then a static image.","1","46834"
"021719","16:20:38","675231756","181883259","5.0.14.0","1","1","end_of_study_questions_ufirst","awareness","0","0","0","0","most","1","20593"
"021719","16:20:38","675231756","181883259","5.0.14.0","1","2","end_of_study_questions_ufirst","influence_general","0","0","0","0","less than half","1","8978"
"021719","16:20:38","675231756","181883259","5.0.14.0","1","3","end_of_study_questions_ufirst","unintentionality","0","0","0","0","a few","1","19130"
"021719","16:20:38","675231756","181883259","5.0.14.0","1","4","end_of_study_questions_ufirst","intentionality","0","0","0","0","none","1","10246"
"021719","16:20:38","675231756","181883259","5.0.14.0","1","5","end_of_study_questions_ufirst","self_exclusion_1","0","0","0","0","Yes, use my data","1","6291"
"021719","16:20:38","675231756","181883259","5.0.14.0","1","5","end_of_study_questions_ufirst","self_exclusion_1other","0","0","0","0","","1","6291"
"021719","16:23:04","304765319","798411943","5.0.14.0","1","1","end_of_study_questions_ufirst","awareness","0","0","0","0","none","1","23064"
"021719","16:23:04","304765319","798411943","5.0.14.0","1","2","end_of_study_questions_ufirst","influence_general","0","0","0","0","none","1","7803"
"021719","16:23:04","304765319","798411943","5.0.14.0","1","3","end_of_study_questions_ufirst","unintentionality","0","0","0","0","none","1","9203"
"021719","16:23:04","304765319","798411943","5.0.14.0","1","4","end_of_study_questions_ufirst","intentionality","0","0","0","0","none","1","8995"
"021719","16:23:04","304765319","798411943","5.0.14.0","1","5","end_of_study_questions_ufirst","self_exclusion_1","0","0","0","0","Yes, use my data","1","11231"
"021719","16:23:04","304765319","798411943","5.0.14.0","1","5","end_of_study_questions_ufirst","self_exclusion_1other","0","0","0","0","","1","11231"
"021719","16:22:23","515875480","9223988","5.0.14.0","1","1","end_of_study_questions_ifirst","awareness","0","0","0","0","all","1","43468"
"021719","16:22:23","515875480","9223988","5.0.14.0","1","2","end_of_study_questions_ifirst","influence_general","0","0","0","0","none","1","12049"
"021719","16:22:23","515875480","9223988","5.0.14.0","1","3","end_of_study_questions_ifirst","intentionality","0","0","0","0","none","1","11926"
"021719","16:22:23","515875480","9223988","5.0.14.0","1","4","end_of_study_questions_ifirst","unintentionality","0","0","0","0","none","1","8452"
"021719","16:22:23","515875480","9223988","5.0.14.0","1","5","end_of_study_questions_ifirst","self_exclusion_1","0","0","0","0","No, exclude my data (please specify why):","1","278030"
"021719","16:22:23","515875480","9223988","5.0.14.0","1","5","end_of_study_questions_ifirst","self_exclusion_1other","0","0","0","0","I think there were technical difficulties with my survey. I didn't see any paintings/Chinese characters. Every 'painting' looked like static on a TV ste to me, black background with white randomly scattered over it. I didn't see any Chinese characters, or anything else discernable amongst the 'static'.   If this sounds like my paintings were not displaying correctly, my data is probably useless","1","278030"
"021719","11:19:14","406662497","302748787","5.0.14.0","1","1","end_of_study_questions_ufirst","awareness","0","0","0","0","none","1","10243"
"021719","11:19:14","406662497","302748787","5.0.14.0","1","2","end_of_study_questions_ufirst","influence_general","0","0","0","0","none","1","4661"
"021719","11:19:14","406662497","302748787","5.0.14.0","1","3","end_of_study_questions_ufirst","unintentionality","0","0","0","0","none","1","4048"
"021719","11:19:14","406662497","302748787","5.0.14.0","1","4","end_of_study_questions_ufirst","intentionality","0","0","0","0","none","1","3391"
"021719","11:19:14","406662497","302748787","5.0.14.0","1","5","end_of_study_questions_ufirst","self_exclusion_1","0","0","0","0","Yes, use my data","1","2614"
"021719","11:19:14","406662497","302748787","5.0.14.0","1","5","end_of_study_questions_ufirst","self_exclusion_1other","0","0","0","0","","1","2614"
"021719","18:31:15","333583021","76733551","5.0.14.0","1","1","end_of_study_questions_ufirst","awareness","0","0","0","0","about half","1","50079"
"021719","18:31:15","333583021","76733551","5.0.14.0","1","2","end_of_study_questions_ufirst","influence_general","0","0","0","0","more than half","1","5735"
"021719","18:31:15","333583021","76733551","5.0.14.0","1","3","end_of_study_questions_ufirst","unintentionality","0","0","0","0","most","1","6417"
"021719","18:31:15","333583021","76733551","5.0.14.0","1","4","end_of_study_questions_ufirst","intentionality","0","0","0","0","a few","1","4144"
"021719","18:31:15","333583021","76733551","5.0.14.0","1","5","end_of_study_questions_ufirst","self_exclusion_1","0","0","0","0","Yes, use my data","1","12920"
"021719","18:31:15","333583021","76733551","5.0.14.0","1","5","end_of_study_questions_ufirst","self_exclusion_1other","0","0","0","0","","1","12920"
"021719","18:33:11","409571702","375390","5.0.14.0","1","1","end_of_study_questions_ifirst","awareness","0","0","0","0","none","1","33850"
"021719","18:33:11","409571702","375390","5.0.14.0","1","2","end_of_study_questions_ifirst","influence_general","0","0","0","0","none","1","7854"
"021719","18:33:11","409571702","375390","5.0.14.0","1","3","end_of_study_questions_ifirst","intentionality","0","0","0","0","none","1","4058"
"021719","18:33:11","409571702","375390","5.0.14.0","1","4","end_of_study_questions_ifirst","unintentionality","0","0","0","0","none","1","2759"
"021719","18:33:11","409571702","375390","5.0.14.0","1","5","end_of_study_questions_ifirst","self_exclusion_1","0","0","0","0","Yes, use my data","1","14612"
"021719","18:33:11","409571702","375390","5.0.14.0","1","5","end_of_study_questions_ifirst","self_exclusion_1other","0","0","0","0","","1","14612"
"021719","13:33:22","216274404","320188116","5.0.14.0","1","1","end_of_study_questions_ifirst","awareness","0","0","0","0","all","1","29220"
"021719","13:33:22","216274404","320188116","5.0.14.0","1","2","end_of_study_questions_ifirst","influence_general","0","0","0","0","a few","1","22859"
"021719","13:33:22","216274404","320188116","5.0.14.0","1","3","end_of_study_questions_ifirst","intentionality","0","0","0","0","none","1","6934"
"021719","13:33:22","216274404","320188116","5.0.14.0","1","4","end_of_study_questions_ifirst","unintentionality","0","0","0","0","a few","1","5062"
"021719","13:33:22","216274404","320188116","5.0.14.0","1","5","end_of_study_questions_ifirst","self_exclusion_1","0","0","0","0","Yes, use my data","1","4892"
"021719","13:33:22","216274404","320188116","5.0.14.0","1","5","end_of_study_questions_ifirst","self_exclusion_1other","0","0","0","0","","1","4892"
"021719","18:34:55","897034045","390382554","5.0.14.0","1","1","end_of_study_questions_ifirst","awareness","0","0","0","0","none","1","22132"
"021719","18:34:55","897034045","390382554","5.0.14.0","1","2","end_of_study_questions_ifirst","influence_general","0","0","0","0","none","1","7240"
"021719","18:34:55","897034045","390382554","5.0.14.0","1","3","end_of_study_questions_ifirst","intentionality","0","0","0","0","none","1","7168"
"021719","18:34:55","897034045","390382554","5.0.14.0","1","4","end_of_study_questions_ifirst","unintentionality","0","0","0","0","none","1","6723"
"021719","18:34:55","897034045","390382554","5.0.14.0","1","5","end_of_study_questions_ifirst","self_exclusion_1","0","0","0","0","Yes, use my data","1","23821"
"021719","18:34:55","897034045","390382554","5.0.14.0","1","5","end_of_study_questions_ifirst","self_exclusion_1other","0","0","0","0","","1","23821"
"021719","19:40:41","810792309","859225438","5.0.14.0","1","1","end_of_study_questions_ifirst","awareness","0","0","0","0","","1","1046"
"021719","18:40:39","21575141","722119343","5.0.14.0","1","1","end_of_study_questions_ufirst","awareness","0","0","0","0","less than half","1","33243"
"021719","18:40:39","21575141","722119343","5.0.14.0","1","2","end_of_study_questions_ufirst","influence_general","0","0","0","0","a few","1","10911"
"021719","18:40:39","21575141","722119343","5.0.14.0","1","3","end_of_study_questions_ufirst","unintentionality","0","0","0","0","less than half","1","9846"
"021719","18:40:39","21575141","722119343","5.0.14.0","1","4","end_of_study_questions_ufirst","intentionality","0","0","0","0","about half","1","8480"
"021719","18:40:39","21575141","722119343","5.0.14.0","1","5","end_of_study_questions_ufirst","self_exclusion_1","0","0","0","0","No, exclude my data (please specify why):","1","73867"
"021719","18:40:39","21575141","722119343","5.0.14.0","1","5","end_of_study_questions_ufirst","self_exclusion_1other","0","0","0","0","Quite a few of the pictures where broken, and not displaying, not sure if it was from my end or apps end.","1","73867"
"021719","18:47:02","340698112","931799914","5.0.14.0","1","1","end_of_study_questions_ifirst","awareness","0","0","0","0","none","1","55098"
"021719","18:47:02","340698112","931799914","5.0.14.0","1","2","end_of_study_questions_ifirst","influence_general","0","0","0","0","less than half","1","21164"
"021719","18:47:02","340698112","931799914","5.0.14.0","1","3","end_of_study_questions_ifirst","intentionality","0","0","0","0","none","1","6166"
"021719","18:47:02","340698112","931799914","5.0.14.0","1","4","end_of_study_questions_ifirst","unintentionality","0","0","0","0","a few","1","7448"
"021719","18:47:02","340698112","931799914","5.0.14.0","1","5","end_of_study_questions_ifirst","self_exclusion_1","0","0","0","0","Yes, use my data","1","5013"
"021719","18:47:02","340698112","931799914","5.0.14.0","1","5","end_of_study_questions_ifirst","self_exclusion_1other","0","0","0","0","","1","5013"
"021719","18:48:20","536846056","30194564","5.0.14.0","1","1","end_of_study_questions_ifirst","awareness","0","0","0","0","none","1","17272"
"021719","18:48:20","536846056","30194564","5.0.14.0","1","2","end_of_study_questions_ifirst","influence_general","0","0","0","0","none","1","5660"
"021719","18:48:20","536846056","30194564","5.0.14.0","1","3","end_of_study_questions_ifirst","intentionality","0","0","0","0","none","1","5730"
"021719","18:48:20","536846056","30194564","5.0.14.0","1","4","end_of_study_questions_ifirst","unintentionality","0","0","0","0","none","1","5284"
"021719","18:48:20","536846056","30194564","5.0.14.0","1","5","end_of_study_questions_ifirst","self_exclusion_1","0","0","0","0","No, exclude my data (please specify why):","1","36657"
"021719","18:48:20","536846056","30194564","5.0.14.0","1","5","end_of_study_questions_ifirst","self_exclusion_1other","0","0","0","0","i found it difficult to see ","1","36657"
"021719","13:48:32","68326321","727324652","5.0.14.0","1","1","end_of_study_questions_ifirst","awareness","0","0","0","0","all","1","38442"
"021719","13:48:32","68326321","727324652","5.0.14.0","1","2","end_of_study_questions_ifirst","influence_general","0","0","0","0","all","1","4197"
"021719","13:48:32","68326321","727324652","5.0.14.0","1","3","end_of_study_questions_ifirst","intentionality","0","0","0","0","most","1","7394"
"021719","13:48:32","68326321","727324652","5.0.14.0","1","4","end_of_study_questions_ifirst","unintentionality","0","0","0","0","all","1","11162"
"021719","13:48:32","68326321","727324652","5.0.14.0","1","5","end_of_study_questions_ifirst","self_exclusion_1","0","0","0","0","Yes, use my data","1","20927"
"021719","13:48:32","68326321","727324652","5.0.14.0","1","5","end_of_study_questions_ifirst","self_exclusion_1other","0","0","0","0","","1","20927"
"021719","18:51:16","163985978","212419107","5.0.14.0","1","1","end_of_study_questions_ufirst","awareness","0","0","0","0","none","1","29716"
"021719","18:51:16","163985978","212419107","5.0.14.0","1","2","end_of_study_questions_ufirst","influence_general","0","0","0","0","less than half","1","16585"
"021719","18:51:16","163985978","212419107","5.0.14.0","1","3","end_of_study_questions_ufirst","unintentionality","0","0","0","0","a few","1","18558"
"021719","18:51:16","163985978","212419107","5.0.14.0","1","4","end_of_study_questions_ufirst","intentionality","0","0","0","0","a few","1","7946"
"021719","18:51:16","163985978","212419107","5.0.14.0","1","5","end_of_study_questions_ufirst","self_exclusion_1","0","0","0","0","Yes, use my data","1","11699"
"021719","18:51:16","163985978","212419107","5.0.14.0","1","5","end_of_study_questions_ufirst","self_exclusion_1other","0","0","0","0","","1","11699"
"021719","18:53:22","66729604","475925914","5.0.14.0","1","1","end_of_study_questions_ifirst","awareness","0","0","0","0","less than half","1","24829"
"021719","18:53:22","66729604","475925914","5.0.14.0","1","2","end_of_study_questions_ifirst","influence_general","0","0","0","0","about half","1","4633"
"021719","18:53:22","66729604","475925914","5.0.14.0","1","3","end_of_study_questions_ifirst","intentionality","0","0","0","0","less than half","1","6648"
"021719","18:53:22","66729604","475925914","5.0.14.0","1","4","end_of_study_questions_ifirst","unintentionality","0","0","0","0","about half","1","3801"
"021719","18:53:22","66729604","475925914","5.0.14.0","1","5","end_of_study_questions_ifirst","self_exclusion_1","0","0","0","0","Yes, use my data","1","8290"
"021719","18:53:22","66729604","475925914","5.0.14.0","1","5","end_of_study_questions_ifirst","self_exclusion_1other","0","0","0","0","","1","8290"
"021719","18:54:22","180418717","284332425","5.0.14.0","1","1","end_of_study_questions_ufirst","awareness","0","0","0","0","all","1","50925"
"021719","18:54:22","180418717","284332425","5.0.14.0","1","2","end_of_study_questions_ufirst","influence_general","0","0","0","0","all","1","4765"
"021719","18:54:22","180418717","284332425","5.0.14.0","1","3","end_of_study_questions_ufirst","unintentionality","0","0","0","0","all","1","3067"
"021719","18:54:22","180418717","284332425","5.0.14.0","1","4","end_of_study_questions_ufirst","intentionality","0","0","0","0","none","1","4234"
"021719","18:54:22","180418717","284332425","5.0.14.0","1","5","end_of_study_questions_ufirst","self_exclusion_1","0","0","0","0","No, exclude my data (please specify why):","1","23124"
"021719","18:54:22","180418717","284332425","5.0.14.0","1","5","end_of_study_questions_ufirst","self_exclusion_1other","0","0","0","0","Distracted by someone arriving at door during study","1","23124"
"021719","13:55:39","914702554","866269419","5.0.14.0","1","1","end_of_study_questions_ufirst","awareness","0","0","0","0","less than half","1","38632"
"021719","13:55:39","914702554","866269419","5.0.14.0","1","2","end_of_study_questions_ufirst","influence_general","0","0","0","0","none","1","5379"
"021719","13:55:39","914702554","866269419","5.0.14.0","1","3","end_of_study_questions_ufirst","unintentionality","0","0","0","0","none","1","6486"
"021719","13:55:39","914702554","866269419","5.0.14.0","1","4","end_of_study_questions_ufirst","intentionality","0","0","0","0","none","1","5473"
"021719","13:55:39","914702554","866269419","5.0.14.0","1","5","end_of_study_questions_ufirst","self_exclusion_1","0","0","0","0","Yes, use my data","1","8450"
"021719","13:55:39","914702554","866269419","5.0.14.0","1","5","end_of_study_questions_ufirst","self_exclusion_1other","0","0","0","0","","1","8450"
"021719","18:58:45","943094477","296810219","5.0.14.0","1","1","end_of_study_questions_ufirst","awareness","0","0","0","0","none","1","10592"
"021719","18:58:45","943094477","296810219","5.0.14.0","1","2","end_of_study_questions_ufirst","influence_general","0","0","0","0","none","1","5415"
"021719","18:58:45","943094477","296810219","5.0.14.0","1","3","end_of_study_questions_ufirst","unintentionality","0","0","0","0","none","1","3381"
"021719","18:58:45","943094477","296810219","5.0.14.0","1","4","end_of_study_questions_ufirst","intentionality","0","0","0","0","none","1","2391"
"021719","18:58:45","943094477","296810219","5.0.14.0","1","5","end_of_study_questions_ufirst","self_exclusion_1","0","0","0","0","Yes, use my data","1","5275"
"021719","18:58:45","943094477","296810219","5.0.14.0","1","5","end_of_study_questions_ufirst","self_exclusion_1other","0","0","0","0","","1","5275"
"021719","19:03:46","243222714","652419022","5.0.14.0","1","1","end_of_study_questions_ifirst","awareness","0","0","0","0","a few","1","25028"
"021719","19:03:46","243222714","652419022","5.0.14.0","1","2","end_of_study_questions_ifirst","influence_general","0","0","0","0","a few","1","6808"
"021719","19:03:46","243222714","652419022","5.0.14.0","1","3","end_of_study_questions_ifirst","intentionality","0","0","0","0","a few","1","4421"
"021719","19:03:46","243222714","652419022","5.0.14.0","1","4","end_of_study_questions_ifirst","unintentionality","0","0","0","0","a few","1","5351"
"021719","19:03:46","243222714","652419022","5.0.14.0","1","5","end_of_study_questions_ifirst","self_exclusion_1","0","0","0","0","Yes, use my data","1","13609"
"021719","19:03:46","243222714","652419022","5.0.14.0","1","5","end_of_study_questions_ifirst","self_exclusion_1other","0","0","0","0","","1","13609"
"021719","19:06:04","272967388","611882145","5.0.14.0","1","1","end_of_study_questions_ufirst","awareness","0","0","0","0","none","1","22629"
"021719","19:06:04","272967388","611882145","5.0.14.0","1","2","end_of_study_questions_ufirst","influence_general","0","0","0","0","none","1","10580"
"021719","19:06:04","272967388","611882145","5.0.14.0","1","3","end_of_study_questions_ufirst","unintentionality","0","0","0","0","none","1","5866"
"021719","19:06:04","272967388","611882145","5.0.14.0","1","4","end_of_study_questions_ufirst","intentionality","0","0","0","0","none","1","10160"
"021719","19:06:04","272967388","611882145","5.0.14.0","1","5","end_of_study_questions_ufirst","self_exclusion_1","0","0","0","0","Yes, use my data","1","13233"
"021719","19:06:04","272967388","611882145","5.0.14.0","1","5","end_of_study_questions_ufirst","self_exclusion_1other","0","0","0","0","","1","13233"
"021719","19:03:40","238727046","134813332","5.0.14.0","1","1","end_of_study_questions_ifirst","awareness","0","0","0","0","all","1","60383"
"021719","19:03:40","238727046","134813332","5.0.14.0","1","2","end_of_study_questions_ifirst","influence_general","0","0","0","0","none","1","11809"
"021719","19:03:40","238727046","134813332","5.0.14.0","1","3","end_of_study_questions_ifirst","intentionality","0","0","0","0","none","1","10817"
"021719","19:03:40","238727046","134813332","5.0.14.0","1","4","end_of_study_questions_ifirst","unintentionality","0","0","0","0","none","1","10367"
"021719","19:03:40","238727046","134813332","5.0.14.0","1","5","end_of_study_questions_ifirst","self_exclusion_1","0","0","0","0","No, exclude my data (please specify why):","1","164095"
"021719","19:03:40","238727046","134813332","5.0.14.0","1","5","end_of_study_questions_ifirst","self_exclusion_1other","0","0","0","0","I think there is and error in your program as no chinese characters were diplayed just strange dotsafter the picture.","1","164095"
"021719","19:08:07","447190039","246119274","5.0.14.0","1","1","end_of_study_questions_ifirst","awareness","0","0","0","0","none","1","27106"
"021719","19:08:07","447190039","246119274","5.0.14.0","1","2","end_of_study_questions_ifirst","influence_general","0","0","0","0","none","1","9540"
"021719","19:08:07","447190039","246119274","5.0.14.0","1","3","end_of_study_questions_ifirst","intentionality","0","0","0","0","none","1","6545"
"021719","19:08:07","447190039","246119274","5.0.14.0","1","4","end_of_study_questions_ifirst","unintentionality","0","0","0","0","none","1","5575"
"021719","19:08:07","447190039","246119274","5.0.14.0","1","5","end_of_study_questions_ifirst","self_exclusion_1","0","0","0","0","Yes, use my data","1","17577"
"021719","19:08:07","447190039","246119274","5.0.14.0","1","5","end_of_study_questions_ifirst","self_exclusion_1other","0","0","0","0","","1","17577"
"021719","19:09:37","227215418","636411726","5.0.14.0","1","1","end_of_study_questions_ifirst","awareness","0","0","0","0","none","1","19123"
"021719","19:09:37","227215418","636411726","5.0.14.0","1","2","end_of_study_questions_ifirst","influence_general","0","0","0","0","none","1","12061"
"021719","19:09:37","227215418","636411726","5.0.14.0","1","3","end_of_study_questions_ifirst","intentionality","0","0","0","0","none","1","13924"
"021719","19:09:37","227215418","636411726","5.0.14.0","1","4","end_of_study_questions_ifirst","unintentionality","0","0","0","0","none","1","19674"
"021719","19:09:37","227215418","636411726","5.0.14.0","1","5","end_of_study_questions_ifirst","self_exclusion_1","0","0","0","0","Yes, use my data","1","32567"
"021719","19:09:37","227215418","636411726","5.0.14.0","1","5","end_of_study_questions_ifirst","self_exclusion_1other","0","0","0","0","","1","32567"
"021719","19:13:12","878106479","676737587","5.0.14.0","1","1","end_of_study_questions_ufirst","awareness","0","0","0","0","all","1","26296"
"021719","19:13:12","878106479","676737587","5.0.14.0","1","2","end_of_study_questions_ufirst","influence_general","0","0","0","0","most","1","12555"
"021719","19:13:12","878106479","676737587","5.0.14.0","1","3","end_of_study_questions_ufirst","unintentionality","0","0","0","0","most","1","6778"
"021719","19:13:12","878106479","676737587","5.0.14.0","1","4","end_of_study_questions_ufirst","intentionality","0","0","0","0","most","1","6794"
"021719","19:13:12","878106479","676737587","5.0.14.0","1","5","end_of_study_questions_ufirst","self_exclusion_1","0","0","0","0","Yes, use my data","1","23713"
"021719","19:13:12","878106479","676737587","5.0.14.0","1","5","end_of_study_questions_ufirst","self_exclusion_1other","0","0","0","0","","1","23713"
"021719","19:15:00","29685193","676267574","5.0.14.0","1","1","end_of_study_questions_ifirst","awareness","0","0","0","0","a few","1","14135"
"021719","19:15:00","29685193","676267574","5.0.14.0","1","2","end_of_study_questions_ifirst","influence_general","0","0","0","0","none","1","11953"
"021719","19:15:00","29685193","676267574","5.0.14.0","1","3","end_of_study_questions_ifirst","intentionality","0","0","0","0","none","1","16131"
"021719","19:15:00","29685193","676267574","5.0.14.0","1","4","end_of_study_questions_ifirst","unintentionality","0","0","0","0","none","1","5336"
"021719","19:15:00","29685193","676267574","5.0.14.0","1","5","end_of_study_questions_ifirst","self_exclusion_1","0","0","0","0","Yes, use my data","1","12393"
"021719","19:15:00","29685193","676267574","5.0.14.0","1","5","end_of_study_questions_ifirst","self_exclusion_1other","0","0","0","0","","1","12393"
"021719","11:15:25","37002586","988569441","5.0.14.0","1","1","end_of_study_questions_ufirst","awareness","0","0","0","0","none","1","49209"
"021719","11:15:25","37002586","988569441","5.0.14.0","1","2","end_of_study_questions_ufirst","influence_general","0","0","0","0","none","1","5743"
"021719","11:15:25","37002586","988569441","5.0.14.0","1","3","end_of_study_questions_ufirst","unintentionality","0","0","0","0","a few","1","8058"
"021719","11:15:25","37002586","988569441","5.0.14.0","1","4","end_of_study_questions_ufirst","intentionality","0","0","0","0","none","1","6358"
"021719","11:15:25","37002586","988569441","5.0.14.0","1","5","end_of_study_questions_ufirst","self_exclusion_1","0","0","0","0","Yes, use my data","1","5262"
"021719","11:15:25","37002586","988569441","5.0.14.0","1","5","end_of_study_questions_ufirst","self_exclusion_1other","0","0","0","0","","1","5262"
"021719","19:16:32","139595147","91162012","5.0.14.0","1","1","end_of_study_questions_ifirst","awareness","0","0","0","0","none","1","16381"
"021719","19:16:32","139595147","91162012","5.0.14.0","1","2","end_of_study_questions_ifirst","influence_general","0","0","0","0","none","1","6337"
"021719","19:16:32","139595147","91162012","5.0.14.0","1","3","end_of_study_questions_ifirst","intentionality","0","0","0","0","none","1","4115"
"021719","19:16:32","139595147","91162012","5.0.14.0","1","4","end_of_study_questions_ifirst","unintentionality","0","0","0","0","none","1","4331"
"021719","19:16:32","139595147","91162012","5.0.14.0","1","5","end_of_study_questions_ifirst","self_exclusion_1","0","0","0","0","No, exclude my data (please specify why):","1","71659"
"021719","19:16:32","139595147","91162012","5.0.14.0","1","5","end_of_study_questions_ifirst","self_exclusion_1other","0","0","0","0","I pressed D every time because the 'paintings' were not visible long enough to make any kind of assessment. I do not know if this was intentional or a malfunction.","1","71659"
"021719","19:18:00","75531738","416533387","5.0.14.0","1","1","end_of_study_questions_ufirst","awareness","0","0","0","0","all","1","45478"
"021719","19:18:00","75531738","416533387","5.0.14.0","1","2","end_of_study_questions_ufirst","influence_general","0","0","0","0","most","1","10886"
"021719","19:18:00","75531738","416533387","5.0.14.0","1","3","end_of_study_questions_ufirst","unintentionality","0","0","0","0","a few","1","8297"
"021719","19:18:00","75531738","416533387","5.0.14.0","1","4","end_of_study_questions_ufirst","intentionality","0","0","0","0","more than half","1","10892"
"021719","19:18:00","75531738","416533387","5.0.14.0","1","5","end_of_study_questions_ufirst","self_exclusion_1","0","0","0","0","No, exclude my data (please specify why):","1","99206"
"021719","19:18:00","75531738","416533387","5.0.14.0","1","5","end_of_study_questions_ufirst","self_exclusion_1other","0","0","0","0","The images were moving so fast and because I have a fear of spiders and bugs I think it had a negative affect on my judgement ","1","99206"
"021719","19:19:59","682751091","731463709","5.0.14.0","1","1","end_of_study_questions_ufirst","awareness","0","0","0","0","all","1","17658"
"021719","19:19:59","682751091","731463709","5.0.14.0","1","2","end_of_study_questions_ufirst","influence_general","0","0","0","0","none","1","7615"
"021719","19:19:59","682751091","731463709","5.0.14.0","1","3","end_of_study_questions_ufirst","unintentionality","0","0","0","0","none","1","5747"
"021719","19:19:59","682751091","731463709","5.0.14.0","1","4","end_of_study_questions_ufirst","intentionality","0","0","0","0","none","1","12395"
"021719","19:19:59","682751091","731463709","5.0.14.0","1","5","end_of_study_questions_ufirst","self_exclusion_1","0","0","0","0","Yes, use my data","1","16382"
"021719","19:19:59","682751091","731463709","5.0.14.0","1","5","end_of_study_questions_ufirst","self_exclusion_1other","0","0","0","0","","1","16382"
"021719","19:19:57","922379062","513182747","5.0.14.0","1","1","end_of_study_questions_ufirst","awareness","0","0","0","0","none","1","25634"
"021719","19:19:57","922379062","513182747","5.0.14.0","1","2","end_of_study_questions_ufirst","influence_general","0","0","0","0","none","1","7828"
"021719","19:19:57","922379062","513182747","5.0.14.0","1","3","end_of_study_questions_ufirst","unintentionality","0","0","0","0","none","1","9254"
"021719","19:19:57","922379062","513182747","5.0.14.0","1","4","end_of_study_questions_ufirst","intentionality","0","0","0","0","none","1","4444"
"021719","19:19:57","922379062","513182747","5.0.14.0","1","5","end_of_study_questions_ufirst","self_exclusion_1","0","0","0","0","Yes, use my data","1","13325"
"021719","19:19:57","922379062","513182747","5.0.14.0","1","5","end_of_study_questions_ufirst","self_exclusion_1other","0","0","0","0","","1","13325"
"021719","19:21:42","324402491","220488774","5.0.14.0","1","1","end_of_study_questions_ifirst","awareness","0","0","0","0","all","1","21241"
"021719","19:21:42","324402491","220488774","5.0.14.0","1","2","end_of_study_questions_ifirst","influence_general","0","0","0","0","about half","1","7303"
"021719","19:21:42","324402491","220488774","5.0.14.0","1","3","end_of_study_questions_ifirst","intentionality","0","0","0","0","none","1","5329"
"021719","19:21:42","324402491","220488774","5.0.14.0","1","4","end_of_study_questions_ifirst","unintentionality","0","0","0","0","about half","1","6977"
"021719","19:21:42","324402491","220488774","5.0.14.0","1","5","end_of_study_questions_ifirst","self_exclusion_1","0","0","0","0","Yes, use my data","1","19263"
"021719","19:21:42","324402491","220488774","5.0.14.0","1","5","end_of_study_questions_ifirst","self_exclusion_1other","0","0","0","0","","1","19263"
"021719","19:25:11","320151897","969889635","5.0.14.0","1","1","end_of_study_questions_ufirst","awareness","0","0","0","0","a few","1","22118"
"021719","19:25:11","320151897","969889635","5.0.14.0","1","2","end_of_study_questions_ufirst","influence_general","0","0","0","0","a few","1","12313"
"021719","19:25:11","320151897","969889635","5.0.14.0","1","3","end_of_study_questions_ufirst","unintentionality","0","0","0","0","about half","1","7754"
"021719","19:25:11","320151897","969889635","5.0.14.0","1","4","end_of_study_questions_ufirst","intentionality","0","0","0","0","none","1","5626"
"021719","19:25:11","320151897","969889635","5.0.14.0","1","5","end_of_study_questions_ufirst","self_exclusion_1","0","0","0","0","Yes, use my data","1","11949"
"021719","19:25:11","320151897","969889635","5.0.14.0","1","5","end_of_study_questions_ufirst","self_exclusion_1other","0","0","0","0","","1","11949"
"021719","19:25:17","947678298","51871511","5.0.14.0","1","1","end_of_study_questions_ufirst","awareness","0","0","0","0","a few","1","29094"
"021719","19:25:17","947678298","51871511","5.0.14.0","1","2","end_of_study_questions_ufirst","influence_general","0","0","0","0","a few","1","8638"
"021719","19:25:17","947678298","51871511","5.0.14.0","1","3","end_of_study_questions_ufirst","unintentionality","0","0","0","0","about half","1","5647"
"021719","19:25:17","947678298","51871511","5.0.14.0","1","4","end_of_study_questions_ufirst","intentionality","0","0","0","0","a few","1","9289"
"021719","19:25:17","947678298","51871511","5.0.14.0","1","5","end_of_study_questions_ufirst","self_exclusion_1","0","0","0","0","Yes, use my data","1","6752"
"021719","19:25:17","947678298","51871511","5.0.14.0","1","5","end_of_study_questions_ufirst","self_exclusion_1other","0","0","0","0","","1","6752"
"021719","14:24:49","68667879","562016371","5.0.14.0","1","1","end_of_study_questions_ufirst","awareness","0","0","0","0","none","1","29150"
"021719","14:24:49","68667879","562016371","5.0.14.0","1","2","end_of_study_questions_ufirst","influence_general","0","0","0","0","none","1","11510"
"021719","14:24:49","68667879","562016371","5.0.14.0","1","3","end_of_study_questions_ufirst","unintentionality","0","0","0","0","most","1","19588"
"021719","14:24:49","68667879","562016371","5.0.14.0","1","4","end_of_study_questions_ufirst","intentionality","0","0","0","0","most","1","11505"
"021719","14:24:49","68667879","562016371","5.0.14.0","1","5","end_of_study_questions_ufirst","self_exclusion_1","0","0","0","0","Yes, use my data","1","21689"
"021719","14:24:49","68667879","562016371","5.0.14.0","1","5","end_of_study_questions_ufirst","self_exclusion_1other","0","0","0","0","","1","21689"
"021719","12:25:46","386363711","795560014","5.0.14.0","1","1","end_of_study_questions_ifirst","awareness","0","0","0","0","none","1","21825"
"021719","12:25:46","386363711","795560014","5.0.14.0","1","2","end_of_study_questions_ifirst","influence_general","0","0","0","0","none","1","9644"
"021719","12:25:46","386363711","795560014","5.0.14.0","1","3","end_of_study_questions_ifirst","intentionality","0","0","0","0","none","1","5593"
"021719","12:25:46","386363711","795560014","5.0.14.0","1","4","end_of_study_questions_ifirst","unintentionality","0","0","0","0","none","1","5743"
"021719","12:25:46","386363711","795560014","5.0.14.0","1","5","end_of_study_questions_ifirst","self_exclusion_1","0","0","0","0","No, exclude my data (please specify why):","1","61968"
"021719","12:25:46","386363711","795560014","5.0.14.0","1","5","end_of_study_questions_ifirst","self_exclusion_1other","0","0","0","0","I did not see any chinese characters during the second part of the study, if there was to be some link between the characters and my data that there would be none as I saw none of them.","1","61968"
"021819","08:28:14","422334518","68618777","5.0.14.0","1","1","end_of_study_questions_ufirst","awareness","0","0","0","0","none","1","17724"
"021819","08:28:14","422334518","68618777","5.0.14.0","1","2","end_of_study_questions_ufirst","influence_general","0","0","0","0","none","1","8288"
"021819","08:28:14","422334518","68618777","5.0.14.0","1","3","end_of_study_questions_ufirst","unintentionality","0","0","0","0","none","1","7400"
"021819","08:28:14","422334518","68618777","5.0.14.0","1","4","end_of_study_questions_ufirst","intentionality","0","0","0","0","none","1","7267"
"021819","08:28:14","422334518","68618777","5.0.14.0","1","5","end_of_study_questions_ufirst","self_exclusion_1","0","0","0","0","Yes, use my data","1","7057"
"021819","08:28:14","422334518","68618777","5.0.14.0","1","5","end_of_study_questions_ufirst","self_exclusion_1other","0","0","0","0","","1","7057"
"021719","14:29:04","797198160","54047640","5.0.14.0","1","1","end_of_study_questions_ifirst","awareness","0","0","0","0","all","1","22833"
"021719","14:29:04","797198160","54047640","5.0.14.0","1","2","end_of_study_questions_ifirst","influence_general","0","0","0","0","none","1","10795"
"021719","14:29:04","797198160","54047640","5.0.14.0","1","3","end_of_study_questions_ifirst","intentionality","0","0","0","0","none","1","9548"
"021719","14:29:04","797198160","54047640","5.0.14.0","1","4","end_of_study_questions_ifirst","unintentionality","0","0","0","0","none","1","4908"
"021719","14:29:04","797198160","54047640","5.0.14.0","1","5","end_of_study_questions_ifirst","self_exclusion_1","0","0","0","0","Yes, use my data","1","3785"
"021719","14:29:04","797198160","54047640","5.0.14.0","1","5","end_of_study_questions_ifirst","self_exclusion_1other","0","0","0","0","","1","3785"
"021719","14:30:13","770360997","416943389","5.0.14.0","1","1","end_of_study_questions_ufirst","awareness","0","0","0","0","most","1","19013"
"021719","14:30:13","770360997","416943389","5.0.14.0","1","2","end_of_study_questions_ufirst","influence_general","0","0","0","0","a few","1","8132"
"021719","14:30:13","770360997","416943389","5.0.14.0","1","3","end_of_study_questions_ufirst","unintentionality","0","0","0","0","a few","1","8329"
"021719","14:30:13","770360997","416943389","5.0.14.0","1","4","end_of_study_questions_ufirst","intentionality","0","0","0","0","a few","1","6335"
"021719","14:30:13","770360997","416943389","5.0.14.0","1","5","end_of_study_questions_ufirst","self_exclusion_1","0","0","0","0","Yes, use my data","1","8970"
"021719","14:30:13","770360997","416943389","5.0.14.0","1","5","end_of_study_questions_ufirst","self_exclusion_1other","0","0","0","0","","1","8970"
"021719","19:30:44","163935356","573131664","5.0.14.0","1","1","end_of_study_questions_ifirst","awareness","0","0","0","0","less than half","1","52720"
"021719","19:30:44","163935356","573131664","5.0.14.0","1","2","end_of_study_questions_ifirst","influence_general","0","0","0","0","about half","1","6297"
"021719","19:30:44","163935356","573131664","5.0.14.0","1","3","end_of_study_questions_ifirst","intentionality","0","0","0","0","less than half","1","4120"
"021719","19:30:44","163935356","573131664","5.0.14.0","1","4","end_of_study_questions_ifirst","unintentionality","0","0","0","0","less than half","1","2031"
"021719","19:30:44","163935356","573131664","5.0.14.0","1","5","end_of_study_questions_ifirst","self_exclusion_1","0","0","0","0","Yes, use my data","1","5112"
"021719","19:30:44","163935356","573131664","5.0.14.0","1","5","end_of_study_questions_ifirst","self_exclusion_1other","0","0","0","0","","1","5112"
"021719","19:31:16","271790498","14941024","5.0.14.0","1","1","end_of_study_questions_ifirst","awareness","0","0","0","0","none","1","11341"
"021719","19:31:16","271790498","14941024","5.0.14.0","1","2","end_of_study_questions_ifirst","influence_general","0","0","0","0","none","1","3895"
"021719","19:31:16","271790498","14941024","5.0.14.0","1","3","end_of_study_questions_ifirst","intentionality","0","0","0","0","none","1","3327"
"021719","19:31:16","271790498","14941024","5.0.14.0","1","4","end_of_study_questions_ifirst","unintentionality","0","0","0","0","none","1","2544"
"021719","19:31:16","271790498","14941024","5.0.14.0","1","5","end_of_study_questions_ifirst","self_exclusion_1","0","0","0","0","No, exclude my data (please specify why):","1","35763"
"021719","19:31:16","271790498","14941024","5.0.14.0","1","5","end_of_study_questions_ifirst","self_exclusion_1other","0","0","0","0","I'm not sure if there was an error with the program, but the images didn't stay on my screen so I wasn't able to judge them.","1","35763"
"021719","14:34:10","403384782","62383121","5.0.14.0","1","1","end_of_study_questions_ufirst","awareness","0","0","0","0","none","1","14399"
"021719","14:34:10","403384782","62383121","5.0.14.0","1","2","end_of_study_questions_ufirst","influence_general","0","0","0","0","none","1","8142"
"021719","14:34:10","403384782","62383121","5.0.14.0","1","3","end_of_study_questions_ufirst","unintentionality","0","0","0","0","none","1","9123"
"021719","14:34:10","403384782","62383121","5.0.14.0","1","4","end_of_study_questions_ufirst","intentionality","0","0","0","0","none","1","5164"
"021719","14:34:10","403384782","62383121","5.0.14.0","1","5","end_of_study_questions_ufirst","self_exclusion_1","0","0","0","0","Yes, use my data","1","5220"
"021719","14:34:10","403384782","62383121","5.0.14.0","1","5","end_of_study_questions_ufirst","self_exclusion_1other","0","0","0","0","","1","5220"
"021719","19:34:27","232069390","433438277","5.0.14.0","1","1","end_of_study_questions_ufirst","awareness","0","0","0","0","a few","1","10583"
"021719","19:34:27","232069390","433438277","5.0.14.0","1","2","end_of_study_questions_ufirst","influence_general","0","0","0","0","about half","1","5740"
"021719","19:34:27","232069390","433438277","5.0.14.0","1","3","end_of_study_questions_ufirst","unintentionality","0","0","0","0","a few","1","5466"
"021719","19:34:27","232069390","433438277","5.0.14.0","1","4","end_of_study_questions_ufirst","intentionality","0","0","0","0","a few","1","3552"
"021719","19:34:27","232069390","433438277","5.0.14.0","1","5","end_of_study_questions_ufirst","self_exclusion_1","0","0","0","0","No, exclude my data (please specify why):","1","80324"
"021719","19:34:27","232069390","433438277","5.0.14.0","1","5","end_of_study_questions_ufirst","self_exclusion_1other","0","0","0","0","I couldn't escape the programme and I do not think it was functioning correctly. I was seeing each image for less than a second and then seeing a box which looked like TV static not a painting. I don't know if this is a problem with my computer or a bug with the software. I hope this isn't an issue with all participants.","1","80324"
"021719","19:36:53","52547527","100980656","5.0.14.0","1","1","end_of_study_questions_ifirst","awareness","0","0","0","0","less than half","1","7052"
"021719","19:36:53","52547527","100980656","5.0.14.0","1","2","end_of_study_questions_ifirst","influence_general","0","0","0","0","none","1","10197"
"021719","19:36:53","52547527","100980656","5.0.14.0","1","3","end_of_study_questions_ifirst","intentionality","0","0","0","0","none","1","7313"
"021719","19:36:53","52547527","100980656","5.0.14.0","1","4","end_of_study_questions_ifirst","unintentionality","0","0","0","0","none","1","6188"
"021719","19:36:53","52547527","100980656","5.0.14.0","1","5","end_of_study_questions_ifirst","self_exclusion_1","0","0","0","0","Yes, use my data","1","4333"
"021719","19:36:53","52547527","100980656","5.0.14.0","1","5","end_of_study_questions_ifirst","self_exclusion_1other","0","0","0","0","","1","4333"
"021719","19:39:48","129564690","330933578","5.0.14.0","1","1","end_of_study_questions_ifirst","awareness","0","0","0","0","none","1","15351"
"021719","19:39:48","129564690","330933578","5.0.14.0","1","2","end_of_study_questions_ifirst","influence_general","0","0","0","0","a few","1","5474"
"021719","19:39:48","129564690","330933578","5.0.14.0","1","3","end_of_study_questions_ifirst","intentionality","0","0","0","0","none","1","5488"
"021719","19:39:48","129564690","330933578","5.0.14.0","1","4","end_of_study_questions_ifirst","unintentionality","0","0","0","0","about half","1","4178"
"021719","19:39:48","129564690","330933578","5.0.14.0","1","5","end_of_study_questions_ifirst","self_exclusion_1","0","0","0","0","Yes, use my data","1","9642"
"021719","19:39:48","129564690","330933578","5.0.14.0","1","5","end_of_study_questions_ifirst","self_exclusion_1other","0","0","0","0","","1","9642"
"021719","14:41:14","152197806","811196135","5.0.14.0","1","1","end_of_study_questions_ufirst","awareness","0","0","0","0","none","1","35486"
"021719","14:41:14","152197806","811196135","5.0.14.0","1","2","end_of_study_questions_ufirst","influence_general","0","0","0","0","a few","1","11936"
"021719","14:41:14","152197806","811196135","5.0.14.0","1","3","end_of_study_questions_ufirst","unintentionality","0","0","0","0","about half","1","10691"
"021719","14:41:14","152197806","811196135","5.0.14.0","1","4","end_of_study_questions_ufirst","intentionality","0","0","0","0","a few","1","7216"
"021719","14:41:14","152197806","811196135","5.0.14.0","1","5","end_of_study_questions_ufirst","self_exclusion_1","0","0","0","0","Yes, use my data","1","19170"
"021719","14:41:14","152197806","811196135","5.0.14.0","1","5","end_of_study_questions_ufirst","self_exclusion_1other","0","0","0","0","","1","19170"
"021719","19:40:59","727139871","68141534","5.0.14.0","1","1","end_of_study_questions_ifirst","awareness","0","0","0","0","more than half","1","37291"
"021719","19:40:59","727139871","68141534","5.0.14.0","1","2","end_of_study_questions_ifirst","influence_general","0","0","0","0","most","1","11441"
"021719","19:40:59","727139871","68141534","5.0.14.0","1","3","end_of_study_questions_ifirst","intentionality","0","0","0","0","most","1","5795"
"021719","19:40:59","727139871","68141534","5.0.14.0","1","4","end_of_study_questions_ifirst","unintentionality","0","0","0","0","about half","1","8973"
"021719","19:40:59","727139871","68141534","5.0.14.0","1","5","end_of_study_questions_ifirst","self_exclusion_1","0","0","0","0","No, exclude my data (please specify why):","1","67727"
"021719","19:40:59","727139871","68141534","5.0.14.0","1","5","end_of_study_questions_ifirst","self_exclusion_1other","0","0","0","0","I'm not sure that it worked correctly for me. I'm not sure what Chinese symbols you are refferring to. I did not see any paintings, but i saw the same reccuring black and white box-type image after every real image.","1","67727"
"021719","15:42:28","999868038","493216547","5.0.14.0","1","1","end_of_study_questions_ufirst","awareness","0","0","0","0","about half","1","98003"
"021719","15:42:28","999868038","493216547","5.0.14.0","1","2","end_of_study_questions_ufirst","influence_general","0","0","0","0","about half","1","4852"
"021719","15:42:28","999868038","493216547","5.0.14.0","1","3","end_of_study_questions_ufirst","unintentionality","0","0","0","0","about half","1","2519"
"021719","15:42:28","999868038","493216547","5.0.14.0","1","4","end_of_study_questions_ufirst","intentionality","0","0","0","0","about half","1","4483"
"021719","15:42:28","999868038","493216547","5.0.14.0","1","5","end_of_study_questions_ufirst","self_exclusion_1","0","0","0","0","Yes, use my data","1","11193"
"021719","15:42:28","999868038","493216547","5.0.14.0","1","5","end_of_study_questions_ufirst","self_exclusion_1other","0","0","0","0","","1","11193"
"021719","19:43:59","147918168","349287055","5.0.14.0","1","1","end_of_study_questions_ufirst","awareness","0","0","0","0","none","1","21640"
"021719","19:43:59","147918168","349287055","5.0.14.0","1","2","end_of_study_questions_ufirst","influence_general","0","0","0","0","none","1","13074"
"021719","19:43:59","147918168","349287055","5.0.14.0","1","3","end_of_study_questions_ufirst","unintentionality","0","0","0","0","none","1","7468"
"021719","19:43:59","147918168","349287055","5.0.14.0","1","4","end_of_study_questions_ufirst","intentionality","0","0","0","0","none","1","7427"
"021719","19:43:59","147918168","349287055","5.0.14.0","1","5","end_of_study_questions_ufirst","self_exclusion_1","0","0","0","0","Yes, use my data","1","8217"
"021719","19:43:59","147918168","349287055","5.0.14.0","1","5","end_of_study_questions_ufirst","self_exclusion_1other","0","0","0","0","","1","8217"
"021719","19:45:20","3400154","260249623","5.0.14.0","1","1","end_of_study_questions_ufirst","awareness","0","0","0","0","none","1","12107"
"021719","19:45:20","3400154","260249623","5.0.14.0","1","2","end_of_study_questions_ufirst","influence_general","0","0","0","0","none","1","3878"
"021719","19:45:20","3400154","260249623","5.0.14.0","1","3","end_of_study_questions_ufirst","unintentionality","0","0","0","0","none","1","5089"
"021719","19:45:20","3400154","260249623","5.0.14.0","1","4","end_of_study_questions_ufirst","intentionality","0","0","0","0","none","1","4138"
"021719","19:45:20","3400154","260249623","5.0.14.0","1","5","end_of_study_questions_ufirst","self_exclusion_1","0","0","0","0","Yes, use my data","1","5638"
"021719","19:45:20","3400154","260249623","5.0.14.0","1","5","end_of_study_questions_ufirst","self_exclusion_1other","0","0","0","0","","1","5638"
"021719","19:49:20","227821411","581537137","5.0.14.0","1","1","end_of_study_questions_ufirst","awareness","0","0","0","0","all","1","67871"
"021719","19:49:20","227821411","581537137","5.0.14.0","1","2","end_of_study_questions_ufirst","influence_general","0","0","0","0","more than half","1","14806"
"021719","19:49:20","227821411","581537137","5.0.14.0","1","3","end_of_study_questions_ufirst","unintentionality","0","0","0","0","more than half","1","14071"
"021719","19:49:20","227821411","581537137","5.0.14.0","1","4","end_of_study_questions_ufirst","intentionality","0","0","0","0","more than half","1","19054"
"021719","19:49:20","227821411","581537137","5.0.14.0","1","5","end_of_study_questions_ufirst","self_exclusion_1","0","0","0","0","Yes, use my data","1","24880"
"021719","19:49:20","227821411","581537137","5.0.14.0","1","5","end_of_study_questions_ufirst","self_exclusion_1other","0","0","0","0","","1","24880"
"021719","19:53:31","61187297","550660133","5.0.14.0","1","1","end_of_study_questions_ufirst","awareness","0","0","0","0","all","1","18761"
"021719","19:53:31","61187297","550660133","5.0.14.0","1","2","end_of_study_questions_ufirst","influence_general","0","0","0","0","a few","1","16242"
"021719","19:53:31","61187297","550660133","5.0.14.0","1","3","end_of_study_questions_ufirst","unintentionality","0","0","0","0","a few","1","5846"
"021719","19:53:31","61187297","550660133","5.0.14.0","1","4","end_of_study_questions_ufirst","intentionality","0","0","0","0","a few","1","6118"
"021719","19:53:31","61187297","550660133","5.0.14.0","1","5","end_of_study_questions_ufirst","self_exclusion_1","0","0","0","0","Yes, use my data","1","6508"
"021719","19:53:31","61187297","550660133","5.0.14.0","1","5","end_of_study_questions_ufirst","self_exclusion_1other","0","0","0","0","","1","6508"
"021719","11:55:22","991737245","332738912","5.0.14.0","1","1","end_of_study_questions_ifirst","awareness","0","0","0","0","all","1","25504"
"021719","11:55:22","991737245","332738912","5.0.14.0","1","2","end_of_study_questions_ifirst","influence_general","0","0","0","0","none","1","6862"
"021719","11:55:22","991737245","332738912","5.0.14.0","1","3","end_of_study_questions_ifirst","intentionality","0","0","0","0","a few","1","7614"
"021719","11:55:22","991737245","332738912","5.0.14.0","1","4","end_of_study_questions_ifirst","unintentionality","0","0","0","0","a few","1","4264"
"021719","11:55:22","991737245","332738912","5.0.14.0","1","5","end_of_study_questions_ifirst","self_exclusion_1","0","0","0","0","Yes, use my data","1","5685"
"021719","11:55:22","991737245","332738912","5.0.14.0","1","5","end_of_study_questions_ifirst","self_exclusion_1other","0","0","0","0","","1","5685"
