"date","time","group","subject","build","blocknum","trialnum","blockcode","trialcode","pretrialpause","posttrialpause","trialduration","trialtimeout","response","correct","latency"
"103019","12:40:23","704400703","495210064","5.0.14.0","1","1","demographics","ProlificCode","0","0","0","0","5d1f0e319eeb4b001689b623","1","15253"
"103019","12:40:23","704400703","495210064","5.0.14.0","1","2","demographics","age","0","0","0","0","22","1","2681"
"103019","12:40:23","704400703","495210064","5.0.14.0","1","3","demographics","gender","0","0","0","0","Male","1","5307"
"103019","12:40:39","636541255","275003775","5.0.14.0","1","1","demographics","ProlificCode","0","0","0","0","5d53ec0b713840001ad989df","1","60108"
"103019","12:40:39","636541255","275003775","5.0.14.0","1","2","demographics","age","0","0","0","0","29","1","3052"
"103019","12:40:39","636541255","275003775","5.0.14.0","1","3","demographics","gender","0","0","0","0","female","1","5150"
"103019","12:41:37","761112130","551921491","5.0.14.0","1","1","demographics","ProlificCode","0","0","0","0","5d6fdb0f9ec17d0001439116","1","12866"
"103019","12:41:37","761112130","551921491","5.0.14.0","1","2","demographics","age","0","0","0","0","18","1","3031"
"103019","12:41:37","761112130","551921491","5.0.14.0","1","3","demographics","gender","0","0","0","0","Male","1","5738"
"103019","12:41:53","465697696","751341253","5.0.14.0","1","1","demographics","ProlificCode","0","0","0","0","5d6fcf8055c35e0001e2e42b","1","22438"
"103019","12:41:53","465697696","751341253","5.0.14.0","1","2","demographics","age","0","0","0","0","20","1","3535"
"103019","12:41:53","465697696","751341253","5.0.14.0","1","3","demographics","gender","0","0","0","0","male","1","3694"
"103019","12:42:13","195861782","986671127","5.0.14.0","1","1","demographics","ProlificCode","0","0","0","0","5d7ab56fc0de940001cef5a5","1","11604"
"103019","12:42:13","195861782","986671127","5.0.14.0","1","2","demographics","age","0","0","0","0","55","1","3213"
"103019","12:42:13","195861782","986671127","5.0.14.0","1","3","demographics","gender","0","0","0","0","male","1","4643"
"103019","08:42:34","519729384","841961967","5.0.14.0","1","1","demographics","ProlificCode","0","0","0","0","5dab468bccaa330014e11cd1","1","8566"
"103019","08:42:34","519729384","841961967","5.0.14.0","1","2","demographics","age","0","0","0","0","28","1","2316"
"103019","08:42:34","519729384","841961967","5.0.14.0","1","3","demographics","gender","0","0","0","0","Female","1","5290"
"103019","05:42:39","414941222","737173805","5.0.14.0","1","1","demographics","ProlificCode","0","0","0","0","5d849f4e7bfaaa0019b89d66","1","23132"
"103019","05:42:39","414941222","737173805","5.0.14.0","1","2","demographics","age","0","0","0","0","34","1","3096"
"103019","05:42:39","414941222","737173805","5.0.14.0","1","3","demographics","gender","0","0","0","0","male","1","4854"
"103019","12:43:00","929990530","836278210","5.0.14.0","1","1","demographics","ProlificCode","0","0","0","0","5d07c8530b54cc0019dae8e6","1","4494"
"103019","12:43:00","929990530","836278210","5.0.14.0","1","2","demographics","age","0","0","0","0","48","1","4156"
"103019","12:43:00","929990530","836278210","5.0.14.0","1","3","demographics","gender","0","0","0","0","Female","1","4572"
"103019","12:44:10","589092415","874754605","5.0.14.0","1","1","demographics","ProlificCode","0","0","0","0","5d35a55e1e904800190f0f41","1","11238"
"103019","12:44:10","589092415","874754605","5.0.14.0","1","2","demographics","age","0","0","0","0","46","1","4057"
"103019","12:44:10","589092415","874754605","5.0.14.0","1","3","demographics","gender","0","0","0","0","Male","1","8833"
"103019","12:44:43","827434656","733722337","5.0.14.0","1","1","demographics","ProlificCode","0","0","0","0","5db17781a669260011ca8e3d","1","21188"
"103019","12:44:43","827434656","733722337","5.0.14.0","1","2","demographics","age","0","0","0","0","25","1","6219"
"103019","12:44:43","827434656","733722337","5.0.14.0","1","3","demographics","gender","0","0","0","0","Male","1","3319"
"103019","12:45:21","582274394","867638461","5.0.14.0","1","1","demographics","ProlificCode","0","0","0","0","5b7ed9bbed60e90001260c26","1","4885"
"103019","12:45:21","582274394","867638461","5.0.14.0","1","2","demographics","age","0","0","0","0","49","1","2948"
"103019","12:45:21","582274394","867638461","5.0.14.0","1","3","demographics","gender","0","0","0","0","female","1","4317"
"103019","12:45:30","473849136","759213201","5.0.14.0","1","1","demographics","ProlificCode","0","0","0","0","5b9d34f647e9390001256d7e","1","3678"
"103019","12:45:30","473849136","759213201","5.0.14.0","1","2","demographics","age","0","0","0","0","33","1","2119"
"103019","12:45:30","473849136","759213201","5.0.14.0","1","3","demographics","gender","0","0","0","0","Female","1","3413"
"103019","12:44:24","675872108","113583025","5.0.14.0","1","1","demographics","ProlificCode","0","0","0","0","5a9a952cf6dfdd0001ea8e9c","1","69113"
"103019","12:44:24","675872108","113583025","5.0.14.0","1","2","demographics","age","0","0","0","0","30","1","2778"
"103019","12:44:24","675872108","113583025","5.0.14.0","1","3","demographics","gender","0","0","0","0","female","1","6008"
"103019","12:47:08","312941218","143055482","5.0.14.0","1","1","demographics","ProlificCode","0","0","0","0","5d3af155255c1f0001b750b0","1","12531"
"103019","12:47:08","312941218","143055482","5.0.14.0","1","2","demographics","age","0","0","0","0","30","1","2430"
"103019","12:47:08","312941218","143055482","5.0.14.0","1","3","demographics","gender","0","0","0","0","female","1","4088"
"103019","12:47:12","810573711","95937785","5.0.14.0","1","1","demographics","ProlificCode","0","0","0","0","5d66f5f332588c00014fe00e","1","19804"
"103019","12:47:12","810573711","95937785","5.0.14.0","1","2","demographics","age","0","0","0","0","24","1","3627"
"103019","12:47:12","810573711","95937785","5.0.14.0","1","3","demographics","gender","0","0","0","0","male","1","4004"
"103019","12:47:25","166199798","259912120","5.0.14.0","1","1","demographics","ProlificCode","0","0","0","0","5d960994b82ce10017fc14e9","1","14143"
"103019","12:47:25","166199798","259912120","5.0.14.0","1","2","demographics","age","0","0","0","0","33","1","4422"
"103019","12:47:25","166199798","259912120","5.0.14.0","1","3","demographics","gender","0","0","0","0","Male","1","3506"
"103019","12:47:14","189664396","283376717","5.0.14.0","1","1","demographics","ProlificCode","0","0","0","0","","1","68067"
"103019","12:48:36","189664396","283376717","5.0.14.0","1","1","demographics","ProlificCode","0","0","0","0","5db2e894c32241000af05045","1","3328"
"103019","12:48:36","189664396","283376717","5.0.14.0","1","2","demographics","age","0","0","0","0","34","1","2863"
"103019","12:48:36","189664396","283376717","5.0.14.0","1","3","demographics","gender","0","0","0","0","Male","1","3371"
"103019","12:47:06","803809330","49868505","5.0.14.0","1","1","demographics","ProlificCode","0","0","0","0","5d6dfeb99020b1001fcad4c1","1","113411"
"103019","12:47:06","803809330","49868505","5.0.14.0","1","2","demographics","age","0","0","0","0","23","1","2426"
"103019","12:47:06","803809330","49868505","5.0.14.0","1","3","demographics","gender","0","0","0","0","female","1","3357"
"103019","08:48:30","646335545","208624648","5.0.14.0","1","1","demographics","ProlificCode","0","0","0","0","5c66ffc6ad596e000179f721","1","21007"
"103019","08:48:30","646335545","208624648","5.0.14.0","1","2","demographics","age","0","0","0","0","54","1","3295"
"103019","08:48:30","646335545","208624648","5.0.14.0","1","3","demographics","gender","0","0","0","0","male","1","5225"
"103019","06:49:47","970903950","582243464","5.0.14.0","1","1","demographics","ProlificCode","0","0","0","0","5d61c0b6cd19cf0001312417","1","6879"
"103019","06:49:47","970903950","582243464","5.0.14.0","1","2","demographics","age","0","0","0","0","35","1","2154"
"103019","06:49:47","970903950","582243464","5.0.14.0","1","3","demographics","gender","0","0","0","0","Male","1","3454"
"103019","12:49:42","572821622","934359111","5.0.14.0","1","1","demographics","ProlificCode","0","0","0","0","5db15c4bef9f770012fc8805","1","6680"
"103019","12:49:42","572821622","934359111","5.0.14.0","1","2","demographics","age","0","0","0","0","33","1","4474"
"103019","12:49:42","572821622","934359111","5.0.14.0","1","3","demographics","gender","0","0","0","0","female","1","6420"
"103019","07:49:48","226566957","837906463","5.0.14.0","1","1","demographics","ProlificCode","0","0","0","0","5da812b2e627d7001017ae7d","1","14247"
"103019","07:49:48","226566957","837906463","5.0.14.0","1","2","demographics","age","0","0","0","0","21","1","2644"
"103019","07:49:48","226566957","837906463","5.0.14.0","1","3","demographics","gender","0","0","0","0","Male","1","3003"
"103019","12:51:42","740257063","986316227","5.0.14.0","1","1","demographics","ProlificCode","0","0","0","0","59064aaa6a12d70001f0aa1b","1","5985"
"103019","12:51:42","740257063","986316227","5.0.14.0","1","2","demographics","age","0","0","0","0","23","1","3324"
"103019","12:51:42","740257063","986316227","5.0.14.0","1","3","demographics","gender","0","0","0","0","Female","1","4747"
"103019","12:50:40","638353373","200642476","5.0.14.0","1","1","demographics","ProlificCode","0","0","0","0","5d92674f30a9a700130bdd3d","1","76520"
"103019","12:50:40","638353373","200642476","5.0.14.0","1","2","demographics","age","0","0","0","0","26","1","4718"
"103019","12:50:40","638353373","200642476","5.0.14.0","1","3","demographics","gender","0","0","0","0","FEMALE","1","40480"
"103019","08:52:32","115560551","324751192","5.0.14.0","1","1","demographics","ProlificCode","0","0","0","0","5d82f39249c4070019e969db","1","16525"
"103019","08:52:32","115560551","324751192","5.0.14.0","1","2","demographics","age","0","0","0","0","26","1","4940"
"103019","08:52:32","115560551","324751192","5.0.14.0","1","3","demographics","gender","0","0","0","0","m","1","3032"
"103019","08:52:24","191378403","869145809","5.0.14.0","1","1","demographics","ProlificCode","0","0","0","0","5cf8791c9a6b5600150360a1","1","17779"
"103019","08:52:24","191378403","869145809","5.0.14.0","1","2","demographics","age","0","0","0","0","36","1","3785"
"103019","08:52:24","191378403","869145809","5.0.14.0","1","3","demographics","gender","0","0","0","0","female","1","5594"
"103019","08:52:59","249352544","458543186","5.0.14.0","1","1","demographics","ProlificCode","0","0","0","0","5d4236a20799c40001d2ac40","1","13119"
"103019","08:52:59","249352544","458543186","5.0.14.0","1","2","demographics","age","0","0","0","0","31","1","5979"
"103019","08:52:59","249352544","458543186","5.0.14.0","1","3","demographics","gender","0","0","0","0","female","1","5398"
"103019","12:52:49","587225167","83086372","5.0.14.0","1","1","demographics","ProlificCode","0","0","0","0","5db2e29357208e00095f0117","1","17137"
"103019","12:52:49","587225167","83086372","5.0.14.0","1","2","demographics","age","0","0","0","0","30","1","2725"
"103019","12:52:49","587225167","83086372","5.0.14.0","1","3","demographics","gender","0","0","0","0","female","1","5251"
"103019","08:51:58","276063162","838352248","5.0.14.0","1","1","demographics","ProlificCode","0","0","0","0","5da738c2fbeead001454c0af","1","27790"
"103019","08:51:58","276063162","838352248","5.0.14.0","1","2","demographics","age","0","0","0","0","55","1","3462"
"103019","08:51:58","276063162","838352248","5.0.14.0","1","3","demographics","gender","0","0","0","0","female","1","6998"
"103019","08:53:43","712894325","922084966","5.0.14.0","1","1","demographics","ProlificCode","0","0","0","0","5da9fec949bab300155afb7f","1","8836"
"103019","08:53:43","712894325","922084966","5.0.14.0","1","2","demographics","age","0","0","0","0","45","1","3564"
"103019","08:53:43","712894325","922084966","5.0.14.0","1","3","demographics","gender","0","0","0","0","f","1","6368"
"103019","12:53:46","931269817","493558913","5.0.14.0","1","1","demographics","ProlificCode","0","0","0","0","5d93b723e248c2001767fafa","1","7386"
"103019","12:53:46","931269817","493558913","5.0.14.0","1","2","demographics","age","0","0","0","0","41","1","3752"
"103019","12:53:46","931269817","493558913","5.0.14.0","1","3","demographics","gender","0","0","0","0","female","1","5241"
"103019","08:52:41","631012653","126873854","5.0.14.0","1","1","demographics","ProlificCode","0","0","0","0","5c6480b5f9b6300001c9d52c","1","75047"
"103019","08:52:41","631012653","126873854","5.0.14.0","1","2","demographics","age","0","0","0","0","57","1","3666"
"103019","08:52:41","631012653","126873854","5.0.14.0","1","3","demographics","gender","0","0","0","0","male","1","5181"
"103019","08:54:56","399541088","752800955","5.0.14.0","1","1","demographics","ProlificCode","0","0","0","0","5c82a8cdfff8430015e9942f","1","9025"
"103019","08:54:56","399541088","752800955","5.0.14.0","1","2","demographics","age","0","0","0","0","32","1","2418"
"103019","08:54:56","399541088","752800955","5.0.14.0","1","3","demographics","gender","0","0","0","0","Male","1","4105"
"103019","12:54:10","611121030","820311677","5.0.14.0","1","1","demographics","ProlificCode","0","0","0","0","5abb8dcb7ccedb0001b7f0d7","1","40633"
"103019","12:54:10","611121030","820311677","5.0.14.0","1","2","demographics","age","0","0","0","0","63","1","3670"
"103019","12:54:10","611121030","820311677","5.0.14.0","1","3","demographics","gender","0","0","0","0","female","1","5248"
"103019","12:54:47","829636636","440976148","5.0.14.0","1","1","demographics","ProlificCode","0","0","0","0","5d53b4f0147a7d00195aaefd ","1","6837"
"103019","12:54:47","829636636","440976148","5.0.14.0","1","2","demographics","age","0","0","0","0","32","1","3942"
"103019","12:54:47","829636636","440976148","5.0.14.0","1","3","demographics","gender","0","0","0","0","male","1","4297"
"103019","12:54:49","466007465","712066633","5.0.14.0","1","1","demographics","ProlificCode","0","0","0","0","5d670a59aa02520017b1a61e","1","8039"
"103019","12:54:49","466007465","712066633","5.0.14.0","1","2","demographics","age","0","0","0","0","20","1","5521"
"103019","12:54:49","466007465","712066633","5.0.14.0","1","3","demographics","gender","0","0","0","0","male","1","3491"
"103019","12:54:55","169047189","731336277","5.0.14.0","1","1","demographics","ProlificCode","0","0","0","0","5db48848cbe43e000c3c6c2d","1","26632"
"103019","12:54:55","169047189","731336277","5.0.14.0","1","2","demographics","age","0","0","0","0","42","1","3622"
"103019","12:54:55","169047189","731336277","5.0.14.0","1","3","demographics","gender","0","0","0","0","female","1","5126"
"103019","12:55:20","428906500","925047183","5.0.14.0","1","1","demographics","ProlificCode","0","0","0","0","590dd1c5584166000110eb16","1","6512"
"103019","12:55:20","428906500","925047183","5.0.14.0","1","2","demographics","age","0","0","0","0","58","1","4386"
"103019","12:55:20","428906500","925047183","5.0.14.0","1","3","demographics","gender","0","0","0","0","female","1","5686"
"103019","12:55:29","347299638","25067060","5.0.14.0","1","1","demographics","ProlificCode","0","0","0","0","5da767d89d0c290014c9851a","1","10497"
"103019","12:55:29","347299638","25067060","5.0.14.0","1","2","demographics","age","0","0","0","0","18","1","2524"
"103019","12:55:29","347299638","25067060","5.0.14.0","1","3","demographics","gender","0","0","0","0","male","1","4163"
"103019","12:55:08","807975445","370264543","5.0.14.0","1","1","demographics","ProlificCode","0","0","0","0","5cb7be4c30e566001a8b04b5","1","34685"
"103019","12:55:08","807975445","370264543","5.0.14.0","1","2","demographics","age","0","0","0","0","63","1","4261"
"103019","12:55:08","807975445","370264543","5.0.14.0","1","3","demographics","gender","0","0","0","0","female","1","5832"
"103019","23:26:10","279060299","632320163","5.0.14.0","1","1","demographics","ProlificCode","0","0","0","0","5d53fd59f6d6da00011209c0","1","21306"
"103019","23:26:10","279060299","632320163","5.0.14.0","1","2","demographics","age","0","0","0","0","21","1","3515"
"103019","23:26:10","279060299","632320163","5.0.14.0","1","3","demographics","gender","0","0","0","0","Male","1","3635"
"103019","13:04:48","155602372","517139861","5.0.14.0","1","1","demographics","ProlificCode","0","0","0","0","5d94737c39f56200161325d0","1","3912"
"103019","13:04:48","155602372","517139861","5.0.14.0","1","2","demographics","age","0","0","0","0","26","1","3737"
"103019","13:04:48","155602372","517139861","5.0.14.0","1","3","demographics","gender","0","0","0","0","Female","1","6024"
"103019","12:56:44","390943741","68711165","5.0.14.0","1","1","demographics","ProlificCode","0","0","0","0","5d543fb64ffa680001b61bd9","1","4421"
"103019","12:56:44","390943741","68711165","5.0.14.0","1","2","demographics","age","0","0","0","0","26","1","2855"
"103019","12:56:44","390943741","68711165","5.0.14.0","1","3","demographics","gender","0","0","0","0","Female","1","4824"
"103019","12:56:49","834728898","512496310","5.0.14.0","1","1","demographics","ProlificCode","0","0","0","0","5d9a1da92eb8390299ab6663","1","4398"
"103019","12:56:49","834728898","512496310","5.0.14.0","1","2","demographics","age","0","0","0","0","35 ","1","5600"
"103019","12:56:49","834728898","512496310","5.0.14.0","1","3","demographics","gender","0","0","0","0","F","1","3470"
"103019","12:57:13","791951834","1142490","5.0.14.0","1","1","demographics","ProlificCode","0","0","0","0","5d5c6cccf6876200019009e8","1","15842"
"103019","12:57:13","791951834","1142490","5.0.14.0","1","2","demographics","age","0","0","0","0","23","1","2682"
"103019","12:57:13","791951834","1142490","5.0.14.0","1","3","demographics","gender","0","0","0","0","female","1","2626"
"103019","12:57:58","242115074","451007594","5.0.14.0","1","1","demographics","ProlificCode","0","0","0","0","5db1cce95a87d4000964b4fe","1","7648"
"103019","12:57:58","242115074","451007594","5.0.14.0","1","2","demographics","age","0","0","0","0","19","1","3275"
"103019","12:57:58","242115074","451007594","5.0.14.0","1","3","demographics","gender","0","0","0","0","Male","1","3659"
"103019","12:58:02","139802943","702092035","5.0.14.0","1","1","demographics","ProlificCode","0","0","0","0","5daa0396317ac50016e589e0","1","29450"
"103019","12:58:02","139802943","702092035","5.0.14.0","1","2","demographics","age","0","0","0","0","20","1","4795"
"103019","12:58:02","139802943","702092035","5.0.14.0","1","3","demographics","gender","0","0","0","0","Female","1","3446"
"103019","12:57:47","679941198","242230305","5.0.14.0","1","1","demographics","ProlificCode","0","0","0","0","5db05f04cb37170014487a57","1","13779"
"103019","12:57:47","679941198","242230305","5.0.14.0","1","2","demographics","age","0","0","0","0","18","1","4277"
"103019","12:57:47","679941198","242230305","5.0.14.0","1","3","demographics","gender","0","0","0","0","Male","1","4005"
"103019","12:58:12","55816808","618105897","5.0.14.0","1","1","demographics","ProlificCode","0","0","0","0","5d3508c49ed612000115cda9","1","8659"
"103019","12:58:12","55816808","618105897","5.0.14.0","1","2","demographics","age","0","0","0","0","22","1","4108"
"103019","12:58:12","55816808","618105897","5.0.14.0","1","3","demographics","gender","0","0","0","0","Male","1","5927"
"103019","12:58:43","376483269","729743135","5.0.14.0","1","1","demographics","ProlificCode","0","0","0","0","5d9f7c84d8034b0016b65d29","1","8291"
"103019","12:58:43","376483269","729743135","5.0.14.0","1","2","demographics","age","0","0","0","0","18","1","9610"
"103019","12:58:43","376483269","729743135","5.0.14.0","1","3","demographics","gender","0","0","0","0","male","1","6786"
"103019","12:54:47","96296531","774063942","5.0.14.0","1","1","demographics","ProlificCode","0","0","0","0","5b7ed9bbed60e90001260c26","1","259777"
"103019","12:54:47","96296531","774063942","5.0.14.0","1","2","demographics","age","0","0","0","0","49","1","3612"
"103019","12:54:47","96296531","774063942","5.0.14.0","1","3","demographics","gender","0","0","0","0","female","1","4572"
"103019","12:58:52","723498074","85035571","5.0.14.0","1","1","demographics","ProlificCode","0","0","0","0","5d6e570e8c129300166dba20","1","17916"
"103019","12:58:52","723498074","85035571","5.0.14.0","1","2","demographics","age","0","0","0","0","42","1","4840"
"103019","12:58:52","723498074","85035571","5.0.14.0","1","3","demographics","gender","0","0","0","0","female","1","8785"
"103019","09:04:37","118729054","681018145","5.0.14.0","1","1","demographics","ProlificCode","0","0","0","0","5d49c9e6e31611001991d60d","1","18701"
"103019","09:04:37","118729054","681018145","5.0.14.0","1","2","demographics","age","0","0","0","0","30","1","35829"
"103019","09:04:37","118729054","681018145","5.0.14.0","1","3","demographics","gender","0","0","0","0","Male","1","4091"
"103019","12:59:11","506690470","859652210","5.0.14.0","1","1","demographics","ProlificCode","0","0","0","0","5d78008f721b6c0001880616","1","14932"
"103019","12:59:11","506690470","859652210","5.0.14.0","1","2","demographics","age","0","0","0","0","25","1","5489"
"103019","12:59:11","506690470","859652210","5.0.14.0","1","3","demographics","gender","0","0","0","0","female","1","5025"
"103019","12:59:36","424567113","518279437","5.0.14.0","1","1","demographics","ProlificCode","0","0","0","0","5ca612a8d24640001432512c","1","5158"
"103019","12:59:36","424567113","518279437","5.0.14.0","1","2","demographics","age","0","0","0","0","47","1","4994"
"103019","12:59:36","424567113","518279437","5.0.14.0","1","3","demographics","gender","0","0","0","0","male","1","7331"
"103019","12:59:53","712198788","958257953","5.0.14.0","1","1","demographics","ProlificCode","0","0","0","0","5cb1e0ccc9ca1c00181d3e3c","1","6366"
"103019","12:59:53","712198788","958257953","5.0.14.0","1","2","demographics","age","0","0","0","0","23","1","3221"
"103019","12:59:53","712198788","958257953","5.0.14.0","1","3","demographics","gender","0","0","0","0","female","1","4562"
"103019","13:00:01","296896163","650156029","5.0.14.0","1","1","demographics","ProlificCode","0","0","0","0","5d96dc63334c5c00175db42c","1","9852"
"103019","13:00:01","296896163","650156029","5.0.14.0","1","2","demographics","age","0","0","0","0","55","1","3489"
"103019","13:00:01","296896163","650156029","5.0.14.0","1","3","demographics","gender","0","0","0","0","Male","1","5534"
"103019","13:00:00","377474426","873335613","5.0.14.0","1","1","demographics","ProlificCode","0","0","0","0","","1","37156"
"103019","12:59:10","636370295","997907784","5.0.14.0","1","1","demographics","ProlificCode","0","0","0","0","5d7a3650eb5d1900016","1","80397"
"103019","12:59:10","636370295","997907784","5.0.14.0","1","2","demographics","age","0","0","0","0","29","1","3303"
"103019","12:59:10","636370295","997907784","5.0.14.0","1","3","demographics","gender","0","0","0","0","Female","1","4060"
"103019","06:00:42","827655951","189193437","5.0.14.0","1","1","demographics","ProlificCode","0","0","0","0","5c0cb39d4bc2690001b63c09","1","11346"
"103019","06:00:42","827655951","189193437","5.0.14.0","1","2","demographics","age","0","0","0","0","24","1","2926"
"103019","06:00:42","827655951","189193437","5.0.14.0","1","3","demographics","gender","0","0","0","0","male","1","4700"
"103019","13:01:05","330236025","892525113","5.0.14.0","1","1","demographics","ProlificCode","0","0","0","0","5d7cb3b8647c5800013a0334","1","8170"
"103019","13:01:05","330236025","892525113","5.0.14.0","1","2","demographics","age","0","0","0","0","32","1","2854"
"103019","13:01:05","330236025","892525113","5.0.14.0","1","3","demographics","gender","0","0","0","0","Male","1","2151"
"103019","13:00:51","890780790","252318275","5.0.14.0","1","1","demographics","ProlificCode","0","0","0","0","5da1b299de4ab0001989e3ff","1","25429"
"103019","13:00:51","890780790","252318275","5.0.14.0","1","2","demographics","age","0","0","0","0","18","1","4010"
"103019","13:00:51","890780790","252318275","5.0.14.0","1","3","demographics","gender","0","0","0","0","Male","1","4539"
"103019","13:01:02","183075062","678936250","5.0.14.0","1","1","demographics","ProlificCode","0","0","0","0","5d56871611946490001acd01913","1","36997"
"103019","13:01:02","183075062","678936250","5.0.14.0","1","2","demographics","age","0","0","0","0","46","1","3917"
"103019","13:01:02","183075062","678936250","5.0.14.0","1","3","demographics","gender","0","0","0","0","female","1","5305"
"103019","09:01:22","260529877","506589044","5.0.14.0","1","1","demographics","ProlificCode","0","0","0","0","5d96fe713cc967001852334f","1","8258"
"103019","09:01:22","260529877","506589044","5.0.14.0","1","2","demographics","age","0","0","0","0","58","1","4008"
"103019","09:01:22","260529877","506589044","5.0.14.0","1","3","demographics","gender","0","0","0","0","Female","1","5178"
"103019","09:01:40","794340601","263078795","5.0.14.0","1","1","demographics","ProlificCode","0","0","0","0","5d02436233ef7200190d44df","1","14626"
"103019","09:01:40","794340601","263078795","5.0.14.0","1","2","demographics","age","0","0","0","0","20","1","10933"
"103019","09:01:40","794340601","263078795","5.0.14.0","1","3","demographics","gender","0","0","0","0","Male","1","3780"
"103019","13:01:49","703700391","912891039","5.0.14.0","1","1","demographics","ProlificCode","0","0","0","0","5daecdf9711b3c00120fd7c4","1","14352"
"103019","13:01:49","703700391","912891039","5.0.14.0","1","2","demographics","age","0","0","0","0","23","1","3339"
"103019","13:01:49","703700391","912891039","5.0.14.0","1","3","demographics","gender","0","0","0","0","Female","1","2570"
"103019","08:01:52","617103359","978640849","5.0.14.0","1","1","demographics","ProlificCode","0","0","0","0","5db72ba3ae256f000d56c96b","1","11584"
"103019","08:01:52","617103359","978640849","5.0.14.0","1","2","demographics","age","0","0","0","0","29","1","4107"
"103019","08:01:52","617103359","978640849","5.0.14.0","1","3","demographics","gender","0","0","0","0","male","1","4189"
"103019","13:02:09","974310377","335847867","5.0.14.0","1","1","demographics","ProlificCode","0","0","0","0","5d73e916515c8b001bed0c5d","1","4543"
"103019","13:02:09","974310377","335847867","5.0.14.0","1","2","demographics","age","0","0","0","0","30","1","2847"
"103019","13:02:09","974310377","335847867","5.0.14.0","1","3","demographics","gender","0","0","0","0","Male","1","3297"
"103019","13:01:39","799973233","477740652","5.0.14.0","1","1","demographics","ProlificCode","0","0","0","0","5d9c8a8033801b00145a6803","1","26843"
"103019","13:01:39","799973233","477740652","5.0.14.0","1","2","demographics","age","0","0","0","0","44","1","3436"
"103019","13:01:39","799973233","477740652","5.0.14.0","1","3","demographics","gender","0","0","0","0","female","1","5287"
"103019","13:02:00","17450497","950544410","5.0.14.0","1","1","demographics","ProlificCode","0","0","0","0","5d9cec88ef665a001630b4cc","1","12972"
"103019","13:02:00","17450497","950544410","5.0.14.0","1","2","demographics","age","0","0","0","0","37 ","1","6561"
"103019","13:02:00","17450497","950544410","5.0.14.0","1","3","demographics","gender","0","0","0","0","Female","1","4272"
"103019","08:02:11","419413427","981702513","5.0.14.0","1","1","demographics","ProlificCode","0","0","0","0","5d54293959f4b10001686583","1","5133"
"103019","08:02:11","419413427","981702513","5.0.14.0","1","2","demographics","age","0","0","0","0","34","1","1914"
"103019","08:02:11","419413427","981702513","5.0.14.0","1","3","demographics","gender","0","0","0","0","F","1","2252"
"103019","13:02:03","440915494","650106134","5.0.14.0","1","1","demographics","ProlificCode","0","0","0","0","5d78390692ac4000152356ca","1","13423"
"103019","13:02:03","440915494","650106134","5.0.14.0","1","2","demographics","age","0","0","0","0","22","1","2853"
"103019","13:02:03","440915494","650106134","5.0.14.0","1","3","demographics","gender","0","0","0","0","Male","1","3579"
"103019","13:02:30","893435843","102328359","5.0.14.0","1","1","demographics","ProlificCode","0","0","0","0","5d84a7367167930001fd3ea3","1","10999"
"103019","13:02:30","893435843","102328359","5.0.14.0","1","2","demographics","age","0","0","0","0","40","1","2673"
"103019","13:02:30","893435843","102328359","5.0.14.0","1","3","demographics","gender","0","0","0","0","Male","1","3327"
"103019","08:00:27","95540799","657829893","5.0.14.0","1","1","demographics","ProlificCode","0","0","0","0","5d681e3182455d00175cabc5","1","66187"
"103019","08:00:27","95540799","657829893","5.0.14.0","1","2","demographics","age","0","0","0","0","40","1","2385"
"103019","08:00:27","95540799","657829893","5.0.14.0","1","3","demographics","gender","0","0","0","0","female","1","3388"
"103019","13:02:41","170124688","638862874","5.0.14.0","1","1","demographics","ProlificCode","0","0","0","0","5ca9c2fd78037a000161046d","1","5748"
"103019","13:02:41","170124688","638862874","5.0.14.0","1","2","demographics","age","0","0","0","0","34","1","4387"
"103019","13:02:41","170124688","638862874","5.0.14.0","1","3","demographics","gender","0","0","0","0","Female","1","5153"
"103119","00:03:22","272019591","480893473","5.0.14.0","1","1","demographics","ProlificCode","0","0","0","0","5d22ebc8db936c0015be7b3c","1","18458"
"103119","00:03:22","272019591","480893473","5.0.14.0","1","2","demographics","age","0","0","0","0","50","1","4123"
"103119","00:03:22","272019591","480893473","5.0.14.0","1","3","demographics","gender","0","0","0","0","Male","1","4186"
"103019","08:03:54","312500554","482386297","5.0.14.0","1","1","demographics","ProlificCode","0","0","0","0","5da42ea540d1c50015ded274","1","5006"
"103019","08:03:54","312500554","482386297","5.0.14.0","1","2","demographics","age","0","0","0","0","42","1","3639"
"103019","08:03:54","312500554","482386297","5.0.14.0","1","3","demographics","gender","0","0","0","0","Female","1","6233"
"103019","13:04:10","235480376","989421210","5.0.14.0","1","1","demographics","ProlificCode","0","0","0","0","5d3f020cfd9694001a2d1a1c","1","16316"
"103019","13:04:10","235480376","989421210","5.0.14.0","1","2","demographics","age","0","0","0","0","27","1","2884"
"103019","13:04:10","235480376","989421210","5.0.14.0","1","3","demographics","gender","0","0","0","0","Male","1","2939"
"103019","09:03:18","298339770","660175383","5.0.14.0","1","1","demographics","ProlificCode","0","0","0","0","5db6e588867c22000dfffa54","1","85527"
"103019","09:03:18","298339770","660175383","5.0.14.0","1","2","demographics","age","0","0","0","0","18","1","7759"
"103019","09:03:18","298339770","660175383","5.0.14.0","1","3","demographics","gender","0","0","0","0","Female","1","5248"
"103019","09:04:33","425462159","179402998","5.0.14.0","1","1","demographics","ProlificCode","0","0","0","0","5d4254db5b2c430001418a3c","1","4743"
"103019","09:04:33","425462159","179402998","5.0.14.0","1","2","demographics","age","0","0","0","0","36 ","1","6347"
"103019","09:04:33","425462159","179402998","5.0.14.0","1","3","demographics","gender","0","0","0","0","female","1","9711"
"103019","13:04:53","50613392","804554224","5.0.14.0","1","1","demographics","ProlificCode","0","0","0","0","5d971ac046a93c0017005bf1","1","5451"
"103019","13:04:53","50613392","804554224","5.0.14.0","1","2","demographics","age","0","0","0","0","25","1","3367"
"103019","13:04:53","50613392","804554224","5.0.14.0","1","3","demographics","gender","0","0","0","0","female","1","6031"
"103019","23:35:17","384893787","62661212","5.0.14.0","1","1","demographics","ProlificCode","0","0","0","0","5d53fd59f6d6da00011209c0","1","12890"
"103019","23:35:17","384893787","62661212","5.0.14.0","1","2","demographics","age","0","0","0","0","21","1","2937"
"103019","23:35:17","384893787","62661212","5.0.14.0","1","3","demographics","gender","0","0","0","0","Male","1","4331"
"103019","13:05:32","733031124","666441811","5.0.14.0","1","1","demographics","ProlificCode","0","0","0","0","5da4bebb23b38c0012c958bb","1","11794"
"103019","13:05:32","733031124","666441811","5.0.14.0","1","2","demographics","age","0","0","0","0","31","1","2783"
"103019","13:05:32","733031124","666441811","5.0.14.0","1","3","demographics","gender","0","0","0","0","male","1","3808"
"103019","13:05:15","479647585","649533327","5.0.14.0","1","1","demographics","ProlificCode","0","0","0","0","5d543a872dc2d90016c1e427","1","20277"
"103019","13:05:15","479647585","649533327","5.0.14.0","1","2","demographics","age","0","0","0","0","24","1","3201"
"103019","13:05:15","479647585","649533327","5.0.14.0","1","3","demographics","gender","0","0","0","0","Male ","1","12388"
"103019","09:05:59","432580035","71322043","5.0.14.0","1","1","demographics","ProlificCode","0","0","0","0","5c27db7d2c45d40001492bb8","1","8601"
"103019","09:05:59","432580035","71322043","5.0.14.0","1","2","demographics","age","0","0","0","0","36","1","3068"
"103019","09:05:59","432580035","71322043","5.0.14.0","1","3","demographics","gender","0","0","0","0","Male","1","3207"
"103019","06:03:54","576217572","138506683","5.0.15.0","1","1","demographics","ProlificCode","0","0","0","0","5c1c690f1014080","1","159943"
"103019","06:03:54","576217572","138506683","5.0.15.0","1","2","demographics","age","0","0","0","0","56","1","5555"
"103019","06:03:54","576217572","138506683","5.0.15.0","1","3","demographics","gender","0","0","0","0","Female","1","6381"
"103019","09:05:40","287984725","975497657","5.0.14.0","1","1","demographics","ProlificCode","0","0","0","0","5d6feb2e662930001ac998ec","1","82183"
"103019","09:05:40","287984725","975497657","5.0.14.0","1","2","demographics","age","0","0","0","0","40","1","5995"
"103019","09:05:40","287984725","975497657","5.0.14.0","1","3","demographics","gender","0","0","0","0","female","1","6405"
"103019","13:07:34","625138837","263601360","5.0.14.0","1","1","demographics","ProlificCode","0","0","0","0","5da78b81d7c17f0012bc8193","1","9431"
"103019","13:07:34","625138837","263601360","5.0.14.0","1","2","demographics","age","0","0","0","0","58","1","3839"
"103019","13:07:34","625138837","263601360","5.0.14.0","1","3","demographics","gender","0","0","0","0","female","1","3935"
"103019","13:08:23","966405747","720346584","5.0.14.0","1","1","demographics","ProlificCode","0","0","0","0","5db04e016de3b000169c5d57","1","25437"
"103019","13:08:23","966405747","720346584","5.0.14.0","1","2","demographics","age","0","0","0","0","25 ","1","6099"
"103019","13:08:23","966405747","720346584","5.0.14.0","1","3","demographics","gender","0","0","0","0","female","1","3363"
"103019","09:10:54","936747089","222111156","5.0.14.0","1","1","demographics","ProlificCode","0","0","0","0","5d9b7fdf1abbe700174a072c","1","7932"
"103019","09:10:54","936747089","222111156","5.0.14.0","1","2","demographics","age","0","0","0","0","28","1","2924"
"103019","09:10:54","936747089","222111156","5.0.14.0","1","3","demographics","gender","0","0","0","0","Female","1","4175"
"103019","13:12:02","241966424","290855435","5.0.14.0","1","1","demographics","ProlificCode","0","0","0","0","5d0ac73d1fdbbb0019c9707d","1","12102"
"103019","13:12:02","241966424","290855435","5.0.14.0","1","2","demographics","age","0","0","0","0","53","1","5366"
"103019","13:12:02","241966424","290855435","5.0.14.0","1","3","demographics","gender","0","0","0","0","female","1","8600"
"103019","09:14:57","369723435","48502446","5.0.14.0","1","1","demographics","ProlificCode","0","0","0","0","5d6feb2e662930001ac998ec","1","7238"
"103019","09:14:57","369723435","48502446","5.0.14.0","1","2","demographics","age","0","0","0","0","40","1","4970"
"103019","09:14:57","369723435","48502446","5.0.14.0","1","3","demographics","gender","0","0","0","0","female","1","5854"
"103019","07:14:30","722327913","452194466","5.0.14.0","1","1","demographics","ProlificCode","0","0","0","0","5d78fae75b6e360001873b7a","1","16841"
"103019","07:14:30","722327913","452194466","5.0.14.0","1","2","demographics","age","0","0","0","0","29","1","3590"
"103019","07:14:30","722327913","452194466","5.0.14.0","1","3","demographics","gender","0","0","0","0","male","1","5638"
"103019","13:15:31","274617624","559981693","5.0.14.0","1","1","demographics","ProlificCode","0","0","0","0","5db1cce95a87d4000964b4fe","1","32345"
"103019","13:15:31","274617624","559981693","5.0.14.0","1","2","demographics","age","0","0","0","0","19","1","2296"
"103019","13:15:31","274617624","559981693","5.0.14.0","1","3","demographics","gender","0","0","0","0","male","1","3376"
"103019","08:21:51","906519169","280507946","5.0.14.0","1","1","demographics","ProlificCode","0","0","0","0","5d09658d561a350001d62540","1","6708"
"103019","08:21:51","906519169","280507946","5.0.14.0","1","2","demographics","age","0","0","0","0","49","1","6280"
"103019","08:21:51","906519169","280507946","5.0.14.0","1","3","demographics","gender","0","0","0","0","female","1","5338"
"103019","13:26:19","828961453","273202521","5.0.14.0","1","1","demographics","ProlificCode","0","0","0","0","5d652c5a2de3da00165a4596","1","19822"
"103019","13:26:19","828961453","273202521","5.0.14.0","1","2","demographics","age","0","0","0","0","37","1","5334"
"103019","13:26:19","828961453","273202521","5.0.14.0","1","3","demographics","gender","0","0","0","0","male","1","8004"
"103019","13:28:30","129018289","947483956","5.0.14.0","1","1","demographics","ProlificCode","0","0","0","0","5dadad7c7a347b001554b136","1","5779"
"103019","13:28:30","129018289","947483956","5.0.14.0","1","2","demographics","age","0","0","0","0","22","1","2870"
"103019","13:28:30","129018289","947483956","5.0.14.0","1","3","demographics","gender","0","0","0","0","Female","1","3667"
"103019","06:33:02","153168970","362359620","5.0.14.0","1","1","demographics","ProlificCode","0","0","0","0","5d4bed118cbe900016c1f6d0","1","14260"
"103019","06:33:02","153168970","362359620","5.0.14.0","1","2","demographics","age","0","0","0","0","28","1","3560"
"103019","06:33:02","153168970","362359620","5.0.14.0","1","3","demographics","gender","0","0","0","0","male","1","4374"
"103019","13:33:25","622468340","716180668","5.0.14.0","1","1","demographics","ProlificCode","0","0","0","0","5d724360aee39500017bafef","1","189518"
"103019","13:33:25","622468340","716180668","5.0.14.0","1","2","demographics","age","0","0","0","0","22","1","1984"
"103019","13:33:25","622468340","716180668","5.0.14.0","1","3","demographics","gender","0","0","0","0","female","1","3806"
"103019","13:38:53","358613490","528499232","5.0.14.0","1","1","demographics","ProlificCode","0","0","0","0","5db06d09b3844500159a0619","1","19644"
"103019","13:38:53","358613490","528499232","5.0.14.0","1","2","demographics","age","0","0","0","0","38","1","4214"
"103019","13:38:53","358613490","528499232","5.0.14.0","1","3","demographics","gender","0","0","0","0","Female","1","4709"
"103019","13:43:42","310545589","480431333","5.0.14.0","1","1","demographics","ProlificCode","0","0","0","0","5cdf30a555fe0d000169c65f","1","4129"
"103019","13:43:42","310545589","480431333","5.0.14.0","1","2","demographics","age","0","0","0","0","29","1","3910"
"103019","13:43:42","310545589","480431333","5.0.14.0","1","3","demographics","gender","0","0","0","0","female","1","5356"
"103019","08:45:58","645137594","82848512","5.0.14.0","1","1","demographics","ProlificCode","0","0","0","0","5d88e9d13e9a6e0001084e80","1","6888"
"103019","08:45:58","645137594","82848512","5.0.14.0","1","2","demographics","age","0","0","0","0","31","1","2939"
"103019","08:45:58","645137594","82848512","5.0.14.0","1","3","demographics","gender","0","0","0","0","Male","1","2489"
"103019","08:45:31","930427026","368137935","5.0.14.0","1","1","demographics","ProlificCode","0","0","0","0","5c4de8f726093e000134ee6e","1","13193"
"103019","08:45:31","930427026","368137935","5.0.14.0","1","2","demographics","age","0","0","0","0","51","1","3178"
"103019","08:45:31","930427026","368137935","5.0.14.0","1","3","demographics","gender","0","0","0","0","male","1","3109"
"103019","09:45:56","419962360","58424878","5.0.14.0","1","1","demographics","ProlificCode","0","0","0","0","5d16d81a6be726001a39ca74","1","7428"
"103019","09:45:56","419962360","58424878","5.0.14.0","1","2","demographics","age","0","0","0","0","31","1","23045"
"103019","09:45:56","419962360","58424878","5.0.14.0","1","3","demographics","gender","0","0","0","0","Male","1","3605"
"103019","13:46:32","787835629","323001728","5.0.14.0","1","1","demographics","ProlificCode","0","0","0","0","5c6c84ca666e11000166cb92","1","8727"
"103019","13:46:32","787835629","323001728","5.0.14.0","1","2","demographics","age","0","0","0","0","20","1","2850"
"103019","13:46:32","787835629","323001728","5.0.14.0","1","3","demographics","gender","0","0","0","0","Male","1","3327"
"103019","13:02:27","428524567","637715208","5.0.14.0","1","1","demographics","ProlificCode","0","0","0","0","","1","2666422"
"103019","09:46:05","254445665","892908182","5.0.14.0","1","1","demographics","ProlificCode","0","0","0","0","5d4c78071b920f00198e8533","1","93677"
"103019","09:46:05","254445665","892908182","5.0.14.0","1","2","demographics","age","0","0","0","0","50","1","2828"
"103019","09:46:05","254445665","892908182","5.0.14.0","1","3","demographics","gender","0","0","0","0","female","1","3172"
"103019","09:49:02","78550510","832491346","5.0.14.0","1","1","demographics","ProlificCode","0","0","0","0","5db13524e28dd200143e0222","1","3763"
"103019","09:49:02","78550510","832491346","5.0.14.0","1","2","demographics","age","0","0","0","0","29","1","5919"
"103019","09:49:02","78550510","832491346","5.0.14.0","1","3","demographics","gender","0","0","0","0","male","1","11383"
"103019","06:50:13","610902277","249364807","5.0.14.0","1","1","demographics","ProlificCode","0","0","0","0","5cd063ce657e300016f6c95a","1","12888"
"103019","06:50:13","610902277","249364807","5.0.14.0","1","2","demographics","age","0","0","0","0","28","1","6855"
"103019","06:50:13","610902277","249364807","5.0.14.0","1","3","demographics","gender","0","0","0","0","Non Binary","1","3579"
"103019","13:39:31","90055778","433570131","5.0.14.0","1","1","demographics","ProlificCode","0","0","0","0","5d5dd0b30f64720001a43f68","1","361375"
"103019","13:39:31","90055778","433570131","5.0.14.0","1","2","demographics","age","0","0","0","0","21","1","3994"
"103019","13:39:31","90055778","433570131","5.0.14.0","1","3","demographics","gender","0","0","0","0","Male","1","4875"
"103019","09:51:21","811516479","249227388","5.0.14.0","1","1","demographics","ProlificCode","0","0","0","0","5d923c2e235f4b0017f269c2","1","16301"
"103019","09:51:21","811516479","249227388","5.0.14.0","1","2","demographics","age","0","0","0","0","35","1","5244"
"103019","09:51:21","811516479","249227388","5.0.14.0","1","3","demographics","gender","0","0","0","0","female","1","12082"
"103019","09:53:17","117175144","402539215","5.0.14.0","1","1","demographics","ProlificCode","0","0","0","0","5daf2e58952fb10012a92d80","1","7111"
"103019","09:53:17","117175144","402539215","5.0.14.0","1","2","demographics","age","0","0","0","0","31","1","3117"
"103019","09:53:17","117175144","402539215","5.0.14.0","1","3","demographics","gender","0","0","0","0","Female","1","3980"
"103019","13:54:52","592407058","877771129","5.0.14.0","1","1","demographics","ProlificCode","0","0","0","0","5d9cac8dfe9f29001758b61f","1","10688"
"103019","13:54:52","592407058","877771129","5.0.14.0","1","2","demographics","age","0","0","0","0","21","1","4117"
"103019","13:54:52","592407058","877771129","5.0.14.0","1","3","demographics","gender","0","0","0","0","Female","1","4164"
"103019","13:48:28","119748008","873688845","5.0.14.0","1","1","demographics","ProlificCode","0","0","0","0","5d8a0532dceb6a00188c73af","1","978662"
