"date","time","group","subject","build","blocknum","trialnum","blockcode","trialcode","pretrialpause","posttrialpause","trialduration","trialtimeout","response","correct","latency"
"103019","13:32:06","866066081","281898249","5.0.14.0","1","1","end_of_study_questions_ufirst","awareness","0","0","0","0","","1","7121"
"103019","12:54:30","636541255","275003775","5.0.14.0","1","1","end_of_study_questions_ufirst","awareness","0","0","0","0","all","1","18217"
"103019","12:54:30","636541255","275003775","5.0.14.0","1","2","end_of_study_questions_ufirst","influence_general","0","0","0","0","a few","1","7438"
"103019","12:54:30","636541255","275003775","5.0.14.0","1","3","end_of_study_questions_ufirst","unintentionality","0","0","0","0","more than half","1","7137"
"103019","12:54:30","636541255","275003775","5.0.14.0","1","4","end_of_study_questions_ufirst","intentionality","0","0","0","0","none","1","7084"
"103019","12:54:30","636541255","275003775","5.0.14.0","1","5","end_of_study_questions_ufirst","self_exclusion_1","0","0","0","0","Yes, use my data","1","6319"
"103019","12:54:30","636541255","275003775","5.0.14.0","1","5","end_of_study_questions_ufirst","self_exclusion_1other","0","0","0","0","","1","6319"
"103019","12:54:29","761112130","551921491","5.0.14.0","1","1","end_of_study_questions_ufirst","awareness","0","0","0","0","all","1","24394"
"103019","12:54:29","761112130","551921491","5.0.14.0","1","2","end_of_study_questions_ufirst","influence_general","0","0","0","0","less than half","1","6126"
"103019","12:54:29","761112130","551921491","5.0.14.0","1","3","end_of_study_questions_ufirst","unintentionality","0","0","0","0","a few","1","7834"
"103019","12:54:29","761112130","551921491","5.0.14.0","1","4","end_of_study_questions_ufirst","intentionality","0","0","0","0","none","1","6963"
"103019","12:54:29","761112130","551921491","5.0.14.0","1","5","end_of_study_questions_ufirst","self_exclusion_1","0","0","0","0","Yes, use my data","1","15546"
"103019","12:54:29","761112130","551921491","5.0.14.0","1","5","end_of_study_questions_ufirst","self_exclusion_1other","0","0","0","0","","1","15546"
"103019","12:55:07","465697696","751341253","5.0.14.0","1","1","end_of_study_questions_ufirst","awareness","0","0","0","0","most","1","37181"
"103019","12:55:07","465697696","751341253","5.0.14.0","1","2","end_of_study_questions_ufirst","influence_general","0","0","0","0","a few","1","8019"
"103019","12:55:07","465697696","751341253","5.0.14.0","1","3","end_of_study_questions_ufirst","unintentionality","0","0","0","0","less than half","1","6667"
"103019","12:55:07","465697696","751341253","5.0.14.0","1","4","end_of_study_questions_ufirst","intentionality","0","0","0","0","none","1","6704"
"103019","12:55:07","465697696","751341253","5.0.14.0","1","5","end_of_study_questions_ufirst","self_exclusion_1","0","0","0","0","Yes, use my data","1","10379"
"103019","12:55:07","465697696","751341253","5.0.14.0","1","5","end_of_study_questions_ufirst","self_exclusion_1other","0","0","0","0","","1","10379"
"103019","12:57:12","675872108","113583025","5.0.14.0","1","1","end_of_study_questions_ufirst","awareness","0","0","0","0","all","1","7508"
"103019","12:57:12","675872108","113583025","5.0.14.0","1","2","end_of_study_questions_ufirst","influence_general","0","0","0","0","all","1","5072"
"103019","12:57:12","675872108","113583025","5.0.14.0","1","3","end_of_study_questions_ufirst","unintentionality","0","0","0","0","about half","1","7320"
"103019","12:57:12","675872108","113583025","5.0.14.0","1","4","end_of_study_questions_ufirst","intentionality","0","0","0","0","a few","1","5134"
"103019","12:57:12","675872108","113583025","5.0.14.0","1","5","end_of_study_questions_ufirst","self_exclusion_1","0","0","0","0","Yes, use my data","1","4903"
"103019","12:57:12","675872108","113583025","5.0.14.0","1","5","end_of_study_questions_ufirst","self_exclusion_1other","0","0","0","0","","1","4903"
"103019","12:57:07","929990530","836278210","5.0.14.0","1","1","end_of_study_questions_ifirst","awareness","0","0","0","0","all","1","18558"
"103019","12:57:07","929990530","836278210","5.0.14.0","1","2","end_of_study_questions_ifirst","influence_general","0","0","0","0","less than half","1","9398"
"103019","12:57:07","929990530","836278210","5.0.14.0","1","3","end_of_study_questions_ifirst","intentionality","0","0","0","0","a few","1","14545"
"103019","12:57:07","929990530","836278210","5.0.14.0","1","4","end_of_study_questions_ifirst","unintentionality","0","0","0","0","a few","1","12153"
"103019","12:57:07","929990530","836278210","5.0.14.0","1","5","end_of_study_questions_ifirst","self_exclusion_1","0","0","0","0","Yes, use my data","1","18508"
"103019","12:57:07","929990530","836278210","5.0.14.0","1","5","end_of_study_questions_ifirst","self_exclusion_1other","0","0","0","0","","1","18508"
"103019","12:57:55","195861782","986671127","5.0.14.0","1","1","end_of_study_questions_ufirst","awareness","0","0","0","0","all","1","32153"
"103019","12:57:55","195861782","986671127","5.0.14.0","1","2","end_of_study_questions_ufirst","influence_general","0","0","0","0","a few","1","11204"
"103019","12:57:55","195861782","986671127","5.0.14.0","1","3","end_of_study_questions_ufirst","unintentionality","0","0","0","0","a few","1","9891"
"103019","12:57:55","195861782","986671127","5.0.14.0","1","4","end_of_study_questions_ufirst","intentionality","0","0","0","0","none","1","13010"
"103019","12:57:55","195861782","986671127","5.0.14.0","1","5","end_of_study_questions_ufirst","self_exclusion_1","0","0","0","0","Yes, use my data","1","28217"
"103019","12:57:55","195861782","986671127","5.0.14.0","1","5","end_of_study_questions_ufirst","self_exclusion_1other","0","0","0","0","","1","28217"
"103019","05:57:25","414941222","737173805","5.0.14.0","1","1","end_of_study_questions_ufirst","awareness","0","0","0","0","all","1","21728"
"103019","05:57:25","414941222","737173805","5.0.14.0","1","2","end_of_study_questions_ufirst","influence_general","0","0","0","0","about half","1","7693"
"103019","05:57:25","414941222","737173805","5.0.14.0","1","3","end_of_study_questions_ufirst","unintentionality","0","0","0","0","less than half","1","8585"
"103019","05:57:25","414941222","737173805","5.0.14.0","1","4","end_of_study_questions_ufirst","intentionality","0","0","0","0","all","1","11585"
"103019","05:57:25","414941222","737173805","5.0.14.0","1","5","end_of_study_questions_ufirst","self_exclusion_1","0","0","0","0","No, exclude my data (please specify why):","1","102927"
"103019","05:57:25","414941222","737173805","5.0.14.0","1","5","end_of_study_questions_ufirst","self_exclusion_1other","0","0","0","0","Not sure if did the test correct. I basically just used the image before the chinese symbol to determine if pleasant or unpleasant.  I do think my data can be useful though. Up to you. ","1","102927"
"103019","12:59:53","810573711","95937785","5.0.14.0","1","1","end_of_study_questions_ufirst","awareness","0","0","0","0","about half","1","6734"
"103019","12:59:53","810573711","95937785","5.0.14.0","1","2","end_of_study_questions_ufirst","influence_general","0","0","0","0","about half","1","7431"
"103019","12:59:53","810573711","95937785","5.0.14.0","1","3","end_of_study_questions_ufirst","unintentionality","0","0","0","0","a few","1","5172"
"103019","12:59:53","810573711","95937785","5.0.14.0","1","4","end_of_study_questions_ufirst","intentionality","0","0","0","0","none","1","6535"
"103019","12:59:53","810573711","95937785","5.0.14.0","1","5","end_of_study_questions_ufirst","self_exclusion_1","0","0","0","0","Yes, use my data","1","7216"
"103019","12:59:53","810573711","95937785","5.0.14.0","1","5","end_of_study_questions_ufirst","self_exclusion_1other","0","0","0","0","","1","7216"
"103019","13:00:19","166199798","259912120","5.0.14.0","1","1","end_of_study_questions_ifirst","awareness","0","0","0","0","all","1","17557"
"103019","13:00:19","166199798","259912120","5.0.14.0","1","2","end_of_study_questions_ifirst","influence_general","0","0","0","0","none","1","6096"
"103019","13:00:19","166199798","259912120","5.0.14.0","1","3","end_of_study_questions_ifirst","intentionality","0","0","0","0","none","1","7833"
"103019","13:00:19","166199798","259912120","5.0.14.0","1","4","end_of_study_questions_ifirst","unintentionality","0","0","0","0","none","1","4361"
"103019","13:00:19","166199798","259912120","5.0.14.0","1","5","end_of_study_questions_ifirst","self_exclusion_1","0","0","0","0","Yes, use my data","1","9328"
"103019","13:00:19","166199798","259912120","5.0.14.0","1","5","end_of_study_questions_ifirst","self_exclusion_1other","0","0","0","0","","1","9328"
"103019","13:00:33","827434656","733722337","5.0.14.0","1","1","end_of_study_questions_ufirst","awareness","0","0","0","0","all","1","15614"
"103019","13:00:33","827434656","733722337","5.0.14.0","1","2","end_of_study_questions_ufirst","influence_general","0","0","0","0","about half","1","10973"
"103019","13:00:33","827434656","733722337","5.0.14.0","1","3","end_of_study_questions_ufirst","unintentionality","0","0","0","0","a few","1","8283"
"103019","13:00:33","827434656","733722337","5.0.14.0","1","4","end_of_study_questions_ufirst","intentionality","0","0","0","0","none","1","7250"
"103019","13:00:33","827434656","733722337","5.0.14.0","1","5","end_of_study_questions_ufirst","self_exclusion_1","0","0","0","0","Yes, use my data","1","18318"
"103019","13:00:33","827434656","733722337","5.0.14.0","1","5","end_of_study_questions_ufirst","self_exclusion_1other","0","0","0","0","","1","18318"
"103019","13:00:40","189664396","283376717","5.0.14.0","1","1","end_of_study_questions_ufirst","awareness","0","0","0","0","less than half","1","24600"
"103019","13:00:40","189664396","283376717","5.0.14.0","1","2","end_of_study_questions_ufirst","influence_general","0","0","0","0","none","1","7814"
"103019","13:00:40","189664396","283376717","5.0.14.0","1","3","end_of_study_questions_ufirst","unintentionality","0","0","0","0","none","1","10793"
"103019","13:00:40","189664396","283376717","5.0.14.0","1","4","end_of_study_questions_ufirst","intentionality","0","0","0","0","none","1","4913"
"103019","13:00:40","189664396","283376717","5.0.14.0","1","5","end_of_study_questions_ufirst","self_exclusion_1","0","0","0","0","Yes, use my data","1","8365"
"103019","13:00:40","189664396","283376717","5.0.14.0","1","5","end_of_study_questions_ufirst","self_exclusion_1other","0","0","0","0","","1","8365"
"103019","08:03:31","226566957","837906463","5.0.14.0","1","1","end_of_study_questions_ufirst","awareness","0","0","0","0","all","1","15349"
"103019","08:03:31","226566957","837906463","5.0.14.0","1","2","end_of_study_questions_ufirst","influence_general","0","0","0","0","more than half","1","6091"
"103019","08:03:31","226566957","837906463","5.0.14.0","1","3","end_of_study_questions_ufirst","unintentionality","0","0","0","0","about half","1","8035"
"103019","08:03:31","226566957","837906463","5.0.14.0","1","4","end_of_study_questions_ufirst","intentionality","0","0","0","0","less than half","1","8304"
"103019","08:03:31","226566957","837906463","5.0.14.0","1","5","end_of_study_questions_ufirst","self_exclusion_1","0","0","0","0","Yes, use my data","1","3848"
"103019","08:03:31","226566957","837906463","5.0.14.0","1","5","end_of_study_questions_ufirst","self_exclusion_1other","0","0","0","0","","1","3848"
"103019","07:03:05","970903950","582243464","5.0.14.0","1","1","end_of_study_questions_ifirst","awareness","0","0","0","0","all","1","24655"
"103019","07:03:05","970903950","582243464","5.0.14.0","1","2","end_of_study_questions_ifirst","influence_general","0","0","0","0","less than half","1","8314"
"103019","07:03:05","970903950","582243464","5.0.14.0","1","3","end_of_study_questions_ifirst","intentionality","0","0","0","0","less than half","1","16715"
"103019","07:03:05","970903950","582243464","5.0.14.0","1","4","end_of_study_questions_ifirst","unintentionality","0","0","0","0","less than half","1","9776"
"103019","07:03:05","970903950","582243464","5.0.14.0","1","5","end_of_study_questions_ifirst","self_exclusion_1","0","0","0","0","Yes, use my data","1","13904"
"103019","07:03:05","970903950","582243464","5.0.14.0","1","5","end_of_study_questions_ifirst","self_exclusion_1other","0","0","0","0","","1","13904"
"103019","09:03:32","646335545","208624648","5.0.14.0","1","1","end_of_study_questions_ifirst","awareness","0","0","0","0","all","1","49513"
"103019","09:03:32","646335545","208624648","5.0.14.0","1","2","end_of_study_questions_ifirst","influence_general","0","0","0","0","more than half","1","13417"
"103019","09:03:32","646335545","208624648","5.0.14.0","1","3","end_of_study_questions_ifirst","intentionality","0","0","0","0","a few","1","5478"
"103019","09:03:32","646335545","208624648","5.0.14.0","1","4","end_of_study_questions_ifirst","unintentionality","0","0","0","0","about half","1","10379"
"103019","09:03:32","646335545","208624648","5.0.14.0","1","5","end_of_study_questions_ifirst","self_exclusion_1","0","0","0","0","Yes, use my data","1","12804"
"103019","09:03:32","646335545","208624648","5.0.14.0","1","5","end_of_study_questions_ifirst","self_exclusion_1other","0","0","0","0","","1","12804"
"103019","13:04:40","740257063","986316227","5.0.14.0","1","1","end_of_study_questions_ufirst","awareness","0","0","0","0","all","1","16089"
"103019","13:04:40","740257063","986316227","5.0.14.0","1","2","end_of_study_questions_ufirst","influence_general","0","0","0","0","a few","1","10660"
"103019","13:04:40","740257063","986316227","5.0.14.0","1","3","end_of_study_questions_ufirst","unintentionality","0","0","0","0","less than half","1","6469"
"103019","13:04:40","740257063","986316227","5.0.14.0","1","4","end_of_study_questions_ufirst","intentionality","0","0","0","0","none","1","7315"
"103019","13:04:40","740257063","986316227","5.0.14.0","1","5","end_of_study_questions_ufirst","self_exclusion_1","0","0","0","0","Yes, use my data","1","8708"
"103019","13:04:40","740257063","986316227","5.0.14.0","1","5","end_of_study_questions_ufirst","self_exclusion_1other","0","0","0","0","","1","8708"
"103019","13:06:12","377474426","873335613","5.0.14.0","1","1","end_of_study_questions_ufirst","awareness","0","0","0","0","","1","8146"
"103019","09:05:23","191378403","869145809","5.0.14.0","1","1","end_of_study_questions_ufirst","awareness","0","0","0","0","all","1","16437"
"103019","09:05:23","191378403","869145809","5.0.14.0","1","2","end_of_study_questions_ufirst","influence_general","0","0","0","0","most","1","16807"
"103019","09:05:23","191378403","869145809","5.0.14.0","1","3","end_of_study_questions_ufirst","unintentionality","0","0","0","0","more than half","1","8702"
"103019","09:05:23","191378403","869145809","5.0.14.0","1","4","end_of_study_questions_ufirst","intentionality","0","0","0","0","a few","1","7979"
"103019","09:05:23","191378403","869145809","5.0.14.0","1","5","end_of_study_questions_ufirst","self_exclusion_1","0","0","0","0","Yes, use my data","1","11178"
"103019","09:05:23","191378403","869145809","5.0.14.0","1","5","end_of_study_questions_ufirst","self_exclusion_1other","0","0","0","0","","1","11178"
"103019","13:05:20","587225167","83086372","5.0.14.0","1","1","end_of_study_questions_ifirst","awareness","0","0","0","0","none","1","45239"
"103019","13:05:20","587225167","83086372","5.0.14.0","1","2","end_of_study_questions_ifirst","influence_general","0","0","0","0","all","1","8761"
"103019","13:05:20","587225167","83086372","5.0.14.0","1","3","end_of_study_questions_ifirst","intentionality","0","0","0","0","about half","1","16423"
"103019","13:05:20","587225167","83086372","5.0.14.0","1","4","end_of_study_questions_ifirst","unintentionality","0","0","0","0","about half","1","7513"
"103019","13:05:20","587225167","83086372","5.0.14.0","1","5","end_of_study_questions_ifirst","self_exclusion_1","0","0","0","0","Yes, use my data","1","13538"
"103019","13:05:20","587225167","83086372","5.0.14.0","1","5","end_of_study_questions_ifirst","self_exclusion_1other","0","0","0","0","","1","13538"
"103019","13:05:56","169047189","731336277","5.0.14.0","1","1","end_of_study_questions_ufirst","awareness","0","0","0","0","all","1","26446"
"103019","13:05:56","169047189","731336277","5.0.14.0","1","2","end_of_study_questions_ufirst","influence_general","0","0","0","0","all","1","6489"
"103019","13:05:56","169047189","731336277","5.0.14.0","1","3","end_of_study_questions_ufirst","unintentionality","0","0","0","0","most","1","7528"
"103019","13:05:56","169047189","731336277","5.0.14.0","1","4","end_of_study_questions_ufirst","intentionality","0","0","0","0","most","1","9507"
"103019","13:05:56","169047189","731336277","5.0.14.0","1","5","end_of_study_questions_ufirst","self_exclusion_1","0","0","0","0","Yes, use my data","1","7164"
"103019","13:05:56","169047189","731336277","5.0.14.0","1","5","end_of_study_questions_ufirst","self_exclusion_1other","0","0","0","0","","1","7164"
"103019","09:06:49","115560551","324751192","5.0.14.0","1","1","end_of_study_questions_ifirst","awareness","0","0","0","0","all","1","16974"
"103019","09:06:49","115560551","324751192","5.0.14.0","1","2","end_of_study_questions_ifirst","influence_general","0","0","0","0","about half","1","5870"
"103019","09:06:49","115560551","324751192","5.0.14.0","1","3","end_of_study_questions_ifirst","intentionality","0","0","0","0","more than half","1","21181"
"103019","09:06:49","115560551","324751192","5.0.14.0","1","4","end_of_study_questions_ifirst","unintentionality","0","0","0","0","about half","1","12275"
"103019","09:06:49","115560551","324751192","5.0.14.0","1","5","end_of_study_questions_ifirst","self_exclusion_1","0","0","0","0","Yes, use my data","1","4133"
"103019","09:06:49","115560551","324751192","5.0.14.0","1","5","end_of_study_questions_ifirst","self_exclusion_1other","0","0","0","0","","1","4133"
"103019","13:06:37","638353373","200642476","5.0.14.0","1","1","end_of_study_questions_ifirst","awareness","0","0","0","0","all","1","33032"
"103019","13:06:37","638353373","200642476","5.0.14.0","1","2","end_of_study_questions_ifirst","influence_general","0","0","0","0","less than half","1","15839"
"103019","13:06:37","638353373","200642476","5.0.14.0","1","3","end_of_study_questions_ifirst","intentionality","0","0","0","0","none","1","27385"
"103019","13:06:37","638353373","200642476","5.0.14.0","1","4","end_of_study_questions_ifirst","unintentionality","0","0","0","0","all","1","21875"
"103019","13:06:37","638353373","200642476","5.0.14.0","1","5","end_of_study_questions_ifirst","self_exclusion_1","0","0","0","0","Yes, use my data","1","25257"
"103019","13:06:37","638353373","200642476","5.0.14.0","1","5","end_of_study_questions_ifirst","self_exclusion_1other","0","0","0","0","","1","25257"
"103019","09:07:04","399541088","752800955","5.0.14.0","1","1","end_of_study_questions_ufirst","awareness","0","0","0","0","all","1","105279"
"103019","09:07:04","399541088","752800955","5.0.14.0","1","2","end_of_study_questions_ufirst","influence_general","0","0","0","0","a few","1","4112"
"103019","09:07:04","399541088","752800955","5.0.14.0","1","3","end_of_study_questions_ufirst","unintentionality","0","0","0","0","none","1","12911"
"103019","09:07:04","399541088","752800955","5.0.14.0","1","4","end_of_study_questions_ufirst","intentionality","0","0","0","0","none","1","8108"
"103019","09:07:04","399541088","752800955","5.0.14.0","1","5","end_of_study_questions_ufirst","self_exclusion_1","0","0","0","0","Yes, use my data","1","3233"
"103019","09:07:04","399541088","752800955","5.0.14.0","1","5","end_of_study_questions_ufirst","self_exclusion_1other","0","0","0","0","","1","3233"
"103019","13:07:33","428906500","925047183","5.0.14.0","1","1","end_of_study_questions_ufirst","awareness","0","0","0","0","all","1","30307"
"103019","13:07:33","428906500","925047183","5.0.14.0","1","2","end_of_study_questions_ufirst","influence_general","0","0","0","0","most","1","6817"
"103019","13:07:33","428906500","925047183","5.0.14.0","1","3","end_of_study_questions_ufirst","unintentionality","0","0","0","0","most","1","8813"
"103019","13:07:33","428906500","925047183","5.0.14.0","1","4","end_of_study_questions_ufirst","intentionality","0","0","0","0","more than half","1","7020"
"103019","13:07:33","428906500","925047183","5.0.14.0","1","5","end_of_study_questions_ufirst","self_exclusion_1","0","0","0","0","Yes, use my data","1","19683"
"103019","13:07:33","428906500","925047183","5.0.14.0","1","5","end_of_study_questions_ufirst","self_exclusion_1other","0","0","0","0","","1","19683"
"103019","13:08:01","347299638","25067060","5.0.14.0","1","1","end_of_study_questions_ifirst","awareness","0","0","0","0","more than half","1","13611"
"103019","13:08:01","347299638","25067060","5.0.14.0","1","2","end_of_study_questions_ifirst","influence_general","0","0","0","0","more than half","1","9106"
"103019","13:08:01","347299638","25067060","5.0.14.0","1","3","end_of_study_questions_ifirst","intentionality","0","0","0","0","about half","1","8834"
"103019","13:08:01","347299638","25067060","5.0.14.0","1","4","end_of_study_questions_ifirst","unintentionality","0","0","0","0","most","1","5832"
"103019","13:08:01","347299638","25067060","5.0.14.0","1","5","end_of_study_questions_ifirst","self_exclusion_1","0","0","0","0","Yes, use my data","1","12499"
"103019","13:08:01","347299638","25067060","5.0.14.0","1","5","end_of_study_questions_ifirst","self_exclusion_1other","0","0","0","0","","1","12499"
"103019","13:06:37","572821622","934359111","5.0.14.0","1","1","end_of_study_questions_ufirst","awareness","0","0","0","0","all","1","60762"
"103019","13:06:37","572821622","934359111","5.0.14.0","1","2","end_of_study_questions_ufirst","influence_general","0","0","0","0","a few","1","24168"
"103019","13:06:37","572821622","934359111","5.0.14.0","1","3","end_of_study_questions_ufirst","unintentionality","0","0","0","0","about half","1","25604"
"103019","13:06:37","572821622","934359111","5.0.14.0","1","4","end_of_study_questions_ufirst","intentionality","0","0","0","0","more than half","1","9620"
"103019","13:06:37","572821622","934359111","5.0.14.0","1","5","end_of_study_questions_ufirst","self_exclusion_1","0","0","0","0","Yes, use my data","1","22610"
"103019","13:06:37","572821622","934359111","5.0.14.0","1","5","end_of_study_questions_ufirst","self_exclusion_1other","0","0","0","0","","1","22610"
"103019","13:07:41","611121030","820311677","5.0.14.0","1","1","end_of_study_questions_ufirst","awareness","0","0","0","0","most","1","26575"
"103019","13:07:41","611121030","820311677","5.0.14.0","1","2","end_of_study_questions_ufirst","influence_general","0","0","0","0","most","1","14069"
"103019","13:07:41","611121030","820311677","5.0.14.0","1","3","end_of_study_questions_ufirst","unintentionality","0","0","0","0","most","1","10518"
"103019","13:07:41","611121030","820311677","5.0.14.0","1","4","end_of_study_questions_ufirst","intentionality","0","0","0","0","most","1","9615"
"103019","13:07:41","611121030","820311677","5.0.14.0","1","5","end_of_study_questions_ufirst","self_exclusion_1","0","0","0","0","Yes, use my data","1","16265"
"103019","13:07:41","611121030","820311677","5.0.14.0","1","5","end_of_study_questions_ufirst","self_exclusion_1other","0","0","0","0","","1","16265"
"103019","09:08:23","249352544","458543186","5.0.14.0","1","1","end_of_study_questions_ifirst","awareness","0","0","0","0","all","1","16202"
"103019","09:08:23","249352544","458543186","5.0.14.0","1","2","end_of_study_questions_ifirst","influence_general","0","0","0","0","a few","1","8570"
"103019","09:08:23","249352544","458543186","5.0.14.0","1","3","end_of_study_questions_ifirst","intentionality","0","0","0","0","a few","1","7007"
"103019","09:08:23","249352544","458543186","5.0.14.0","1","4","end_of_study_questions_ifirst","unintentionality","0","0","0","0","a few","1","5488"
"103019","09:08:23","249352544","458543186","5.0.14.0","1","5","end_of_study_questions_ifirst","self_exclusion_1","0","0","0","0","Yes, use my data","1","17654"
"103019","09:08:23","249352544","458543186","5.0.14.0","1","5","end_of_study_questions_ifirst","self_exclusion_1other","0","0","0","0","","1","17654"
"103019","09:08:46","712894325","922084966","5.0.14.0","1","1","end_of_study_questions_ifirst","awareness","0","0","0","0","most","1","10905"
"103019","09:08:46","712894325","922084966","5.0.14.0","1","2","end_of_study_questions_ifirst","influence_general","0","0","0","0","most","1","5149"
"103019","09:08:46","712894325","922084966","5.0.14.0","1","3","end_of_study_questions_ifirst","intentionality","0","0","0","0","none","1","7753"
"103019","09:08:46","712894325","922084966","5.0.14.0","1","4","end_of_study_questions_ifirst","unintentionality","0","0","0","0","all","1","5840"
"103019","09:08:46","712894325","922084966","5.0.14.0","1","5","end_of_study_questions_ifirst","self_exclusion_1","0","0","0","0","Yes, use my data","1","13482"
"103019","09:08:46","712894325","922084966","5.0.14.0","1","5","end_of_study_questions_ifirst","self_exclusion_1other","0","0","0","0","","1","13482"
"103019","13:02:35","803809330","49868505","5.0.14.0","1","1","end_of_study_questions_ufirst","awareness","0","0","0","0","more than half","1","48630"
"103019","13:02:35","803809330","49868505","5.0.14.0","1","2","end_of_study_questions_ufirst","influence_general","0","0","0","0","a few","1","192345"
"103019","13:02:35","803809330","49868505","5.0.14.0","1","3","end_of_study_questions_ufirst","unintentionality","0","0","0","0","about half","1","6002"
"103019","13:02:35","803809330","49868505","5.0.14.0","1","4","end_of_study_questions_ufirst","intentionality","0","0","0","0","a few","1","5014"
"103019","13:02:35","803809330","49868505","5.0.14.0","1","5","end_of_study_questions_ufirst","self_exclusion_1","0","0","0","0","Yes, use my data","1","5821"
"103019","13:02:35","803809330","49868505","5.0.14.0","1","5","end_of_study_questions_ufirst","self_exclusion_1other","0","0","0","0","","1","5821"
"103019","13:07:41","931269817","493558913","5.0.14.0","1","1","end_of_study_questions_ufirst","awareness","0","0","0","0","most","1","40417"
"103019","13:07:41","931269817","493558913","5.0.14.0","1","2","end_of_study_questions_ufirst","influence_general","0","0","0","0","about half","1","7862"
"103019","13:07:41","931269817","493558913","5.0.14.0","1","3","end_of_study_questions_ufirst","unintentionality","0","0","0","0","a few","1","30629"
"103019","13:07:41","931269817","493558913","5.0.14.0","1","4","end_of_study_questions_ufirst","intentionality","0","0","0","0","about half","1","15634"
"103019","13:07:41","931269817","493558913","5.0.14.0","1","5","end_of_study_questions_ufirst","self_exclusion_1","0","0","0","0","Yes, use my data","1","17933"
"103019","13:07:41","931269817","493558913","5.0.14.0","1","5","end_of_study_questions_ufirst","self_exclusion_1other","0","0","0","0","","1","17933"
"103019","09:07:49","631012653","126873854","5.0.14.0","1","1","end_of_study_questions_ifirst","awareness","0","0","0","0","all","1","26104"
"103019","09:07:49","631012653","126873854","5.0.14.0","1","2","end_of_study_questions_ifirst","influence_general","0","0","0","0","all","1","29826"
"103019","09:07:49","631012653","126873854","5.0.14.0","1","3","end_of_study_questions_ifirst","intentionality","0","0","0","0","less than half","1","11605"
"103019","09:07:49","631012653","126873854","5.0.14.0","1","4","end_of_study_questions_ifirst","unintentionality","0","0","0","0","less than half","1","7347"
"103019","09:07:49","631012653","126873854","5.0.14.0","1","5","end_of_study_questions_ifirst","self_exclusion_1","0","0","0","0","Yes, use my data","1","28751"
"103019","09:07:49","631012653","126873854","5.0.14.0","1","5","end_of_study_questions_ifirst","self_exclusion_1other","0","0","0","0","","1","28751"
"103019","13:08:39","834728898","512496310","5.0.14.0","1","1","end_of_study_questions_ifirst","awareness","0","0","0","0","all","1","20472"
"103019","13:08:39","834728898","512496310","5.0.14.0","1","2","end_of_study_questions_ifirst","influence_general","0","0","0","0","none","1","14728"
"103019","13:08:39","834728898","512496310","5.0.14.0","1","3","end_of_study_questions_ifirst","intentionality","0","0","0","0","none","1","6530"
"103019","13:08:39","834728898","512496310","5.0.14.0","1","4","end_of_study_questions_ifirst","unintentionality","0","0","0","0","a few","1","8077"
"103019","13:08:39","834728898","512496310","5.0.14.0","1","5","end_of_study_questions_ifirst","self_exclusion_1","0","0","0","0","Yes, use my data","1","13905"
"103019","13:08:39","834728898","512496310","5.0.14.0","1","5","end_of_study_questions_ifirst","self_exclusion_1other","0","0","0","0","","1","13905"
"103019","13:09:06","791951834","1142490","5.0.14.0","1","1","end_of_study_questions_ifirst","awareness","0","0","0","0","all","1","13611"
"103019","13:09:06","791951834","1142490","5.0.14.0","1","2","end_of_study_questions_ifirst","influence_general","0","0","0","0","more than half","1","9604"
"103019","13:09:06","791951834","1142490","5.0.14.0","1","3","end_of_study_questions_ifirst","intentionality","0","0","0","0","a few","1","8611"
"103019","13:09:06","791951834","1142490","5.0.14.0","1","4","end_of_study_questions_ifirst","unintentionality","0","0","0","0","more than half","1","8089"
"103019","13:09:06","791951834","1142490","5.0.14.0","1","5","end_of_study_questions_ifirst","self_exclusion_1","0","0","0","0","Yes, use my data","1","11798"
"103019","13:09:06","791951834","1142490","5.0.14.0","1","5","end_of_study_questions_ifirst","self_exclusion_1other","0","0","0","0","","1","11798"
"103019","13:09:34","139802943","702092035","5.0.14.0","1","1","end_of_study_questions_ufirst","awareness","0","0","0","0","all","1","18196"
"103019","13:09:34","139802943","702092035","5.0.14.0","1","2","end_of_study_questions_ufirst","influence_general","0","0","0","0","a few","1","9292"
"103019","13:09:34","139802943","702092035","5.0.14.0","1","3","end_of_study_questions_ufirst","unintentionality","0","0","0","0","none","1","5957"
"103019","13:09:34","139802943","702092035","5.0.14.0","1","4","end_of_study_questions_ufirst","intentionality","0","0","0","0","none","1","5578"
"103019","13:09:34","139802943","702092035","5.0.14.0","1","5","end_of_study_questions_ufirst","self_exclusion_1","0","0","0","0","Yes, use my data","1","8653"
"103019","13:09:34","139802943","702092035","5.0.14.0","1","5","end_of_study_questions_ufirst","self_exclusion_1other","0","0","0","0","","1","8653"
"103019","13:09:52","473849136","759213201","5.0.14.0","1","1","end_of_study_questions_ufirst","awareness","0","0","0","0","less than half","1","12246"
"103019","13:09:52","473849136","759213201","5.0.14.0","1","2","end_of_study_questions_ufirst","influence_general","0","0","0","0","most","1","4827"
"103019","13:09:52","473849136","759213201","5.0.14.0","1","3","end_of_study_questions_ufirst","unintentionality","0","0","0","0","most","1","4249"
"103019","13:09:52","473849136","759213201","5.0.14.0","1","4","end_of_study_questions_ufirst","intentionality","0","0","0","0","more than half","1","4307"
"103019","13:09:52","473849136","759213201","5.0.14.0","1","5","end_of_study_questions_ufirst","self_exclusion_1","0","0","0","0","Yes, use my data","1","6888"
"103019","13:09:52","473849136","759213201","5.0.14.0","1","5","end_of_study_questions_ufirst","self_exclusion_1other","0","0","0","0","","1","6888"
"103019","09:09:21","276063162","838352248","5.0.14.0","1","1","end_of_study_questions_ifirst","awareness","0","0","0","0","all","1","25276"
"103019","09:09:21","276063162","838352248","5.0.14.0","1","2","end_of_study_questions_ifirst","influence_general","0","0","0","0","about half","1","10100"
"103019","09:09:21","276063162","838352248","5.0.14.0","1","3","end_of_study_questions_ifirst","intentionality","0","0","0","0","a few","1","13615"
"103019","09:09:21","276063162","838352248","5.0.14.0","1","4","end_of_study_questions_ifirst","unintentionality","0","0","0","0","less than half","1","15882"
"103019","09:09:21","276063162","838352248","5.0.14.0","1","5","end_of_study_questions_ifirst","self_exclusion_1","0","0","0","0","Yes, use my data","1","19903"
"103019","09:09:21","276063162","838352248","5.0.14.0","1","5","end_of_study_questions_ifirst","self_exclusion_1other","0","0","0","0","","1","19903"
"103019","13:17:38","155602372","517139861","5.0.14.0","1","1","end_of_study_questions_ufirst","awareness","0","0","0","0","all","1","28994"
"103019","13:17:38","155602372","517139861","5.0.14.0","1","2","end_of_study_questions_ufirst","influence_general","0","0","0","0","about half","1","11578"
"103019","13:17:38","155602372","517139861","5.0.14.0","1","3","end_of_study_questions_ufirst","unintentionality","0","0","0","0","less than half","1","15773"
"103019","13:17:38","155602372","517139861","5.0.14.0","1","4","end_of_study_questions_ufirst","intentionality","0","0","0","0","a few","1","8436"
"103019","13:17:38","155602372","517139861","5.0.14.0","1","5","end_of_study_questions_ufirst","self_exclusion_1","0","0","0","0","Yes, use my data","1","24299"
"103019","13:17:38","155602372","517139861","5.0.14.0","1","5","end_of_study_questions_ufirst","self_exclusion_1other","0","0","0","0","","1","24299"
"103019","13:10:54","376483269","729743135","5.0.14.0","1","1","end_of_study_questions_ufirst","awareness","0","0","0","0","all","1","18832"
"103019","13:10:54","376483269","729743135","5.0.14.0","1","2","end_of_study_questions_ufirst","influence_general","0","0","0","0","about half","1","7867"
"103019","13:10:54","376483269","729743135","5.0.14.0","1","3","end_of_study_questions_ufirst","unintentionality","0","0","0","0","more than half","1","9016"
"103019","13:10:54","376483269","729743135","5.0.14.0","1","4","end_of_study_questions_ufirst","intentionality","0","0","0","0","none","1","5207"
"103019","13:10:54","376483269","729743135","5.0.14.0","1","5","end_of_study_questions_ufirst","self_exclusion_1","0","0","0","0","Yes, use my data","1","2779"
"103019","13:10:54","376483269","729743135","5.0.14.0","1","5","end_of_study_questions_ufirst","self_exclusion_1other","0","0","0","0","","1","2779"
"103019","13:11:06","723498074","85035571","5.0.14.0","1","1","end_of_study_questions_ufirst","awareness","0","0","0","0","a few","1","10711"
"103019","13:11:06","723498074","85035571","5.0.14.0","1","2","end_of_study_questions_ufirst","influence_general","0","0","0","0","a few","1","9224"
"103019","13:11:06","723498074","85035571","5.0.14.0","1","3","end_of_study_questions_ufirst","unintentionality","0","0","0","0","a few","1","6902"
"103019","13:11:06","723498074","85035571","5.0.14.0","1","4","end_of_study_questions_ufirst","intentionality","0","0","0","0","a few","1","9429"
"103019","13:11:06","723498074","85035571","5.0.14.0","1","5","end_of_study_questions_ufirst","self_exclusion_1","0","0","0","0","Yes, use my data","1","9971"
"103019","13:11:06","723498074","85035571","5.0.14.0","1","5","end_of_study_questions_ufirst","self_exclusion_1other","0","0","0","0","","1","9971"
"103019","13:11:06","466007465","712066633","5.0.14.0","1","1","end_of_study_questions_ufirst","awareness","0","0","0","0","all","1","38808"
"103019","13:11:06","466007465","712066633","5.0.14.0","1","2","end_of_study_questions_ufirst","influence_general","0","0","0","0","less than half","1","8298"
"103019","13:11:06","466007465","712066633","5.0.14.0","1","3","end_of_study_questions_ufirst","unintentionality","0","0","0","0","a few","1","9743"
"103019","13:11:06","466007465","712066633","5.0.14.0","1","4","end_of_study_questions_ufirst","intentionality","0","0","0","0","a few","1","7295"
"103019","13:11:06","466007465","712066633","5.0.14.0","1","5","end_of_study_questions_ufirst","self_exclusion_1","0","0","0","0","Yes, use my data","1","17766"
"103019","13:11:06","466007465","712066633","5.0.14.0","1","5","end_of_study_questions_ufirst","self_exclusion_1other","0","0","0","0","","1","17766"
"103019","13:11:55","890780790","252318275","5.0.14.0","1","1","end_of_study_questions_ufirst","awareness","0","0","0","0","less than half","1","10535"
"103019","13:11:55","890780790","252318275","5.0.14.0","1","2","end_of_study_questions_ufirst","influence_general","0","0","0","0","about half","1","9157"
"103019","13:11:55","890780790","252318275","5.0.14.0","1","3","end_of_study_questions_ufirst","unintentionality","0","0","0","0","less than half","1","7256"
"103019","13:11:55","890780790","252318275","5.0.14.0","1","4","end_of_study_questions_ufirst","intentionality","0","0","0","0","about half","1","2200"
"103019","13:11:55","890780790","252318275","5.0.14.0","1","5","end_of_study_questions_ufirst","self_exclusion_1","0","0","0","0","Yes, use my data","1","11611"
"103019","13:11:55","890780790","252318275","5.0.14.0","1","5","end_of_study_questions_ufirst","self_exclusion_1other","0","0","0","0","","1","11611"
"103019","09:18:01","118729054","681018145","5.0.14.0","1","1","end_of_study_questions_ufirst","awareness","0","0","0","0","all","1","26033"
"103019","09:18:01","118729054","681018145","5.0.14.0","1","2","end_of_study_questions_ufirst","influence_general","0","0","0","0","less than half","1","12551"
"103019","09:18:01","118729054","681018145","5.0.14.0","1","3","end_of_study_questions_ufirst","unintentionality","0","0","0","0","a few","1","10519"
"103019","09:18:01","118729054","681018145","5.0.14.0","1","4","end_of_study_questions_ufirst","intentionality","0","0","0","0","a few","1","7019"
"103019","09:18:01","118729054","681018145","5.0.14.0","1","5","end_of_study_questions_ufirst","self_exclusion_1","0","0","0","0","Yes, use my data","1","7934"
"103019","09:18:01","118729054","681018145","5.0.14.0","1","5","end_of_study_questions_ufirst","self_exclusion_1other","0","0","0","0","","1","7934"
"103019","13:11:54","807975445","370264543","5.0.14.0","1","1","end_of_study_questions_ufirst","awareness","0","0","0","0","all","1","13819"
"103019","13:11:54","807975445","370264543","5.0.14.0","1","2","end_of_study_questions_ufirst","influence_general","0","0","0","0","a few","1","18389"
"103019","13:11:54","807975445","370264543","5.0.14.0","1","3","end_of_study_questions_ufirst","unintentionality","0","0","0","0","none","1","12159"
"103019","13:11:54","807975445","370264543","5.0.14.0","1","4","end_of_study_questions_ufirst","intentionality","0","0","0","0","none","1","7639"
"103019","13:11:54","807975445","370264543","5.0.14.0","1","5","end_of_study_questions_ufirst","self_exclusion_1","0","0","0","0","Yes, use my data","1","26423"
"103019","13:11:54","807975445","370264543","5.0.14.0","1","5","end_of_study_questions_ufirst","self_exclusion_1other","0","0","0","0","","1","26423"
"103019","13:12:05","712198788","958257953","5.0.14.0","1","1","end_of_study_questions_ufirst","awareness","0","0","0","0","all","1","40297"
"103019","13:12:05","712198788","958257953","5.0.14.0","1","2","end_of_study_questions_ufirst","influence_general","0","0","0","0","about half","1","23499"
"103019","13:12:05","712198788","958257953","5.0.14.0","1","3","end_of_study_questions_ufirst","unintentionality","0","0","0","0","more than half","1","7636"
"103019","13:12:05","712198788","958257953","5.0.14.0","1","4","end_of_study_questions_ufirst","intentionality","0","0","0","0","a few","1","10636"
"103019","13:12:05","712198788","958257953","5.0.14.0","1","5","end_of_study_questions_ufirst","self_exclusion_1","0","0","0","0","Yes, use my data","1","28455"
"103019","13:12:05","712198788","958257953","5.0.14.0","1","5","end_of_study_questions_ufirst","self_exclusion_1other","0","0","0","0","","1","28455"
"103019","13:11:16","679941198","242230305","5.0.14.0","1","1","end_of_study_questions_ufirst","awareness","0","0","0","0","all","1","25613"
"103019","13:11:16","679941198","242230305","5.0.14.0","1","2","end_of_study_questions_ufirst","influence_general","0","0","0","0","less than half","1","12138"
"103019","13:11:16","679941198","242230305","5.0.14.0","1","3","end_of_study_questions_ufirst","unintentionality","0","0","0","0","more than half","1","6067"
"103019","13:11:16","679941198","242230305","5.0.14.0","1","4","end_of_study_questions_ufirst","intentionality","0","0","0","0","none","1","13810"
"103019","13:11:16","679941198","242230305","5.0.14.0","1","5","end_of_study_questions_ufirst","self_exclusion_1","0","0","0","0","No, exclude my data (please specify why):","1","90278"
"103019","13:11:16","679941198","242230305","5.0.14.0","1","5","end_of_study_questions_ufirst","self_exclusion_1other","0","0","0","0","I feel as if I may have tried hard to ensure my responses weren't influenced, which may have distracted me from the point of the exercise.","1","90278"
"103019","13:13:23","703700391","912891039","5.0.14.0","1","1","end_of_study_questions_ufirst","awareness","0","0","0","0","most","1","16207"
"103019","13:13:23","703700391","912891039","5.0.14.0","1","2","end_of_study_questions_ufirst","influence_general","0","0","0","0","about half","1","7199"
"103019","13:13:23","703700391","912891039","5.0.14.0","1","3","end_of_study_questions_ufirst","unintentionality","0","0","0","0","more than half","1","6862"
"103019","13:13:23","703700391","912891039","5.0.14.0","1","4","end_of_study_questions_ufirst","intentionality","0","0","0","0","less than half","1","6295"
"103019","13:13:23","703700391","912891039","5.0.14.0","1","5","end_of_study_questions_ufirst","self_exclusion_1","0","0","0","0","Yes, use my data","1","12794"
"103019","13:13:23","703700391","912891039","5.0.14.0","1","5","end_of_study_questions_ufirst","self_exclusion_1other","0","0","0","0","","1","12794"
"103019","13:13:17","296896163","650156029","5.0.14.0","1","1","end_of_study_questions_ufirst","awareness","0","0","0","0","most","1","24792"
"103019","13:13:17","296896163","650156029","5.0.14.0","1","2","end_of_study_questions_ufirst","influence_general","0","0","0","0","none","1","11513"
"103019","13:13:17","296896163","650156029","5.0.14.0","1","3","end_of_study_questions_ufirst","unintentionality","0","0","0","0","a few","1","6922"
"103019","13:13:17","296896163","650156029","5.0.14.0","1","4","end_of_study_questions_ufirst","intentionality","0","0","0","0","none","1","6892"
"103019","13:13:17","296896163","650156029","5.0.14.0","1","5","end_of_study_questions_ufirst","self_exclusion_1","0","0","0","0","Yes, use my data","1","10438"
"103019","13:13:17","296896163","650156029","5.0.14.0","1","5","end_of_study_questions_ufirst","self_exclusion_1other","0","0","0","0","","1","10438"
"103019","09:13:16","260529877","506589044","5.0.14.0","1","1","end_of_study_questions_ifirst","awareness","0","0","0","0","all","1","15878"
"103019","09:13:16","260529877","506589044","5.0.14.0","1","2","end_of_study_questions_ifirst","influence_general","0","0","0","0","all","1","9578"
"103019","09:13:16","260529877","506589044","5.0.14.0","1","3","end_of_study_questions_ifirst","intentionality","0","0","0","0","about half","1","7893"
"103019","09:13:16","260529877","506589044","5.0.14.0","1","4","end_of_study_questions_ifirst","unintentionality","0","0","0","0","all","1","8777"
"103019","09:13:16","260529877","506589044","5.0.14.0","1","5","end_of_study_questions_ifirst","self_exclusion_1","0","0","0","0","Yes, use my data","1","21203"
"103019","09:13:16","260529877","506589044","5.0.14.0","1","5","end_of_study_questions_ifirst","self_exclusion_1other","0","0","0","0","","1","21203"
"103019","13:13:21","17450497","950544410","5.0.14.0","1","1","end_of_study_questions_ifirst","awareness","0","0","0","0","all","1","19683"
"103019","13:13:21","17450497","950544410","5.0.14.0","1","2","end_of_study_questions_ifirst","influence_general","0","0","0","0","more than half","1","7414"
"103019","13:13:21","17450497","950544410","5.0.14.0","1","3","end_of_study_questions_ifirst","intentionality","0","0","0","0","more than half","1","8223"
"103019","13:13:21","17450497","950544410","5.0.14.0","1","4","end_of_study_questions_ifirst","unintentionality","0","0","0","0","about half","1","15009"
"103019","13:13:21","17450497","950544410","5.0.14.0","1","5","end_of_study_questions_ifirst","self_exclusion_1","0","0","0","0","Yes, use my data","1","17951"
"103019","13:13:21","17450497","950544410","5.0.14.0","1","5","end_of_study_questions_ifirst","self_exclusion_1other","0","0","0","0","","1","17951"
"103019","08:14:09","617103359","978640849","5.0.14.0","1","1","end_of_study_questions_ufirst","awareness","0","0","0","0","about half","1","10408"
"103019","08:14:09","617103359","978640849","5.0.14.0","1","2","end_of_study_questions_ufirst","influence_general","0","0","0","0","more than half","1","6299"
"103019","08:14:09","617103359","978640849","5.0.14.0","1","3","end_of_study_questions_ufirst","unintentionality","0","0","0","0","about half","1","17095"
"103019","08:14:09","617103359","978640849","5.0.14.0","1","4","end_of_study_questions_ufirst","intentionality","0","0","0","0","less than half","1","5394"
"103019","08:14:09","617103359","978640849","5.0.14.0","1","5","end_of_study_questions_ufirst","self_exclusion_1","0","0","0","0","Yes, use my data","1","6243"
"103019","08:14:09","617103359","978640849","5.0.14.0","1","5","end_of_study_questions_ufirst","self_exclusion_1other","0","0","0","0","","1","6243"
"103019","13:13:49","55816808","618105897","5.0.14.0","1","1","end_of_study_questions_ufirst","awareness","0","0","0","0","all","1","25415"
"103019","13:13:49","55816808","618105897","5.0.14.0","1","2","end_of_study_questions_ufirst","influence_general","0","0","0","0","less than half","1","7476"
"103019","13:13:49","55816808","618105897","5.0.14.0","1","3","end_of_study_questions_ufirst","unintentionality","0","0","0","0","none","1","8276"
"103019","13:13:49","55816808","618105897","5.0.14.0","1","4","end_of_study_questions_ufirst","intentionality","0","0","0","0","none","1","9098"
"103019","13:13:49","55816808","618105897","5.0.14.0","1","5","end_of_study_questions_ufirst","self_exclusion_1","0","0","0","0","Yes, use my data","1","18118"
"103019","13:13:49","55816808","618105897","5.0.14.0","1","5","end_of_study_questions_ufirst","self_exclusion_1other","0","0","0","0","","1","18118"
"103019","13:14:28","974310377","335847867","5.0.14.0","1","1","end_of_study_questions_ufirst","awareness","0","0","0","0","all","1","18598"
"103019","13:14:28","974310377","335847867","5.0.14.0","1","2","end_of_study_questions_ufirst","influence_general","0","0","0","0","less than half","1","10199"
"103019","13:14:28","974310377","335847867","5.0.14.0","1","3","end_of_study_questions_ufirst","unintentionality","0","0","0","0","a few","1","8391"
"103019","13:14:28","974310377","335847867","5.0.14.0","1","4","end_of_study_questions_ufirst","intentionality","0","0","0","0","a few","1","6006"
"103019","13:14:28","974310377","335847867","5.0.14.0","1","5","end_of_study_questions_ufirst","self_exclusion_1","0","0","0","0","Yes, use my data","1","11858"
"103019","13:14:28","974310377","335847867","5.0.14.0","1","5","end_of_study_questions_ufirst","self_exclusion_1other","0","0","0","0","","1","11858"
"103019","13:14:34","330236025","892525113","5.0.14.0","1","1","end_of_study_questions_ufirst","awareness","0","0","0","0","all","1","21080"
"103019","13:14:34","330236025","892525113","5.0.14.0","1","2","end_of_study_questions_ufirst","influence_general","0","0","0","0","less than half","1","5842"
"103019","13:14:34","330236025","892525113","5.0.14.0","1","3","end_of_study_questions_ufirst","unintentionality","0","0","0","0","more than half","1","5776"
"103019","13:14:34","330236025","892525113","5.0.14.0","1","4","end_of_study_questions_ufirst","intentionality","0","0","0","0","a few","1","6081"
"103019","13:14:34","330236025","892525113","5.0.14.0","1","5","end_of_study_questions_ufirst","self_exclusion_1","0","0","0","0","Yes, use my data","1","13581"
"103019","13:14:34","330236025","892525113","5.0.14.0","1","5","end_of_study_questions_ufirst","self_exclusion_1other","0","0","0","0","","1","13581"
"103019","13:15:02","893435843","102328359","5.0.14.0","1","1","end_of_study_questions_ufirst","awareness","0","0","0","0","all","1","19156"
"103019","13:15:02","893435843","102328359","5.0.14.0","1","2","end_of_study_questions_ufirst","influence_general","0","0","0","0","about half","1","5819"
"103019","13:15:02","893435843","102328359","5.0.14.0","1","3","end_of_study_questions_ufirst","unintentionality","0","0","0","0","none","1","5270"
"103019","13:15:02","893435843","102328359","5.0.14.0","1","4","end_of_study_questions_ufirst","intentionality","0","0","0","0","about half","1","7353"
"103019","13:15:02","893435843","102328359","5.0.14.0","1","5","end_of_study_questions_ufirst","self_exclusion_1","0","0","0","0","Yes, use my data","1","6846"
"103019","13:15:02","893435843","102328359","5.0.14.0","1","5","end_of_study_questions_ufirst","self_exclusion_1other","0","0","0","0","","1","6846"
"103019","13:15:10","235480376","989421210","5.0.14.0","1","1","end_of_study_questions_ifirst","awareness","0","0","0","0","all","1","17922"
"103019","13:15:10","235480376","989421210","5.0.14.0","1","2","end_of_study_questions_ifirst","influence_general","0","0","0","0","a few","1","8959"
"103019","13:15:10","235480376","989421210","5.0.14.0","1","3","end_of_study_questions_ifirst","intentionality","0","0","0","0","none","1","7159"
"103019","13:15:10","235480376","989421210","5.0.14.0","1","4","end_of_study_questions_ifirst","unintentionality","0","0","0","0","a few","1","6722"
"103019","13:15:10","235480376","989421210","5.0.14.0","1","5","end_of_study_questions_ifirst","self_exclusion_1","0","0","0","0","Yes, use my data","1","5039"
"103019","13:15:10","235480376","989421210","5.0.14.0","1","5","end_of_study_questions_ifirst","self_exclusion_1other","0","0","0","0","","1","5039"
"103019","08:13:57","95540799","657829893","5.0.14.0","1","1","end_of_study_questions_ufirst","awareness","0","0","0","0","all","1","16719"
"103019","08:13:57","95540799","657829893","5.0.14.0","1","2","end_of_study_questions_ufirst","influence_general","0","0","0","0","more than half","1","11631"
"103019","08:13:57","95540799","657829893","5.0.14.0","1","3","end_of_study_questions_ufirst","unintentionality","0","0","0","0","most","1","7459"
"103019","08:13:57","95540799","657829893","5.0.14.0","1","4","end_of_study_questions_ufirst","intentionality","0","0","0","0","about half","1","8730"
"103019","08:13:57","95540799","657829893","5.0.14.0","1","5","end_of_study_questions_ufirst","self_exclusion_1","0","0","0","0","Yes, use my data","1","7173"
"103019","08:13:57","95540799","657829893","5.0.14.0","1","5","end_of_study_questions_ufirst","self_exclusion_1other","0","0","0","0","","1","7173"
"103019","13:15:20","799973233","477740652","5.0.14.0","1","1","end_of_study_questions_ifirst","awareness","0","0","0","0","all","1","23481"
"103019","13:15:20","799973233","477740652","5.0.14.0","1","2","end_of_study_questions_ifirst","influence_general","0","0","0","0","less than half","1","9491"
"103019","13:15:20","799973233","477740652","5.0.14.0","1","3","end_of_study_questions_ifirst","intentionality","0","0","0","0","less than half","1","8602"
"103019","13:15:20","799973233","477740652","5.0.14.0","1","4","end_of_study_questions_ifirst","unintentionality","0","0","0","0","about half","1","11480"
"103019","13:15:20","799973233","477740652","5.0.14.0","1","5","end_of_study_questions_ifirst","self_exclusion_1","0","0","0","0","Yes, use my data","1","9205"
"103019","13:15:20","799973233","477740652","5.0.14.0","1","5","end_of_study_questions_ifirst","self_exclusion_1other","0","0","0","0","","1","9205"
"103019","09:15:54","794340601","263078795","5.0.14.0","1","1","end_of_study_questions_ufirst","awareness","0","0","0","0","all","1","19661"
"103019","09:15:54","794340601","263078795","5.0.14.0","1","2","end_of_study_questions_ufirst","influence_general","0","0","0","0","a few","1","6591"
"103019","09:15:54","794340601","263078795","5.0.14.0","1","3","end_of_study_questions_ufirst","unintentionality","0","0","0","0","none","1","10004"
"103019","09:15:54","794340601","263078795","5.0.14.0","1","4","end_of_study_questions_ufirst","intentionality","0","0","0","0","none","1","8586"
"103019","09:15:54","794340601","263078795","5.0.14.0","1","5","end_of_study_questions_ufirst","self_exclusion_1","0","0","0","0","Yes, use my data","1","11742"
"103019","09:15:54","794340601","263078795","5.0.14.0","1","5","end_of_study_questions_ufirst","self_exclusion_1other","0","0","0","0","","1","11742"
"103019","08:16:31","419413427","981702513","5.0.14.0","1","1","end_of_study_questions_ufirst","awareness","0","0","0","0","all","1","8463"
"103019","08:16:31","419413427","981702513","5.0.14.0","1","2","end_of_study_questions_ufirst","influence_general","0","0","0","0","less than half","1","7147"
"103019","08:16:31","419413427","981702513","5.0.14.0","1","3","end_of_study_questions_ufirst","unintentionality","0","0","0","0","less than half","1","5736"
"103019","08:16:31","419413427","981702513","5.0.14.0","1","4","end_of_study_questions_ufirst","intentionality","0","0","0","0","none","1","8499"
"103019","08:16:31","419413427","981702513","5.0.14.0","1","5","end_of_study_questions_ufirst","self_exclusion_1","0","0","0","0","Yes, use my data","1","4032"
"103019","08:16:31","419413427","981702513","5.0.14.0","1","5","end_of_study_questions_ufirst","self_exclusion_1other","0","0","0","0","","1","4032"
"103019","13:16:15","440915494","650106134","5.0.14.0","1","1","end_of_study_questions_ifirst","awareness","0","0","0","0","all","1","27301"
"103019","13:16:15","440915494","650106134","5.0.14.0","1","2","end_of_study_questions_ifirst","influence_general","0","0","0","0","a few","1","13639"
"103019","13:16:15","440915494","650106134","5.0.14.0","1","3","end_of_study_questions_ifirst","intentionality","0","0","0","0","none","1","5318"
"103019","13:16:15","440915494","650106134","5.0.14.0","1","4","end_of_study_questions_ifirst","unintentionality","0","0","0","0","none","1","10310"
"103019","13:16:15","440915494","650106134","5.0.14.0","1","5","end_of_study_questions_ifirst","self_exclusion_1","0","0","0","0","Yes, use my data","1","20113"
"103019","13:16:15","440915494","650106134","5.0.14.0","1","5","end_of_study_questions_ifirst","self_exclusion_1other","0","0","0","0","","1","20113"
"103019","09:16:52","298339770","660175383","5.0.14.0","1","1","end_of_study_questions_ufirst","awareness","0","0","0","0","all","1","31355"
"103019","09:16:52","298339770","660175383","5.0.14.0","1","2","end_of_study_questions_ufirst","influence_general","0","0","0","0","a few","1","6906"
"103019","09:16:52","298339770","660175383","5.0.14.0","1","3","end_of_study_questions_ufirst","unintentionality","0","0","0","0","a few","1","9386"
"103019","09:16:52","298339770","660175383","5.0.14.0","1","4","end_of_study_questions_ufirst","intentionality","0","0","0","0","none","1","7160"
"103019","09:16:52","298339770","660175383","5.0.14.0","1","5","end_of_study_questions_ufirst","self_exclusion_1","0","0","0","0","Yes, use my data","1","10325"
"103019","09:16:52","298339770","660175383","5.0.14.0","1","5","end_of_study_questions_ufirst","self_exclusion_1other","0","0","0","0","","1","10325"
"103019","13:16:50","50613392","804554224","5.0.14.0","1","1","end_of_study_questions_ifirst","awareness","0","0","0","0","all","1","31864"
"103019","13:16:50","50613392","804554224","5.0.14.0","1","2","end_of_study_questions_ifirst","influence_general","0","0","0","0","most","1","19316"
"103019","13:16:50","50613392","804554224","5.0.14.0","1","3","end_of_study_questions_ifirst","intentionality","0","0","0","0","most","1","15237"
"103019","13:16:50","50613392","804554224","5.0.14.0","1","4","end_of_study_questions_ifirst","unintentionality","0","0","0","0","a few","1","7725"
"103019","13:16:50","50613392","804554224","5.0.14.0","1","5","end_of_study_questions_ifirst","self_exclusion_1","0","0","0","0","Yes, use my data","1","7546"
"103019","13:16:50","50613392","804554224","5.0.14.0","1","5","end_of_study_questions_ifirst","self_exclusion_1other","0","0","0","0","","1","7546"
"103019","13:16:01","183075062","678936250","5.0.14.0","1","1","end_of_study_questions_ifirst","awareness","0","0","0","0","all","1","24554"
"103019","13:16:01","183075062","678936250","5.0.14.0","1","2","end_of_study_questions_ifirst","influence_general","0","0","0","0","about half","1","16455"
"103019","13:16:01","183075062","678936250","5.0.14.0","1","3","end_of_study_questions_ifirst","intentionality","0","0","0","0","about half","1","9600"
"103019","13:16:01","183075062","678936250","5.0.14.0","1","4","end_of_study_questions_ifirst","unintentionality","0","0","0","0","about half","1","12850"
"103019","13:16:01","183075062","678936250","5.0.14.0","1","5","end_of_study_questions_ifirst","self_exclusion_1","0","0","0","0","No, exclude my data (please specify why):","1","137100"
"103019","13:16:01","183075062","678936250","5.0.14.0","1","5","end_of_study_questions_ifirst","self_exclusion_1other","0","0","0","0","well i the images flashed too fast. i couldnt se the chinese symbols and sometimes i couldnt see the pivtures. My judgment wasnt always a true answer.","1","137100"
"103119","00:18:11","272019591","480893473","5.0.14.0","1","1","end_of_study_questions_ufirst","awareness","0","0","0","0","all","1","17113"
"103119","00:18:11","272019591","480893473","5.0.14.0","1","2","end_of_study_questions_ufirst","influence_general","0","0","0","0","a few","1","15947"
"103119","00:18:11","272019591","480893473","5.0.14.0","1","3","end_of_study_questions_ufirst","unintentionality","0","0","0","0","none","1","14969"
"103119","00:18:11","272019591","480893473","5.0.14.0","1","4","end_of_study_questions_ufirst","intentionality","0","0","0","0","about half","1","9495"
"103119","00:18:11","272019591","480893473","5.0.14.0","1","5","end_of_study_questions_ufirst","self_exclusion_1","0","0","0","0","Yes, use my data","1","26414"
"103119","00:18:11","272019591","480893473","5.0.14.0","1","5","end_of_study_questions_ufirst","self_exclusion_1other","0","0","0","0","","1","26414"
"103019","08:18:26","312500554","482386297","5.0.14.0","1","1","end_of_study_questions_ufirst","awareness","0","0","0","0","all","1","35756"
"103019","08:18:26","312500554","482386297","5.0.14.0","1","2","end_of_study_questions_ufirst","influence_general","0","0","0","0","a few","1","13665"
"103019","08:18:26","312500554","482386297","5.0.14.0","1","3","end_of_study_questions_ufirst","unintentionality","0","0","0","0","about half","1","5347"
"103019","08:18:26","312500554","482386297","5.0.14.0","1","4","end_of_study_questions_ufirst","intentionality","0","0","0","0","a few","1","5316"
"103019","08:18:26","312500554","482386297","5.0.14.0","1","5","end_of_study_questions_ufirst","self_exclusion_1","0","0","0","0","Yes, use my data","1","13047"
"103019","08:18:26","312500554","482386297","5.0.14.0","1","5","end_of_study_questions_ufirst","self_exclusion_1other","0","0","0","0","","1","13047"
"103019","13:18:54","170124688","638862874","5.0.14.0","1","1","end_of_study_questions_ifirst","awareness","0","0","0","0","all","1","29657"
"103019","13:18:54","170124688","638862874","5.0.14.0","1","2","end_of_study_questions_ifirst","influence_general","0","0","0","0","less than half","1","12465"
"103019","13:18:54","170124688","638862874","5.0.14.0","1","3","end_of_study_questions_ifirst","intentionality","0","0","0","0","a few","1","9190"
"103019","13:18:54","170124688","638862874","5.0.14.0","1","4","end_of_study_questions_ifirst","unintentionality","0","0","0","0","a few","1","7425"
"103019","13:18:54","170124688","638862874","5.0.14.0","1","5","end_of_study_questions_ifirst","self_exclusion_1","0","0","0","0","Yes, use my data","1","7735"
"103019","13:18:54","170124688","638862874","5.0.14.0","1","5","end_of_study_questions_ifirst","self_exclusion_1other","0","0","0","0","","1","7735"
"103019","09:19:23","432580035","71322043","5.0.14.0","1","1","end_of_study_questions_ufirst","awareness","0","0","0","0","all","1","17953"
"103019","09:19:23","432580035","71322043","5.0.14.0","1","2","end_of_study_questions_ufirst","influence_general","0","0","0","0","less than half","1","9616"
"103019","09:19:23","432580035","71322043","5.0.14.0","1","3","end_of_study_questions_ufirst","unintentionality","0","0","0","0","more than half","1","5821"
"103019","09:19:23","432580035","71322043","5.0.14.0","1","4","end_of_study_questions_ufirst","intentionality","0","0","0","0","less than half","1","6447"
"103019","09:19:23","432580035","71322043","5.0.14.0","1","5","end_of_study_questions_ufirst","self_exclusion_1","0","0","0","0","Yes, use my data","1","7855"
"103019","09:19:23","432580035","71322043","5.0.14.0","1","5","end_of_study_questions_ufirst","self_exclusion_1other","0","0","0","0","","1","7855"
"103019","09:20:40","425462159","179402998","5.0.14.0","1","1","end_of_study_questions_ifirst","awareness","0","0","0","0","all","1","18955"
"103019","09:20:40","425462159","179402998","5.0.14.0","1","2","end_of_study_questions_ifirst","influence_general","0","0","0","0","less than half","1","8021"
"103019","09:20:40","425462159","179402998","5.0.14.0","1","3","end_of_study_questions_ifirst","intentionality","0","0","0","0","a few","1","9102"
"103019","09:20:40","425462159","179402998","5.0.14.0","1","4","end_of_study_questions_ifirst","unintentionality","0","0","0","0","more than half","1","5397"
"103019","09:20:40","425462159","179402998","5.0.14.0","1","5","end_of_study_questions_ifirst","self_exclusion_1","0","0","0","0","Yes, use my data","1","8728"
"103019","09:20:40","425462159","179402998","5.0.14.0","1","5","end_of_study_questions_ifirst","self_exclusion_1other","0","0","0","0","","1","8728"
"103019","13:20:44","625138837","263601360","5.0.14.0","1","1","end_of_study_questions_ifirst","awareness","0","0","0","0","all","1","20108"
"103019","13:20:44","625138837","263601360","5.0.14.0","1","2","end_of_study_questions_ifirst","influence_general","0","0","0","0","a few","1","7153"
"103019","13:20:44","625138837","263601360","5.0.14.0","1","3","end_of_study_questions_ifirst","intentionality","0","0","0","0","a few","1","7670"
"103019","13:20:44","625138837","263601360","5.0.14.0","1","4","end_of_study_questions_ifirst","unintentionality","0","0","0","0","a few","1","6207"
"103019","13:20:44","625138837","263601360","5.0.14.0","1","5","end_of_study_questions_ifirst","self_exclusion_1","0","0","0","0","Yes, use my data","1","11678"
"103019","13:20:44","625138837","263601360","5.0.14.0","1","5","end_of_study_questions_ifirst","self_exclusion_1other","0","0","0","0","","1","11678"
"103019","06:21:19","576217572","138506683","5.0.15.0","1","1","end_of_study_questions_ufirst","awareness","0","0","0","0","most","1","21688"
"103019","06:21:19","576217572","138506683","5.0.15.0","1","2","end_of_study_questions_ufirst","influence_general","0","0","0","0","none","1","11116"
"103019","06:21:19","576217572","138506683","5.0.15.0","1","3","end_of_study_questions_ufirst","unintentionality","0","0","0","0","a few","1","9245"
"103019","06:21:19","576217572","138506683","5.0.15.0","1","4","end_of_study_questions_ufirst","intentionality","0","0","0","0","none","1","6670"
"103019","06:21:19","576217572","138506683","5.0.15.0","1","5","end_of_study_questions_ufirst","self_exclusion_1","0","0","0","0","Yes, use my data","1","5395"
"103019","06:21:19","576217572","138506683","5.0.15.0","1","5","end_of_study_questions_ufirst","self_exclusion_1other","0","0","0","0","","1","5395"
"103019","13:21:24","966405747","720346584","5.0.14.0","1","1","end_of_study_questions_ifirst","awareness","0","0","0","0","most","1","17114"
"103019","13:21:24","966405747","720346584","5.0.14.0","1","2","end_of_study_questions_ifirst","influence_general","0","0","0","0","most","1","10536"
"103019","13:21:24","966405747","720346584","5.0.14.0","1","3","end_of_study_questions_ifirst","intentionality","0","0","0","0","most","1","6162"
"103019","13:21:24","966405747","720346584","5.0.14.0","1","4","end_of_study_questions_ifirst","unintentionality","0","0","0","0","less than half","1","7082"
"103019","13:21:24","966405747","720346584","5.0.14.0","1","5","end_of_study_questions_ifirst","self_exclusion_1","0","0","0","0","Yes, use my data","1","19076"
"103019","13:21:24","966405747","720346584","5.0.14.0","1","5","end_of_study_questions_ifirst","self_exclusion_1other","0","0","0","0","","1","19076"
"103019","13:20:07","733031124","666441811","5.0.14.0","1","1","end_of_study_questions_ufirst","awareness","0","0","0","0","all","1","57505"
"103019","13:20:07","733031124","666441811","5.0.14.0","1","2","end_of_study_questions_ufirst","influence_general","0","0","0","0","a few","1","10990"
"103019","13:20:07","733031124","666441811","5.0.14.0","1","3","end_of_study_questions_ufirst","unintentionality","0","0","0","0","none","1","28542"
"103019","13:20:07","733031124","666441811","5.0.14.0","1","4","end_of_study_questions_ufirst","intentionality","0","0","0","0","none","1","6985"
"103019","13:20:07","733031124","666441811","5.0.14.0","1","5","end_of_study_questions_ufirst","self_exclusion_1","0","0","0","0","Yes, use my data","1","31774"
"103019","13:20:07","733031124","666441811","5.0.14.0","1","5","end_of_study_questions_ufirst","self_exclusion_1other","0","0","0","0","","1","31774"
"103019","13:21:49","479647585","649533327","5.0.14.0","1","1","end_of_study_questions_ufirst","awareness","0","0","0","0","all","1","26649"
"103019","13:21:49","479647585","649533327","5.0.14.0","1","2","end_of_study_questions_ufirst","influence_general","0","0","0","0","less than half","1","8189"
"103019","13:21:49","479647585","649533327","5.0.14.0","1","3","end_of_study_questions_ufirst","unintentionality","0","0","0","0","about half","1","8604"
"103019","13:21:49","479647585","649533327","5.0.14.0","1","4","end_of_study_questions_ufirst","intentionality","0","0","0","0","a few","1","6614"
"103019","13:21:49","479647585","649533327","5.0.14.0","1","5","end_of_study_questions_ufirst","self_exclusion_1","0","0","0","0","Yes, use my data","1","6111"
"103019","13:21:49","479647585","649533327","5.0.14.0","1","5","end_of_study_questions_ufirst","self_exclusion_1other","0","0","0","0","","1","6111"
"103019","13:21:34","506690470","859652210","5.0.14.0","1","1","end_of_study_questions_ifirst","awareness","0","0","0","0","all","1","31540"
"103019","13:21:34","506690470","859652210","5.0.14.0","1","2","end_of_study_questions_ifirst","influence_general","0","0","0","0","a few","1","7365"
"103019","13:21:34","506690470","859652210","5.0.14.0","1","3","end_of_study_questions_ifirst","intentionality","0","0","0","0","a few","1","5819"
"103019","13:21:34","506690470","859652210","5.0.14.0","1","4","end_of_study_questions_ifirst","unintentionality","0","0","0","0","less than half","1","5808"
"103019","13:21:34","506690470","859652210","5.0.14.0","1","5","end_of_study_questions_ifirst","self_exclusion_1","0","0","0","0","No, exclude my data (please specify why):","1","43109"
"103019","13:21:34","506690470","859652210","5.0.14.0","1","5","end_of_study_questions_ifirst","self_exclusion_1other","0","0","0","0","I do not feel that I was able to determine what counted as a more appealing character. To me they were all just symbols","1","43109"
"103019","13:22:20","636370295","997907784","5.0.14.0","1","1","end_of_study_questions_ifirst","awareness","0","0","0","0","all","1","22236"
"103019","13:22:20","636370295","997907784","5.0.14.0","1","2","end_of_study_questions_ifirst","influence_general","0","0","0","0","about half","1","6865"
"103019","13:22:20","636370295","997907784","5.0.14.0","1","3","end_of_study_questions_ifirst","intentionality","0","0","0","0","about half","1","6151"
"103019","13:22:20","636370295","997907784","5.0.14.0","1","4","end_of_study_questions_ifirst","unintentionality","0","0","0","0","less than half","1","8506"
"103019","13:22:20","636370295","997907784","5.0.14.0","1","5","end_of_study_questions_ifirst","self_exclusion_1","0","0","0","0","Yes, use my data","1","9950"
"103019","13:22:20","636370295","997907784","5.0.14.0","1","5","end_of_study_questions_ifirst","self_exclusion_1other","0","0","0","0","","1","9950"
"103019","23:55:13","384893787","62661212","5.0.14.0","1","1","end_of_study_questions_ifirst","awareness","0","0","0","0","all","1","16146"
"103019","23:55:13","384893787","62661212","5.0.14.0","1","2","end_of_study_questions_ifirst","influence_general","0","0","0","0","none","1","5708"
"103019","23:55:13","384893787","62661212","5.0.14.0","1","3","end_of_study_questions_ifirst","intentionality","0","0","0","0","none","1","4793"
"103019","23:55:13","384893787","62661212","5.0.14.0","1","4","end_of_study_questions_ifirst","unintentionality","0","0","0","0","none","1","4894"
"103019","23:55:13","384893787","62661212","5.0.14.0","1","5","end_of_study_questions_ifirst","self_exclusion_1","0","0","0","0","Yes, use my data","1","16158"
"103019","23:55:13","384893787","62661212","5.0.14.0","1","5","end_of_study_questions_ifirst","self_exclusion_1other","0","0","0","0","","1","16158"
"103019","13:27:37","274617624","559981693","5.0.14.0","1","1","end_of_study_questions_ufirst","awareness","0","0","0","0","all","1","23337"
"103019","13:27:37","274617624","559981693","5.0.14.0","1","2","end_of_study_questions_ufirst","influence_general","0","0","0","0","more than half","1","10583"
"103019","13:27:37","274617624","559981693","5.0.14.0","1","3","end_of_study_questions_ufirst","unintentionality","0","0","0","0","about half","1","10497"
"103019","13:27:37","274617624","559981693","5.0.14.0","1","4","end_of_study_questions_ufirst","intentionality","0","0","0","0","more than half","1","5041"
"103019","13:27:37","274617624","559981693","5.0.14.0","1","5","end_of_study_questions_ufirst","self_exclusion_1","0","0","0","0","Yes, use my data","1","11637"
"103019","13:27:37","274617624","559981693","5.0.14.0","1","5","end_of_study_questions_ufirst","self_exclusion_1other","0","0","0","0","","1","11637"
"103019","07:29:41","722327913","452194466","5.0.14.0","1","1","end_of_study_questions_ifirst","awareness","0","0","0","0","most","1","7306"
"103019","07:29:41","722327913","452194466","5.0.14.0","1","2","end_of_study_questions_ifirst","influence_general","0","0","0","0","more than half","1","4321"
"103019","07:29:41","722327913","452194466","5.0.14.0","1","3","end_of_study_questions_ifirst","intentionality","0","0","0","0","more than half","1","2418"
"103019","07:29:41","722327913","452194466","5.0.14.0","1","4","end_of_study_questions_ifirst","unintentionality","0","0","0","0","most","1","2291"
"103019","07:29:41","722327913","452194466","5.0.14.0","1","5","end_of_study_questions_ifirst","self_exclusion_1","0","0","0","0","Yes, use my data","1","3063"
"103019","07:29:41","722327913","452194466","5.0.14.0","1","5","end_of_study_questions_ifirst","self_exclusion_1other","0","0","0","0","","1","3063"
"103019","13:31:32","424567113","518279437","5.0.14.0","1","1","end_of_study_questions_ufirst","awareness","0","0","0","0","about half","1","51313"
"103019","13:31:32","424567113","518279437","5.0.14.0","1","2","end_of_study_questions_ufirst","influence_general","0","0","0","0","about half","1","91597"
"103019","13:31:32","424567113","518279437","5.0.14.0","1","3","end_of_study_questions_ufirst","unintentionality","0","0","0","0","about half","1","23766"
"103019","13:31:32","424567113","518279437","5.0.14.0","1","4","end_of_study_questions_ufirst","intentionality","0","0","0","0","about half","1","13817"
"103019","13:31:32","424567113","518279437","5.0.14.0","1","5","end_of_study_questions_ufirst","self_exclusion_1","0","0","0","0","Yes, use my data","1","5726"
"103019","13:31:32","424567113","518279437","5.0.14.0","1","5","end_of_study_questions_ufirst","self_exclusion_1other","0","0","0","0","","1","5726"
"103019","09:29:45","369723435","48502446","5.0.14.0","1","1","end_of_study_questions_ifirst","awareness","0","0","0","0","none","1","26146"
"103019","09:29:45","369723435","48502446","5.0.14.0","1","2","end_of_study_questions_ifirst","influence_general","0","0","0","0","none","1","7562"
"103019","09:29:45","369723435","48502446","5.0.14.0","1","3","end_of_study_questions_ifirst","intentionality","0","0","0","0","none","1","7956"
"103019","09:29:45","369723435","48502446","5.0.14.0","1","4","end_of_study_questions_ifirst","unintentionality","0","0","0","0","none","1","5501"
"103019","09:29:45","369723435","48502446","5.0.14.0","1","5","end_of_study_questions_ifirst","self_exclusion_1","0","0","0","0","No, exclude my data (please specify why):","1","341243"
"103019","09:29:45","369723435","48502446","5.0.14.0","1","5","end_of_study_questions_ifirst","self_exclusion_1other","0","0","0","0","The Chinese characters flashed after the picture for a milisecond on some, and were not shown at all on some. They came through as a pixelated square. Once I began the survey, it would not let me exit. The only thing that the data provided by me would be valuable, would be if this was an experiment of what keys people press when trying to get a program to stop running unsuccessfully.","1","341243"
"103019","13:38:27","828961453","273202521","5.0.14.0","1","1","end_of_study_questions_ufirst","awareness","0","0","0","0","less than half","1","12575"
"103019","13:38:27","828961453","273202521","5.0.14.0","1","2","end_of_study_questions_ufirst","influence_general","0","0","0","0","less than half","1","6765"
"103019","13:38:27","828961453","273202521","5.0.14.0","1","3","end_of_study_questions_ufirst","unintentionality","0","0","0","0","about half","1","3879"
"103019","13:38:27","828961453","273202521","5.0.14.0","1","4","end_of_study_questions_ufirst","intentionality","0","0","0","0","about half","1","3644"
"103019","13:38:27","828961453","273202521","5.0.14.0","1","5","end_of_study_questions_ufirst","self_exclusion_1","0","0","0","0","Yes, use my data","1","7163"
"103019","13:38:27","828961453","273202521","5.0.14.0","1","5","end_of_study_questions_ufirst","self_exclusion_1other","0","0","0","0","","1","7163"
"103019","08:37:56","906519169","280507946","5.0.14.0","1","1","end_of_study_questions_ifirst","awareness","0","0","0","0","all","1","36692"
"103019","08:37:56","906519169","280507946","5.0.14.0","1","2","end_of_study_questions_ifirst","influence_general","0","0","0","0","none","1","5830"
"103019","08:37:56","906519169","280507946","5.0.14.0","1","3","end_of_study_questions_ifirst","intentionality","0","0","0","0","none","1","9806"
"103019","08:37:56","906519169","280507946","5.0.14.0","1","4","end_of_study_questions_ifirst","unintentionality","0","0","0","0","none","1","5786"
"103019","08:37:56","906519169","280507946","5.0.14.0","1","5","end_of_study_questions_ifirst","self_exclusion_1","0","0","0","0","Yes, use my data","1","8072"
"103019","08:37:56","906519169","280507946","5.0.14.0","1","5","end_of_study_questions_ifirst","self_exclusion_1other","0","0","0","0","","1","8072"
"103019","13:41:05","129018289","947483956","5.0.14.0","1","1","end_of_study_questions_ifirst","awareness","0","0","0","0","all","1","15701"
"103019","13:41:05","129018289","947483956","5.0.14.0","1","2","end_of_study_questions_ifirst","influence_general","0","0","0","0","about half","1","7780"
"103019","13:41:05","129018289","947483956","5.0.14.0","1","3","end_of_study_questions_ifirst","intentionality","0","0","0","0","a few","1","7379"
"103019","13:41:05","129018289","947483956","5.0.14.0","1","4","end_of_study_questions_ifirst","unintentionality","0","0","0","0","less than half","1","13787"
"103019","13:41:05","129018289","947483956","5.0.14.0","1","5","end_of_study_questions_ifirst","self_exclusion_1","0","0","0","0","Yes, use my data","1","9032"
"103019","13:41:05","129018289","947483956","5.0.14.0","1","5","end_of_study_questions_ifirst","self_exclusion_1other","0","0","0","0","","1","9032"
"103019","06:45:49","153168970","362359620","5.0.14.0","1","1","end_of_study_questions_ifirst","awareness","0","0","0","0","about half","1","35152"
"103019","06:45:49","153168970","362359620","5.0.14.0","1","2","end_of_study_questions_ifirst","influence_general","0","0","0","0","less than half","1","7776"
"103019","06:45:49","153168970","362359620","5.0.14.0","1","3","end_of_study_questions_ifirst","intentionality","0","0","0","0","a few","1","8545"
"103019","06:45:49","153168970","362359620","5.0.14.0","1","4","end_of_study_questions_ifirst","unintentionality","0","0","0","0","about half","1","10511"
"103019","06:45:49","153168970","362359620","5.0.14.0","1","5","end_of_study_questions_ifirst","self_exclusion_1","0","0","0","0","Yes, use my data","1","7363"
"103019","06:45:49","153168970","362359620","5.0.14.0","1","5","end_of_study_questions_ifirst","self_exclusion_1other","0","0","0","0","","1","7363"
"103019","13:52:14","358613490","528499232","5.0.14.0","1","1","end_of_study_questions_ifirst","awareness","0","0","0","0","most","1","23117"
"103019","13:52:14","358613490","528499232","5.0.14.0","1","2","end_of_study_questions_ifirst","influence_general","0","0","0","0","less than half","1","10482"
"103019","13:52:14","358613490","528499232","5.0.14.0","1","3","end_of_study_questions_ifirst","intentionality","0","0","0","0","a few","1","8496"
"103019","13:52:14","358613490","528499232","5.0.14.0","1","4","end_of_study_questions_ifirst","unintentionality","0","0","0","0","a few","1","6575"
"103019","13:52:14","358613490","528499232","5.0.14.0","1","5","end_of_study_questions_ifirst","self_exclusion_1","0","0","0","0","Yes, use my data","1","13772"
"103019","13:52:14","358613490","528499232","5.0.14.0","1","5","end_of_study_questions_ifirst","self_exclusion_1other","0","0","0","0","","1","13772"
"103019","08:55:21","645137594","82848512","5.0.14.0","1","1","end_of_study_questions_ifirst","awareness","0","0","0","0","most","1","11135"
"103019","08:55:21","645137594","82848512","5.0.14.0","1","2","end_of_study_questions_ifirst","influence_general","0","0","0","0","a few","1","5903"
"103019","08:55:21","645137594","82848512","5.0.14.0","1","3","end_of_study_questions_ifirst","intentionality","0","0","0","0","none","1","5033"
"103019","08:55:21","645137594","82848512","5.0.14.0","1","4","end_of_study_questions_ifirst","unintentionality","0","0","0","0","a few","1","4109"
"103019","08:55:21","645137594","82848512","5.0.14.0","1","5","end_of_study_questions_ifirst","self_exclusion_1","0","0","0","0","Yes, use my data","1","3361"
"103019","08:55:21","645137594","82848512","5.0.14.0","1","5","end_of_study_questions_ifirst","self_exclusion_1other","0","0","0","0","","1","3361"
"103019","09:57:30","254445665","892908182","5.0.14.0","1","1","end_of_study_questions_ifirst","awareness","0","0","0","0","about half","1","8487"
"103019","09:57:30","254445665","892908182","5.0.14.0","1","2","end_of_study_questions_ifirst","influence_general","0","0","0","0","more than half","1","5539"
"103019","09:57:30","254445665","892908182","5.0.14.0","1","3","end_of_study_questions_ifirst","intentionality","0","0","0","0","more than half","1","6725"
"103019","09:57:30","254445665","892908182","5.0.14.0","1","4","end_of_study_questions_ifirst","unintentionality","0","0","0","0","most","1","5047"
"103019","09:57:30","254445665","892908182","5.0.14.0","1","5","end_of_study_questions_ifirst","self_exclusion_1","0","0","0","0","Yes, use my data","1","3564"
"103019","09:57:30","254445665","892908182","5.0.14.0","1","5","end_of_study_questions_ifirst","self_exclusion_1other","0","0","0","0","","1","3564"
"103019","09:57:23","419962360","58424878","5.0.14.0","1","1","end_of_study_questions_ifirst","awareness","0","0","0","0","about half","1","48938"
"103019","09:57:23","419962360","58424878","5.0.14.0","1","2","end_of_study_questions_ifirst","influence_general","0","0","0","0","about half","1","7447"
"103019","09:57:23","419962360","58424878","5.0.14.0","1","3","end_of_study_questions_ifirst","intentionality","0","0","0","0","more than half","1","8670"
"103019","09:57:23","419962360","58424878","5.0.14.0","1","4","end_of_study_questions_ifirst","unintentionality","0","0","0","0","less than half","1","14280"
"103019","09:57:23","419962360","58424878","5.0.14.0","1","5","end_of_study_questions_ifirst","self_exclusion_1","0","0","0","0","Yes, use my data","1","3217"
"103019","09:57:23","419962360","58424878","5.0.14.0","1","5","end_of_study_questions_ifirst","self_exclusion_1other","0","0","0","0","","1","3217"
"103019","08:57:40","930427026","368137935","5.0.14.0","1","1","end_of_study_questions_ufirst","awareness","0","0","0","0","all","1","20634"
"103019","08:57:40","930427026","368137935","5.0.14.0","1","2","end_of_study_questions_ufirst","influence_general","0","0","0","0","most","1","4900"
"103019","08:57:40","930427026","368137935","5.0.14.0","1","3","end_of_study_questions_ufirst","unintentionality","0","0","0","0","most","1","7753"
"103019","08:57:40","930427026","368137935","5.0.14.0","1","4","end_of_study_questions_ufirst","intentionality","0","0","0","0","all","1","5934"
"103019","08:57:40","930427026","368137935","5.0.14.0","1","5","end_of_study_questions_ufirst","self_exclusion_1","0","0","0","0","Yes, use my data","1","5710"
"103019","08:57:40","930427026","368137935","5.0.14.0","1","5","end_of_study_questions_ufirst","self_exclusion_1other","0","0","0","0","","1","5710"
"103019","13:59:03","787835629","323001728","5.0.14.0","1","1","end_of_study_questions_ifirst","awareness","0","0","0","0","all","1","13161"
"103019","13:59:03","787835629","323001728","5.0.14.0","1","2","end_of_study_questions_ifirst","influence_general","0","0","0","0","more than half","1","5923"
"103019","13:59:03","787835629","323001728","5.0.14.0","1","3","end_of_study_questions_ifirst","intentionality","0","0","0","0","a few","1","4267"
"103019","13:59:03","787835629","323001728","5.0.14.0","1","4","end_of_study_questions_ifirst","unintentionality","0","0","0","0","more than half","1","4091"
"103019","13:59:03","787835629","323001728","5.0.14.0","1","5","end_of_study_questions_ifirst","self_exclusion_1","0","0","0","0","Yes, use my data","1","5814"
"103019","13:59:03","787835629","323001728","5.0.14.0","1","5","end_of_study_questions_ifirst","self_exclusion_1other","0","0","0","0","","1","5814"
"103019","13:59:13","622468340","716180668","5.0.14.0","1","1","end_of_study_questions_ifirst","awareness","0","0","0","0","all","1","16167"
"103019","13:59:13","622468340","716180668","5.0.14.0","1","2","end_of_study_questions_ifirst","influence_general","0","0","0","0","about half","1","9426"
"103019","13:59:13","622468340","716180668","5.0.14.0","1","3","end_of_study_questions_ifirst","intentionality","0","0","0","0","a few","1","9556"
"103019","13:59:13","622468340","716180668","5.0.14.0","1","4","end_of_study_questions_ifirst","unintentionality","0","0","0","0","more than half","1","5605"
"103019","13:59:13","622468340","716180668","5.0.14.0","1","5","end_of_study_questions_ifirst","self_exclusion_1","0","0","0","0","Yes, use my data","1","14856"
"103019","13:59:13","622468340","716180668","5.0.14.0","1","5","end_of_study_questions_ifirst","self_exclusion_1other","0","0","0","0","","1","14856"
"103019","07:02:03","610902277","249364807","5.0.14.0","1","1","end_of_study_questions_ufirst","awareness","0","0","0","0","all","1","12006"
"103019","07:02:03","610902277","249364807","5.0.14.0","1","2","end_of_study_questions_ufirst","influence_general","0","0","0","0","less than half","1","7974"
"103019","07:02:03","610902277","249364807","5.0.14.0","1","3","end_of_study_questions_ufirst","unintentionality","0","0","0","0","less than half","1","7740"
"103019","07:02:03","610902277","249364807","5.0.14.0","1","4","end_of_study_questions_ufirst","intentionality","0","0","0","0","less than half","1","12696"
"103019","07:02:03","610902277","249364807","5.0.14.0","1","5","end_of_study_questions_ufirst","self_exclusion_1","0","0","0","0","Yes, use my data","1","2767"
"103019","07:02:03","610902277","249364807","5.0.14.0","1","5","end_of_study_questions_ufirst","self_exclusion_1other","0","0","0","0","","1","2767"
"103019","14:02:34","310545589","480431333","5.0.14.0","1","1","end_of_study_questions_ufirst","awareness","0","0","0","0","a few","1","12761"
"103019","14:02:34","310545589","480431333","5.0.14.0","1","2","end_of_study_questions_ufirst","influence_general","0","0","0","0","a few","1","6851"
"103019","14:02:34","310545589","480431333","5.0.14.0","1","3","end_of_study_questions_ufirst","unintentionality","0","0","0","0","none","1","8571"
"103019","14:02:34","310545589","480431333","5.0.14.0","1","4","end_of_study_questions_ufirst","intentionality","0","0","0","0","a few","1","5851"
"103019","14:02:34","310545589","480431333","5.0.14.0","1","5","end_of_study_questions_ufirst","self_exclusion_1","0","0","0","0","Yes, use my data","1","7351"
"103019","14:02:34","310545589","480431333","5.0.14.0","1","5","end_of_study_questions_ufirst","self_exclusion_1other","0","0","0","0","","1","7351"
"103019","10:04:51","811516479","249227388","5.0.14.0","1","1","end_of_study_questions_ifirst","awareness","0","0","0","0","all","1","23468"
"103019","10:04:51","811516479","249227388","5.0.14.0","1","2","end_of_study_questions_ifirst","influence_general","0","0","0","0","all","1","8430"
"103019","10:04:51","811516479","249227388","5.0.14.0","1","3","end_of_study_questions_ifirst","intentionality","0","0","0","0","all","1","4736"
"103019","10:04:51","811516479","249227388","5.0.14.0","1","4","end_of_study_questions_ifirst","unintentionality","0","0","0","0","none","1","6800"
"103019","10:04:51","811516479","249227388","5.0.14.0","1","5","end_of_study_questions_ifirst","self_exclusion_1","0","0","0","0","Yes, use my data","1","7278"
"103019","10:04:51","811516479","249227388","5.0.14.0","1","5","end_of_study_questions_ifirst","self_exclusion_1other","0","0","0","0","","1","7278"
"103019","14:05:35","90055778","433570131","5.0.14.0","1","1","end_of_study_questions_ufirst","awareness","0","0","0","0","all","1","20108"
"103019","14:05:35","90055778","433570131","5.0.14.0","1","2","end_of_study_questions_ufirst","influence_general","0","0","0","0","less than half","1","8150"
"103019","14:05:35","90055778","433570131","5.0.14.0","1","3","end_of_study_questions_ufirst","unintentionality","0","0","0","0","less than half","1","10125"
"103019","14:05:35","90055778","433570131","5.0.14.0","1","4","end_of_study_questions_ufirst","intentionality","0","0","0","0","a few","1","5467"
"103019","14:05:35","90055778","433570131","5.0.14.0","1","5","end_of_study_questions_ufirst","self_exclusion_1","0","0","0","0","Yes, use my data","1","12456"
"103019","14:05:35","90055778","433570131","5.0.14.0","1","5","end_of_study_questions_ufirst","self_exclusion_1other","0","0","0","0","","1","12456"
"103019","10:05:46","117175144","402539215","5.0.14.0","1","1","end_of_study_questions_ufirst","awareness","0","0","0","0","all","1","8643"
"103019","10:05:46","117175144","402539215","5.0.14.0","1","2","end_of_study_questions_ufirst","influence_general","0","0","0","0","a few","1","12996"
"103019","10:05:46","117175144","402539215","5.0.14.0","1","3","end_of_study_questions_ufirst","unintentionality","0","0","0","0","a few","1","6876"
"103019","10:05:46","117175144","402539215","5.0.14.0","1","4","end_of_study_questions_ufirst","intentionality","0","0","0","0","none","1","4625"
"103019","10:05:46","117175144","402539215","5.0.14.0","1","5","end_of_study_questions_ufirst","self_exclusion_1","0","0","0","0","Yes, use my data","1","15356"
"103019","10:05:46","117175144","402539215","5.0.14.0","1","5","end_of_study_questions_ufirst","self_exclusion_1other","0","0","0","0","","1","15356"
"103019","14:09:05","592407058","877771129","5.0.14.0","1","1","end_of_study_questions_ufirst","awareness","0","0","0","0","all","1","15983"
"103019","14:09:05","592407058","877771129","5.0.14.0","1","2","end_of_study_questions_ufirst","influence_general","0","0","0","0","a few","1","12990"
"103019","14:09:05","592407058","877771129","5.0.14.0","1","3","end_of_study_questions_ufirst","unintentionality","0","0","0","0","a few","1","15440"
"103019","14:09:05","592407058","877771129","5.0.14.0","1","4","end_of_study_questions_ufirst","intentionality","0","0","0","0","none","1","9623"
"103019","14:09:05","592407058","877771129","5.0.14.0","1","5","end_of_study_questions_ufirst","self_exclusion_1","0","0","0","0","Yes, use my data","1","21341"
"103019","14:09:05","592407058","877771129","5.0.14.0","1","5","end_of_study_questions_ufirst","self_exclusion_1other","0","0","0","0","","1","21341"
"103019","10:12:44","78550510","832491346","5.0.14.0","1","1","end_of_study_questions_ifirst","awareness","0","0","0","0","none","1","7474"
"103019","10:12:44","78550510","832491346","5.0.14.0","1","2","end_of_study_questions_ifirst","influence_general","0","0","0","0","a few","1","4675"
"103019","10:12:44","78550510","832491346","5.0.14.0","1","3","end_of_study_questions_ifirst","intentionality","0","0","0","0","about half","1","3387"
"103019","10:12:44","78550510","832491346","5.0.14.0","1","4","end_of_study_questions_ifirst","unintentionality","0","0","0","0","more than half","1","2604"
"103019","10:12:44","78550510","832491346","5.0.14.0","1","5","end_of_study_questions_ifirst","self_exclusion_1","0","0","0","0","Yes, use my data","1","3526"
"103019","10:12:44","78550510","832491346","5.0.14.0","1","5","end_of_study_questions_ifirst","self_exclusion_1other","0","0","0","0","","1","3526"
