"date","time","subject","blockcode","blocknum","trialcode","trialnum","values.primestim","values.targetstim","correct","latency","trial.prime_positive.totalpercentcorrect","trial.prime_negative.totalpercentcorrect"
"103019","13:29:54","281898249","practice","1","prime_positive_practice","4","0","0","1","974","0","0"
"103019","13:29:54","281898249","practice","1","prime_negative_practice","5","0","0","1","468","0","0"
"103019","13:29:54","281898249","test","2","prime_negative","2","7","35","1","524","0","100"
"103019","12:40:53","495210064","practice","1","prime_negative_practice","4","0","0","1","1875","0","0"
"103019","12:40:53","495210064","practice","1","prime_negative_practice","5","0","0","1","2848","0","0"
"103019","12:40:53","495210064","practice","1","prime_negative_practice","6","0","0","0","1550","0","0"
"103019","12:40:53","495210064","practice","1","prime_positive_practice","7","0","0","0","877","0","0"
"103019","12:40:53","495210064","practice","1","prime_negative_practice","8","0","0","0","3818","0","0"
"103019","12:40:53","495210064","practice","1","prime_positive_practice","9","0","0","1","854","0","0"
"103019","12:40:53","495210064","practice","1","prime_positive_practice","10","0","0","1","1408","0","0"
"103019","12:40:53","495210064","practice","1","prime_negative_practice","11","0","0","0","1112","0","0"
"103019","12:40:53","495210064","practice","1","prime_positive_practice","12","0","0","1","2492","0","0"
"103019","12:40:53","495210064","practice","1","prime_positive_practice","13","0","0","0","1498","0","0"
"103019","12:40:53","495210064","test","2","prime_negative","2","1","55","1","2969","0","100"
"103019","12:40:53","495210064","test","2","prime_positive","3","7","28","0","1711","0","100"
"103019","12:40:53","495210064","test","2","prime_positive","4","4","16","0","1546","0","100"
"103019","12:40:53","495210064","test","2","prime_negative","5","4","25","1","2156","0","100"
"103019","12:40:53","495210064","test","2","prime_negative","6","11","52","0","1384","0","66"
"103019","12:40:53","495210064","test","2","prime_positive","7","6","59","1","1687","33","66"
"103019","12:40:53","495210064","test","2","prime_positive","8","8","60","1","1831","50","66"
"103019","12:40:53","495210064","test","2","prime_positive","9","1","49","1","1391","60","66"
"103019","12:40:53","495210064","test","2","prime_positive","10","2","51","1","868","66","66"
"103019","12:40:53","495210064","test","2","prime_positive","11","11","39","0","1536","57","66"
"103019","12:40:53","495210064","test","2","prime_negative","12","7","47","0","862","57","50"
"103019","12:40:53","495210064","test","2","prime_negative","13","10","14","0","1030","57","40"
"103019","12:40:53","495210064","test","2","prime_negative","14","8","61","0","918","57","33"
"103019","12:40:53","495210064","test","2","prime_negative","15","6","1","1","998","57","42"
"103019","12:40:53","495210064","test","2","prime_negative","16","9","58","0","716","57","37"
"103019","12:40:53","495210064","test","2","prime_positive","17","4","37","0","651","50","37"
"103019","12:40:53","495210064","test","2","prime_positive","18","5","66","1","562","55","37"
"103019","12:40:53","495210064","test","2","prime_positive","19","8","10","1","738","60","37"
"103019","12:40:53","495210064","test","2","prime_negative","20","1","9","0","656","60","33"
"103019","12:40:53","495210064","test","2","prime_positive","21","7","3","0","1175","54","33"
"103019","12:40:53","495210064","test","2","prime_negative","22","11","34","1","930","54","40"
"103019","12:40:53","495210064","test","2","prime_positive","23","6","7","0","896","50","40"
"103019","12:40:53","495210064","test","2","prime_positive","24","3","57","1","557","53","40"
"103019","12:40:53","495210064","test","2","prime_negative","25","4","30","1","862","53","45"
"103019","12:40:53","495210064","test","2","prime_positive","26","10","13","1","849","57","45"
"103019","12:40:53","495210064","test","2","prime_positive","27","9","23","1","454","60","45"
"103019","12:40:53","495210064","test","2","prime_negative","28","7","27","0","836","60","41"
"103019","12:40:53","495210064","test","2","prime_negative","29","12","11","0","789","60","38"
"103019","12:40:53","495210064","test","2","prime_positive","30","1","65","1","393","62","38"
"103019","12:40:53","495210064","test","2","prime_positive","31","12","71","1","555","64","38"
"103019","12:40:53","495210064","test","2","prime_negative","32","5","21","1","585","64","42"
"103019","12:40:53","495210064","test","2","prime_positive","33","2","22","1","540","66","42"
"103019","12:40:53","495210064","test","2","prime_negative","34","10","36","0","478","66","40"
"103019","12:40:53","495210064","test","2","prime_positive","35","11","19","0","1118","63","40"
"103019","12:40:53","495210064","test","2","prime_negative","36","8","45","0","631","63","37"
"103019","12:40:53","495210064","test","2","prime_positive","37","5","33","1","357","65","37"
"103019","12:40:53","495210064","test","2","prime_positive","38","1","72","1","388","66","37"
"103019","12:40:53","495210064","test","2","prime_negative","39","3","8","0","415","66","35"
"103019","12:40:53","495210064","test","2","prime_negative","40","2","43","0","447","66","33"
"103019","12:40:53","495210064","test","2","prime_negative","41","6","32","0","672","66","31"
"103019","12:40:53","495210064","test","2","prime_negative","42","3","26","0","454","66","30"
"103019","12:40:53","495210064","test","2","prime_negative","43","8","63","0","454","66","28"
"103019","12:40:53","495210064","test","2","prime_positive","44","4","40","0","504","63","28"
"103019","12:40:53","495210064","test","2","prime_negative","45","1","56","0","526","63","27"
"103019","12:40:53","495210064","test","2","prime_positive","46","3","64","1","329","65","27"
"103019","12:40:53","495210064","test","2","prime_positive","47","2","29","1","265","66","27"
"103019","12:40:53","495210064","test","2","prime_negative","48","4","6","1","447","66","30"
"103019","12:40:53","495210064","test","2","prime_positive","49","10","4","1","536","68","30"
"103019","12:40:53","495210064","test","2","prime_positive","50","6","54","0","498","65","30"
"103019","12:40:53","495210064","test","2","prime_positive","51","7","41","0","424","62","30"
"103019","12:40:53","495210064","test","2","prime_negative","52","11","12","0","1205","62","29"
"103019","12:40:53","495210064","test","2","prime_negative","53","6","44","0","566","62","28"
"103019","12:40:53","495210064","test","2","prime_positive","54","12","68","1","404","64","28"
"103019","12:40:53","495210064","test","2","prime_negative","55","5","62","1","362","64","30"
"103019","12:40:53","495210064","test","2","prime_positive","56","8","18","1","647","65","30"
"103019","12:40:53","495210064","test","2","prime_negative","57","10","42","0","290","65","29"
"103019","12:40:53","495210064","test","2","prime_negative","58","7","5","1","748","65","32"
"103019","12:40:53","495210064","test","2","prime_negative","59","12","38","0","447","65","31"
"103019","12:40:53","495210064","test","2","prime_positive","60","9","53","1","311","66","31"
"103019","12:40:53","495210064","test","2","prime_positive","61","11","15","0","781","64","31"
"103019","12:40:53","495210064","test","2","prime_negative","62","9","20","0","424","64","30"
"103019","12:40:53","495210064","test","2","prime_negative","63","2","31","0","412","64","29"
"103019","12:40:53","495210064","test","2","prime_negative","64","1","59","0","377","64","28"
"103019","12:40:53","495210064","test","2","prime_positive","65","12","61","1","330","65","28"
"103019","12:40:53","495210064","test","2","prime_negative","66","3","72","0","356","65","27"
"103019","12:40:53","495210064","test","2","prime_negative","67","5","64","1","523","65","29"
"103019","12:40:53","495210064","test","2","prime_negative","68","12","30","1","590","65","31"
"103019","12:40:53","495210064","test","2","prime_positive","69","2","43","1","344","66","31"
"103019","12:40:53","495210064","test","2","prime_positive","70","10","42","1","706","67","31"
"103019","12:40:53","495210064","test","2","prime_positive","71","3","37","1","995","68","31"
"103019","12:40:53","495210064","test","2","prime_positive","72","9","35","1","354","69","31"
"103019","12:40:53","495210064","test","2","prime_negative","73","11","34","0","589","69","30"
"103019","12:42:07","551921491","practice","1","prime_positive_practice","4","0","0","0","1934","0","0"
"103019","12:42:07","551921491","practice","1","prime_positive_practice","5","0","0","0","2373","0","0"
"103019","12:42:07","551921491","practice","1","prime_negative_practice","6","0","0","1","2418","0","0"
"103019","12:42:07","551921491","practice","1","prime_negative_practice","7","0","0","1","669","0","0"
"103019","12:42:07","551921491","practice","1","prime_negative_practice","8","0","0","1","616","0","0"
"103019","12:42:07","551921491","practice","1","prime_positive_practice","9","0","0","0","525","0","0"
"103019","12:42:07","551921491","practice","1","prime_positive_practice","10","0","0","0","1005","0","0"
"103019","12:42:07","551921491","practice","1","prime_negative_practice","11","0","0","1","737","0","0"
"103019","12:42:07","551921491","practice","1","prime_negative_practice","12","0","0","1","761","0","0"
"103019","12:42:07","551921491","practice","1","prime_positive_practice","13","0","0","0","623","0","0"
"103019","12:42:07","551921491","test","2","prime_positive","2","10","3","0","800","0","0"
"103019","12:42:07","551921491","test","2","prime_positive","3","11","26","0","1709","0","0"
"103019","12:42:07","551921491","test","2","prime_positive","4","4","63","1","1345","33","0"
"103019","12:42:07","551921491","test","2","prime_negative","5","9","48","1","668","33","100"
"103019","12:42:07","551921491","test","2","prime_negative","6","8","16","0","462","33","50"
"103019","12:42:07","551921491","test","2","prime_negative","7","3","57","1","816","33","66"
"103019","12:42:07","551921491","test","2","prime_negative","8","11","64","0","1052","33","50"
"103019","12:42:07","551921491","test","2","prime_positive","9","1","2","1","487","50","50"
"103019","12:42:07","551921491","test","2","prime_negative","10","5","15","0","936","50","40"
"103019","12:42:07","551921491","test","2","prime_positive","11","12","58","1","1888","60","40"
"103019","12:42:07","551921491","test","2","prime_negative","12","1","5","0","1369","60","33"
"103019","12:42:07","551921491","test","2","prime_positive","13","9","21","1","670","66","33"
"103019","12:42:07","551921491","test","2","prime_positive","14","8","53","0","688","57","33"
"103019","12:42:07","551921491","test","2","prime_negative","15","2","33","0","2314","57","28"
"103019","12:42:07","551921491","test","2","prime_negative","16","8","50","1","450","57","37"
"103019","12:42:07","551921491","test","2","prime_positive","17","5","28","1","638","62","37"
"103019","12:42:07","551921491","test","2","prime_negative","18","2","9","0","514","62","33"
"103019","12:42:07","551921491","test","2","prime_positive","19","2","62","1","522","66","33"
"103019","12:42:07","551921491","test","2","prime_positive","20","7","31","1","467","70","33"
"103019","12:42:07","551921491","test","2","prime_negative","21","6","11","0","487","70","30"
"103019","12:42:07","551921491","test","2","prime_positive","22","10","1","1","953","72","30"
"103019","12:42:07","551921491","test","2","prime_negative","23","4","32","1","528","72","36"
"103019","12:42:07","551921491","test","2","prime_negative","24","9","39","0","665","72","33"
"103019","12:42:07","551921491","test","2","prime_positive","25","8","44","0","579","66","33"
"103019","12:42:07","551921491","test","2","prime_negative","26","5","61","1","385","66","38"
"103019","12:42:07","551921491","test","2","prime_positive","27","11","72","1","624","69","38"
"103019","12:42:07","551921491","test","2","prime_negative","28","10","10","0","549","69","35"
"103019","12:42:07","551921491","test","2","prime_negative","29","1","34","1","716","69","40"
"103019","12:42:07","551921491","test","2","prime_positive","30","9","27","1","605","71","40"
"103019","12:42:07","551921491","test","2","prime_positive","31","3","71","0","531","66","40"
"103019","12:42:07","551921491","test","2","prime_positive","32","12","37","1","411","68","40"
"103019","12:42:07","551921491","test","2","prime_positive","33","6","14","0","704","64","40"
"103019","12:42:07","551921491","test","2","prime_positive","34","1","45","1","522","66","40"
"103019","12:42:07","551921491","test","2","prime_negative","35","11","30","1","468","66","43"
"103019","12:42:07","551921491","test","2","prime_positive","36","4","70","1","598","68","43"
"103019","12:42:07","551921491","test","2","prime_negative","37","12","35","0","739","68","41"
"103019","12:42:07","551921491","test","2","prime_positive","38","2","20","1","483","70","41"
"103019","12:42:07","551921491","test","2","prime_negative","39","3","22","0","470","70","38"
"103019","12:42:07","551921491","test","2","prime_negative","40","7","67","1","680","70","42"
"103019","12:42:07","551921491","test","2","prime_positive","41","10","51","1","778","71","42"
"103019","12:42:07","551921491","test","2","prime_negative","42","8","55","1","714","71","45"
"103019","12:42:07","551921491","test","2","prime_positive","43","1","47","0","786","68","45"
"103019","12:42:07","551921491","test","2","prime_negative","44","9","66","1","672","68","47"
"103019","12:42:07","551921491","test","2","prime_positive","45","3","25","1","531","69","47"
"103019","12:42:07","551921491","test","2","prime_negative","46","5","69","0","643","69","45"
"103019","12:42:07","551921491","test","2","prime_positive","47","12","12","1","759","70","45"
"103019","12:42:07","551921491","test","2","prime_negative","48","10","60","1","495","70","47"
"103019","12:42:07","551921491","test","2","prime_positive","49","4","6","0","545","68","47"
"103019","12:42:07","551921491","test","2","prime_positive","50","11","24","1","593","69","47"
"103019","12:42:07","551921491","test","2","prime_negative","51","12","54","1","863","69","50"
"103019","12:42:07","551921491","test","2","prime_negative","52","6","59","0","594","69","48"
"103019","12:42:07","551921491","test","2","prime_positive","53","5","38","1","704","70","48"
"103019","12:42:07","551921491","test","2","prime_positive","54","8","49","1","785","71","48"
"103019","12:42:07","551921491","test","2","prime_positive","55","7","42","0","407","68","48"
"103019","12:42:07","551921491","test","2","prime_positive","56","9","17","1","693","70","48"
"103019","12:42:07","551921491","test","2","prime_positive","57","6","19","1","639","70","48"
"103019","12:42:07","551921491","test","2","prime_negative","58","2","36","1","708","70","50"
"103019","12:42:07","551921491","test","2","prime_negative","59","1","46","1","566","70","51"
"103019","12:42:07","551921491","test","2","prime_negative","60","4","65","1","460","70","53"
"103019","12:42:07","551921491","test","2","prime_positive","61","8","23","1","607","71","53"
"103019","12:42:07","551921491","test","2","prime_positive","62","10","56","0","276","69","53"
"103019","12:42:07","551921491","test","2","prime_negative","63","11","41","0","432","69","51"
"103019","12:42:07","551921491","test","2","prime_negative","64","3","67","1","996","69","53"
"103019","12:42:07","551921491","test","2","prime_negative","65","7","33","1","674","69","54"
"103019","12:42:07","551921491","test","2","prime_negative","66","9","12","0","461","69","53"
"103019","12:42:07","551921491","test","2","prime_negative","67","3","29","1","480","69","54"
"103019","12:42:07","551921491","test","2","prime_negative","68","1","54","0","538","69","52"
"103019","12:42:07","551921491","test","2","prime_negative","69","11","50","0","571","69","51"
"103019","12:42:07","551921491","test","2","prime_positive","70","5","52","1","650","70","51"
"103019","12:42:07","551921491","test","2","prime_positive","71","12","37","1","589","71","51"
"103019","12:42:07","551921491","test","2","prime_positive","72","2","56","1","659","72","51"
"103019","12:42:07","551921491","test","2","prime_negative","73","4","2","1","1143","72","52"
"103019","12:41:52","275003775","practice","1","prime_negative_practice","4","0","0","1","4727","0","0"
"103019","12:41:52","275003775","practice","1","prime_negative_practice","5","0","0","1","3444","0","0"
"103019","12:41:52","275003775","practice","1","prime_positive_practice","6","0","0","0","1397","0","0"
"103019","12:41:52","275003775","practice","1","prime_positive_practice","7","0","0","1","1909","0","0"
"103019","12:41:52","275003775","practice","1","prime_negative_practice","8","0","0","1","819","0","0"
"103019","12:41:52","275003775","practice","1","prime_negative_practice","9","0","0","1","1127","0","0"
"103019","12:41:52","275003775","practice","1","prime_positive_practice","10","0","0","1","1618","0","0"
"103019","12:41:52","275003775","practice","1","prime_positive_practice","11","0","0","1","878","0","0"
"103019","12:41:52","275003775","practice","1","prime_negative_practice","12","0","0","0","1429","0","0"
"103019","12:41:52","275003775","practice","1","prime_positive_practice","13","0","0","1","733","0","0"
"103019","12:41:52","275003775","test","2","prime_positive","2","12","52","1","550","100","0"
"103019","12:41:52","275003775","test","2","prime_positive","3","2","15","1","571","100","0"
"103019","12:41:52","275003775","test","2","prime_positive","4","5","27","0","946","66","0"
"103019","12:41:52","275003775","test","2","prime_negative","5","9","4","0","512","66","0"
"103019","12:41:52","275003775","test","2","prime_negative","6","2","72","0","1746","66","0"
"103019","12:41:52","275003775","test","2","prime_negative","7","8","44","1","1510","66","33"
"103019","12:41:52","275003775","test","2","prime_positive","8","1","10","1","655","75","33"
"103019","12:41:52","275003775","test","2","prime_positive","9","10","40","1","709","80","33"
"103019","12:41:52","275003775","test","2","prime_positive","10","3","11","1","524","83","33"
"103019","12:41:52","275003775","test","2","prime_positive","11","4","30","0","956","71","33"
"103019","12:41:52","275003775","test","2","prime_positive","12","12","39","1","1004","75","33"
"103019","12:41:52","275003775","test","2","prime_negative","13","6","53","0","1210","75","25"
"103019","12:41:52","275003775","test","2","prime_negative","14","3","2","1","1395","75","40"
"103019","12:41:52","275003775","test","2","prime_negative","15","12","16","1","1407","75","50"
"103019","12:41:52","275003775","test","2","prime_negative","16","1","45","0","530","75","42"
"103019","12:41:52","275003775","test","2","prime_negative","17","8","33","1","847","75","50"
"103019","12:41:52","275003775","test","2","prime_negative","18","9","66","1","685","75","55"
"103019","12:41:52","275003775","test","2","prime_negative","19","2","3","0","619","75","50"
"103019","12:41:52","275003775","test","2","prime_positive","20","9","54","1","560","77","50"
"103019","12:41:52","275003775","test","2","prime_positive","21","1","1","1","606","80","50"
"103019","12:41:52","275003775","test","2","prime_negative","22","6","62","1","1065","80","54"
"103019","12:41:52","275003775","test","2","prime_positive","23","5","20","0","1395","72","54"
"103019","12:41:52","275003775","test","2","prime_negative","24","7","25","0","796","72","50"
"103019","12:41:52","275003775","test","2","prime_positive","25","8","70","1","1264","75","50"
"103019","12:41:52","275003775","test","2","prime_positive","26","10","24","1","778","76","50"
"103019","12:41:52","275003775","test","2","prime_negative","27","4","69","1","972","76","53"
"103019","12:41:52","275003775","test","2","prime_negative","28","3","26","0","989","76","50"
"103019","12:41:52","275003775","test","2","prime_negative","29","12","46","1","678","76","53"
"103019","12:41:52","275003775","test","2","prime_positive","30","4","34","1","853","78","53"
"103019","12:41:52","275003775","test","2","prime_negative","31","11","23","0","1421","78","50"
"103019","12:41:52","275003775","test","2","prime_positive","32","2","60","1","692","80","50"
"103019","12:41:52","275003775","test","2","prime_negative","33","5","59","1","694","80","52"
"103019","12:41:52","275003775","test","2","prime_positive","34","7","22","1","746","81","52"
"103019","12:41:52","275003775","test","2","prime_positive","35","6","61","1","912","82","52"
"103019","12:41:52","275003775","test","2","prime_positive","36","3","9","1","1016","83","52"
"103019","12:41:52","275003775","test","2","prime_negative","37","10","65","0","699","83","50"
"103019","12:41:52","275003775","test","2","prime_positive","38","11","71","1","913","84","50"
"103019","12:41:52","275003775","test","2","prime_negative","39","1","48","0","848","84","47"
"103019","12:41:52","275003775","test","2","prime_positive","40","4","64","1","1257","85","47"
"103019","12:41:52","275003775","test","2","prime_negative","41","5","7","1","952","85","50"
"103019","12:41:52","275003775","test","2","prime_positive","42","10","5","1","994","85","50"
"103019","12:41:52","275003775","test","2","prime_negative","43","6","32","1","1236","85","52"
"103019","12:41:52","275003775","test","2","prime_negative","44","10","18","0","630","85","50"
"103019","12:41:52","275003775","test","2","prime_negative","45","1","41","0","739","85","47"
"103019","12:41:52","275003775","test","2","prime_positive","46","11","50","0","1145","81","47"
"103019","12:41:52","275003775","test","2","prime_positive","47","5","8","1","571","82","47"
"103019","12:41:52","275003775","test","2","prime_negative","48","2","13","0","913","82","45"
"103019","12:41:52","275003775","test","2","prime_negative","49","8","42","1","604","82","48"
"103019","12:41:52","275003775","test","2","prime_negative","50","9","51","1","596","82","50"
"103019","12:41:52","275003775","test","2","prime_negative","51","7","58","1","589","82","51"
"103019","12:41:52","275003775","test","2","prime_positive","52","8","56","0","827","79","51"
"103019","12:41:52","275003775","test","2","prime_positive","53","3","21","1","602","80","51"
"103019","12:41:52","275003775","test","2","prime_negative","54","12","29","1","698","80","53"
"103019","12:41:52","275003775","test","2","prime_negative","55","3","43","1","631","80","55"
"103019","12:41:52","275003775","test","2","prime_positive","56","7","14","1","501","80","55"
"103019","12:41:52","275003775","test","2","prime_positive","57","1","55","1","514","81","55"
"103019","12:41:52","275003775","test","2","prime_positive","58","9","17","1","975","82","55"
"103019","12:41:52","275003775","test","2","prime_positive","59","2","57","1","779","82","55"
"103019","12:41:52","275003775","test","2","prime_positive","60","12","31","1","462","83","55"
"103019","12:41:52","275003775","test","2","prime_negative","61","11","68","1","895","83","56"
"103019","12:41:52","275003775","test","2","prime_negative","62","4","47","0","522","83","54"
"103019","12:41:52","275003775","test","2","prime_positive","63","6","38","1","658","83","54"
"103019","12:41:52","275003775","test","2","prime_negative","64","4","33","1","657","83","56"
"103019","12:41:52","275003775","test","2","prime_negative","65","2","31","0","547","83","54"
"103019","12:41:52","275003775","test","2","prime_positive","66","8","29","1","564","84","54"
"103019","12:41:52","275003775","test","2","prime_negative","67","5","48","1","901","84","55"
"103019","12:41:52","275003775","test","2","prime_positive","68","5","42","1","628","84","55"
"103019","12:41:52","275003775","test","2","prime_negative","69","1","43","0","995","84","54"
"103019","12:41:52","275003775","test","2","prime_negative","70","11","4","1","684","84","55"
"103019","12:41:52","275003775","test","2","prime_positive","71","6","67","1","515","85","55"
"103019","12:41:52","275003775","test","2","prime_positive","72","2","44","1","450","85","55"
"103019","12:41:52","275003775","test","2","prime_positive","73","11","13","1","447","86","55"
"103019","12:42:29","751341253","practice","1","prime_positive_practice","4","0","0","0","3975","0","0"
"103019","12:42:29","751341253","practice","1","prime_negative_practice","5","0","0","1","1228","0","0"
"103019","12:42:29","751341253","practice","1","prime_negative_practice","6","0","0","1","664","0","0"
"103019","12:42:29","751341253","practice","1","prime_positive_practice","7","0","0","1","1095","0","0"
"103019","12:42:29","751341253","practice","1","prime_negative_practice","8","0","0","0","674","0","0"
"103019","12:42:29","751341253","practice","1","prime_positive_practice","9","0","0","1","906","0","0"
"103019","12:42:29","751341253","practice","1","prime_positive_practice","10","0","0","0","822","0","0"
"103019","12:42:29","751341253","practice","1","prime_negative_practice","11","0","0","0","858","0","0"
"103019","12:42:29","751341253","practice","1","prime_positive_practice","12","0","0","1","951","0","0"
"103019","12:42:29","751341253","practice","1","prime_negative_practice","13","0","0","1","633","0","0"
"103019","12:42:29","751341253","test","2","prime_negative","2","6","35","1","1009","0","100"
"103019","12:42:29","751341253","test","2","prime_negative","3","2","40","0","748","0","50"
"103019","12:42:29","751341253","test","2","prime_negative","4","8","13","0","922","0","33"
"103019","12:42:29","751341253","test","2","prime_positive","5","7","56","0","945","0","33"
"103019","12:42:29","751341253","test","2","prime_positive","6","6","63","0","905","0","33"
"103019","12:42:29","751341253","test","2","prime_positive","7","8","10","1","515","33","33"
"103019","12:42:29","751341253","test","2","prime_positive","8","3","7","1","520","50","33"
"103019","12:42:29","751341253","test","2","prime_negative","9","11","33","1","1501","50","50"
"103019","12:42:29","751341253","test","2","prime_negative","10","3","44","1","763","50","60"
"103019","12:42:29","751341253","test","2","prime_negative","11","10","4","0","1338","50","50"
"103019","12:42:29","751341253","test","2","prime_negative","12","9","39","1","576","50","57"
"103019","12:42:29","751341253","test","2","prime_positive","13","5","14","0","695","40","57"
"103019","12:42:29","751341253","test","2","prime_negative","14","3","45","1","161","40","62"
"103019","12:42:29","751341253","test","2","prime_positive","15","10","48","0","119","33","62"
"103019","12:42:29","751341253","test","2","prime_positive","16","4","49","0","188","28","62"
"103019","12:42:29","751341253","test","2","prime_positive","17","7","21","1","524","37","62"
"103019","12:42:29","751341253","test","2","prime_positive","18","6","18","1","721","44","62"
"103019","12:42:29","751341253","test","2","prime_negative","19","7","61","1","200","44","66"
"103019","12:42:29","751341253","test","2","prime_negative","20","6","54","0","185","44","60"
"103019","12:42:29","751341253","test","2","prime_positive","21","2","9","0","384","40","60"
"103019","12:42:29","751341253","test","2","prime_negative","22","5","15","1","387","40","63"
"103019","12:42:29","751341253","test","2","prime_positive","23","12","22","1","826","45","63"
"103019","12:42:29","751341253","test","2","prime_positive","24","9","55","0","480","41","63"
"103019","12:42:29","751341253","test","2","prime_negative","25","2","52","0","414","41","58"
"103019","12:42:29","751341253","test","2","prime_negative","26","10","65","0","339","41","53"
"103019","12:42:29","751341253","test","2","prime_negative","27","1","28","1","551","41","57"
"103019","12:42:29","751341253","test","2","prime_positive","28","4","59","1","573","46","57"
"103019","12:42:29","751341253","test","2","prime_negative","29","9","69","0","491","46","53"
"103019","12:42:29","751341253","test","2","prime_positive","30","3","50","1","488","50","53"
"103019","12:42:29","751341253","test","2","prime_positive","31","10","6","1","493","53","53"
"103019","12:42:29","751341253","test","2","prime_positive","32","1","31","1","402","56","53"
"103019","12:42:29","751341253","test","2","prime_negative","33","12","29","1","511","56","56"
"103019","12:42:29","751341253","test","2","prime_negative","34","4","17","1","433","56","58"
"103019","12:42:29","751341253","test","2","prime_negative","35","11","1","0","635","56","55"
"103019","12:42:29","751341253","test","2","prime_negative","36","8","43","1","364","56","57"
"103019","12:42:29","751341253","test","2","prime_positive","37","5","20","0","614","52","57"
"103019","12:42:29","751341253","test","2","prime_negative","38","1","19","1","843","52","60"
"103019","12:42:29","751341253","test","2","prime_negative","39","6","2","1","461","52","61"
"103019","12:42:29","751341253","test","2","prime_negative","40","2","66","0","605","52","59"
"103019","12:42:29","751341253","test","2","prime_negative","41","8","36","1","746","52","60"
"103019","12:42:29","751341253","test","2","prime_negative","42","3","41","0","635","52","58"
"103019","12:42:29","751341253","test","2","prime_positive","43","11","16","0","597","50","58"
"103019","12:42:29","751341253","test","2","prime_positive","44","8","67","0","708","47","58"
"103019","12:42:29","751341253","test","2","prime_positive","45","7","12","0","714","45","58"
"103019","12:42:29","751341253","test","2","prime_positive","46","1","62","1","539","47","58"
"103019","12:42:29","751341253","test","2","prime_positive","47","10","11","1","548","50","58"
"103019","12:42:29","751341253","test","2","prime_negative","48","9","8","0","468","50","56"
"103019","12:42:29","751341253","test","2","prime_positive","49","6","37","1","361","52","56"
"103019","12:42:29","751341253","test","2","prime_negative","50","12","23","0","54","52","53"
"103019","12:42:29","751341253","test","2","prime_positive","51","8","71","1","79","54","53"
"103019","12:42:29","751341253","test","2","prime_positive","52","4","26","1","131","56","53"
"103019","12:42:29","751341253","test","2","prime_positive","53","5","57","1","356","57","53"
"103019","12:42:29","751341253","test","2","prime_negative","54","4","53","1","171","57","55"
"103019","12:42:29","751341253","test","2","prime_negative","55","10","51","0","201","57","53"
"103019","12:42:29","751341253","test","2","prime_negative","56","5","34","0","247","57","51"
"103019","12:42:29","751341253","test","2","prime_positive","57","2","27","1","539","59","51"
"103019","12:42:29","751341253","test","2","prime_negative","58","7","30","1","577","59","53"
"103019","12:42:29","751341253","test","2","prime_positive","59","11","72","0","373","57","53"
"103019","12:42:29","751341253","test","2","prime_positive","60","3","47","1","783","58","53"
"103019","12:42:29","751341253","test","2","prime_positive","61","9","46","0","787","56","53"
"103019","12:42:29","751341253","test","2","prime_negative","62","11","32","1","608","56","54"
"103019","12:42:29","751341253","test","2","prime_positive","63","12","68","1","374","58","54"
"103019","12:42:29","751341253","test","2","prime_positive","64","10","5","1","500","59","54"
"103019","12:42:29","751341253","test","2","prime_negative","65","6","61","1","535","59","56"
"103019","12:42:29","751341253","test","2","prime_positive","66","2","49","1","260","60","56"
"103019","12:42:29","751341253","test","2","prime_positive","67","5","4","0","145","58","56"
"103019","12:42:29","751341253","test","2","prime_positive","68","4","23","0","162","57","56"
"103019","12:42:29","751341253","test","2","prime_negative","69","3","36","1","1266","57","57"
"103019","12:42:29","751341253","test","2","prime_negative","70","4","72","1","308","57","58"
"103019","12:42:29","751341253","test","2","prime_negative","71","7","64","1","357","57","60"
"103019","12:42:29","751341253","test","2","prime_positive","72","7","9","1","572","58","60"
"103019","12:42:29","751341253","test","2","prime_negative","73","10","50","1","562","58","61"
"103019","08:42:56","841961967","practice","1","prime_negative_practice","4","0","0","1","1619","0","0"
"103019","08:42:56","841961967","practice","1","prime_positive_practice","5","0","0","1","1048","0","0"
"103019","08:42:56","841961967","practice","1","prime_negative_practice","6","0","0","0","7978","0","0"
"103019","08:42:56","841961967","practice","1","prime_positive_practice","7","0","0","0","2819","0","0"
"103019","08:42:56","841961967","practice","1","prime_positive_practice","8","0","0","0","1307","0","0"
"103019","08:42:56","841961967","practice","1","prime_negative_practice","9","0","0","0","1452","0","0"
"103019","08:42:56","841961967","practice","1","prime_positive_practice","10","0","0","0","1046","0","0"
"103019","08:42:56","841961967","practice","1","prime_positive_practice","11","0","0","0","557","0","0"
"103019","08:42:56","841961967","practice","1","prime_negative_practice","12","0","0","1","634","0","0"
"103019","08:42:56","841961967","practice","1","prime_negative_practice","13","0","0","1","813","0","0"
"103019","08:42:56","841961967","test","2","prime_negative","2","3","24","1","3288","0","100"
"103019","08:42:56","841961967","test","2","prime_negative","3","10","33","1","792","0","100"
"103019","08:42:56","841961967","test","2","prime_negative","4","4","12","1","1012","0","100"
"103019","08:42:56","841961967","test","2","prime_positive","5","7","43","0","392","0","100"
"103019","08:42:56","841961967","test","2","prime_negative","6","7","4","1","436","0","100"
"103019","08:42:56","841961967","test","2","prime_positive","7","12","20","1","521","50","100"
"103019","08:42:56","841961967","test","2","prime_positive","8","4","71","1","509","66","100"
"103019","08:42:56","841961967","test","2","prime_positive","9","11","55","0","1350","50","100"
"103019","08:42:56","841961967","test","2","prime_negative","10","5","3","0","1235","50","80"
"103019","08:42:56","841961967","test","2","prime_negative","11","8","41","1","583","50","83"
"103019","08:42:56","841961967","test","2","prime_negative","12","9","17","0","262","50","71"
"103019","08:42:56","841961967","test","2","prime_positive","13","5","46","1","569","60","71"
"103019","08:42:56","841961967","test","2","prime_negative","14","6","2","1","714","60","75"
"103019","08:42:56","841961967","test","2","prime_positive","15","8","38","0","483","50","75"
"103019","08:42:56","841961967","test","2","prime_positive","16","6","11","0","225","42","75"
"103019","08:42:56","841961967","test","2","prime_positive","17","2","8","1","10351","50","75"
"103019","08:42:56","841961967","test","2","prime_positive","18","11","35","1","1182","55","75"
"103019","08:42:56","841961967","test","2","prime_negative","19","10","6","1","868","55","77"
"103019","08:42:56","841961967","test","2","prime_negative","20","8","45","1","601","55","80"
"103019","08:42:56","841961967","test","2","prime_negative","21","12","25","1","463","55","81"
"103019","08:42:56","841961967","test","2","prime_positive","22","3","42","0","322","50","81"
"103019","08:42:56","841961967","test","2","prime_positive","23","9","56","1","413","54","81"
"103019","08:42:56","841961967","test","2","prime_negative","24","7","34","0","302","54","75"
"103019","08:42:56","841961967","test","2","prime_negative","25","3","9","1","90","54","76"
"103019","08:42:56","841961967","test","2","prime_positive","26","4","44","0","712","50","76"
"103019","08:42:56","841961967","test","2","prime_positive","27","7","67","1","438","53","76"
"103019","08:42:56","841961967","test","2","prime_positive","28","5","68","1","1937","57","76"
"103019","08:42:56","841961967","test","2","prime_negative","29","2","27","0","642","57","71"
"103019","08:42:56","841961967","test","2","prime_positive","30","8","54","0","595","53","71"
"103019","08:42:56","841961967","test","2","prime_positive","31","12","51","1","483","56","71"
"103019","08:42:56","841961967","test","2","prime_negative","32","5","18","1","356","56","73"
"103019","08:42:56","841961967","test","2","prime_positive","33","10","13","0","1181","52","73"
"103019","08:42:56","841961967","test","2","prime_positive","34","1","69","0","2308","50","73"
"103019","08:42:56","841961967","test","2","prime_negative","35","1","66","0","2039","50","68"
"103019","08:42:56","841961967","test","2","prime_negative","36","4","28","0","366","50","64"
"103019","08:42:56","841961967","test","2","prime_negative","37","11","60","0","238","50","61"
"103019","08:42:56","841961967","test","2","prime_negative","38","9","19","0","133","50","57"
"103019","08:42:56","841961967","test","2","prime_positive","39","6","64","0","277","47","57"
"103019","08:42:56","841961967","test","2","prime_positive","40","1","40","0","275","45","57"
"103019","08:42:56","841961967","test","2","prime_positive","41","5","65","0","148","42","57"
"103019","08:42:56","841961967","test","2","prime_positive","42","12","23","1","199","45","57"
"103019","08:42:56","841961967","test","2","prime_negative","43","9","21","1","128","45","60"
"103019","08:42:56","841961967","test","2","prime_positive","44","3","57","0","295","43","60"
"103019","08:42:56","841961967","test","2","prime_negative","45","1","61","1","272","43","61"
"103019","08:42:56","841961967","test","2","prime_negative","46","2","26","1","228","43","63"
"103019","08:42:56","841961967","test","2","prime_positive","47","8","29","1","285","45","63"
"103019","08:42:56","841961967","test","2","prime_negative","48","8","48","0","96","45","60"
"103019","08:42:56","841961967","test","2","prime_positive","49","2","36","1","161","48","60"
"103019","08:42:56","841961967","test","2","prime_positive","50","10","59","0","991","46","60"
"103019","08:42:56","841961967","test","2","prime_positive","51","11","39","0","690","44","60"
"103019","08:42:56","841961967","test","2","prime_positive","52","9","15","0","496","42","60"
"103019","08:42:56","841961967","test","2","prime_negative","53","12","10","1","402","42","62"
"103019","08:42:56","841961967","test","2","prime_positive","54","4","16","0","517","41","62"
"103019","08:42:56","841961967","test","2","prime_negative","55","11","53","1","525","41","64"
"103019","08:42:56","841961967","test","2","prime_negative","56","4","32","1","494","41","65"
"103019","08:42:56","841961967","test","2","prime_positive","57","6","62","1","988","43","65"
"103019","08:42:56","841961967","test","2","prime_negative","58","10","14","1","414","43","66"
"103019","08:42:56","841961967","test","2","prime_positive","59","7","37","1","570","45","66"
"103019","08:42:56","841961967","test","2","prime_positive","60","11","47","1","155","46","66"
"103019","08:42:56","841961967","test","2","prime_positive","61","3","31","0","573","45","66"
"103019","08:42:56","841961967","test","2","prime_negative","62","3","30","1","883","45","67"
"103019","08:42:56","841961967","test","2","prime_positive","63","2","22","0","1037","44","67"
"103019","08:42:56","841961967","test","2","prime_negative","64","7","50","1","614","44","68"
"103019","08:42:56","841961967","test","2","prime_negative","65","6","70","1","446","44","70"
"103019","08:42:56","841961967","test","2","prime_negative","66","5","37","0","282","44","67"
"103019","08:42:56","841961967","test","2","prime_negative","67","12","43","1","476","44","68"
"103019","08:42:56","841961967","test","2","prime_negative","68","3","34","0","224","44","66"
"103019","08:42:56","841961967","test","2","prime_negative","69","11","42","1","861","44","67"
"103019","08:42:56","841961967","test","2","prime_positive","70","8","67","0","341","42","67"
"103019","08:42:56","841961967","test","2","prime_positive","71","4","53","0","735","41","67"
"103019","08:42:56","841961967","test","2","prime_negative","72","9","35","1","406","41","68"
"103019","08:42:56","841961967","test","2","prime_negative","73","2","18","1","561","41","69"
"103019","05:43:20","737173805","practice","1","prime_positive_practice","4","0","0","0","9551","0","0"
"103019","05:43:20","737173805","practice","1","prime_negative_practice","5","0","0","0","4383","0","0"
"103019","05:43:20","737173805","practice","1","prime_positive_practice","6","0","0","0","2310","0","0"
"103019","05:43:20","737173805","practice","1","prime_positive_practice","7","0","0","0","3255","0","0"
"103019","05:43:20","737173805","practice","1","prime_negative_practice","8","0","0","0","3338","0","0"
"103019","05:43:20","737173805","practice","1","prime_negative_practice","9","0","0","0","1338","0","0"
"103019","05:43:20","737173805","practice","1","prime_positive_practice","10","0","0","1","4834","0","0"
"103019","05:43:20","737173805","practice","1","prime_negative_practice","11","0","0","1","1295","0","0"
"103019","05:43:20","737173805","practice","1","prime_negative_practice","12","0","0","0","681","0","0"
"103019","05:43:20","737173805","practice","1","prime_positive_practice","13","0","0","0","4339","0","0"
"103019","05:43:20","737173805","test","2","prime_positive","2","8","42","1","2113","100","0"
"103019","05:43:20","737173805","test","2","prime_negative","3","3","65","0","1018","100","0"
"103019","05:43:20","737173805","test","2","prime_negative","4","8","23","0","2927","100","0"
"103019","05:43:20","737173805","test","2","prime_negative","5","4","15","0","816","100","0"
"103019","05:43:20","737173805","test","2","prime_positive","6","7","48","1","909","100","0"
"103019","05:43:20","737173805","test","2","prime_negative","7","12","33","0","1023","100","0"
"103019","05:43:20","737173805","test","2","prime_negative","8","1","13","0","819","100","0"
"103019","05:43:20","737173805","test","2","prime_negative","9","11","9","1","2977","100","16"
"103019","05:43:20","737173805","test","2","prime_negative","10","7","57","0","1736","100","14"
"103019","05:43:20","737173805","test","2","prime_positive","11","12","21","1","1288","100","14"
"103019","05:43:20","737173805","test","2","prime_positive","12","9","3","0","1522","75","14"
"103019","05:43:20","737173805","test","2","prime_negative","13","11","36","0","1300","75","12"
"103019","05:43:20","737173805","test","2","prime_negative","14","9","32","0","526","75","11"
"103019","05:43:20","737173805","test","2","prime_positive","15","5","25","1","463","80","11"
"103019","05:43:20","737173805","test","2","prime_positive","16","11","16","1","466","83","11"
"103019","05:43:20","737173805","test","2","prime_negative","17","1","55","0","525","83","10"
"103019","05:43:20","737173805","test","2","prime_positive","18","4","62","1","1078","85","10"
"103019","05:43:20","737173805","test","2","prime_positive","19","9","46","1","1585","87","10"
"103019","05:43:20","737173805","test","2","prime_negative","20","10","22","0","527","87","9"
"103019","05:43:20","737173805","test","2","prime_positive","21","8","49","1","360","88","9"
"103019","05:43:20","737173805","test","2","prime_negative","22","7","1","0","311","88","8"
"103019","05:43:20","737173805","test","2","prime_negative","23","2","50","0","377","88","7"
"103019","05:43:20","737173805","test","2","prime_positive","24","11","41","1","496","90","7"
"103019","05:43:20","737173805","test","2","prime_positive","25","5","20","1","570","90","7"
"103019","05:43:20","737173805","test","2","prime_positive","26","10","44","1","1161","91","7"
"103019","05:43:20","737173805","test","2","prime_positive","27","2","26","1","585","92","7"
"103019","05:43:20","737173805","test","2","prime_negative","28","12","43","0","327","92","7"
"103019","05:43:20","737173805","test","2","prime_negative","29","4","47","0","784","92","6"
"103019","05:43:20","737173805","test","2","prime_negative","30","3","17","1","2519","92","12"
"103019","05:43:20","737173805","test","2","prime_positive","31","3","51","0","936","85","12"
"103019","05:43:20","737173805","test","2","prime_positive","32","6","2","1","353","86","12"
"103019","05:43:20","737173805","test","2","prime_negative","33","5","69","0","3441","86","11"
"103019","05:43:20","737173805","test","2","prime_positive","34","4","11","1","366","87","11"
"103019","05:43:20","737173805","test","2","prime_positive","35","7","34","1","509","88","11"
"103019","05:43:20","737173805","test","2","prime_positive","36","12","35","1","487","88","11"
"103019","05:43:20","737173805","test","2","prime_negative","37","8","31","0","474","88","11"
"103019","05:43:20","737173805","test","2","prime_negative","38","6","60","1","933","88","15"
"103019","05:43:20","737173805","test","2","prime_negative","39","3","67","0","1182","88","15"
"103019","05:43:20","737173805","test","2","prime_positive","40","1","12","1","612","89","15"
"103019","05:43:20","737173805","test","2","prime_negative","41","6","59","1","1665","89","19"
"103019","05:43:20","737173805","test","2","prime_negative","42","12","54","0","1156","89","18"
"103019","05:43:20","737173805","test","2","prime_negative","43","8","39","0","997","89","17"
"103019","05:43:20","737173805","test","2","prime_positive","44","10","38","1","459","90","17"
"103019","05:43:20","737173805","test","2","prime_positive","45","11","4","1","407","90","17"
"103019","05:43:20","737173805","test","2","prime_positive","46","1","66","1","1132","90","17"
"103019","05:43:20","737173805","test","2","prime_positive","47","7","68","1","453","91","17"
"103019","05:43:20","737173805","test","2","prime_positive","48","9","61","0","1305","87","17"
"103019","05:43:20","737173805","test","2","prime_negative","49","5","40","0","475","87","16"
"103019","05:43:20","737173805","test","2","prime_positive","50","3","56","1","486","88","16"
"103019","05:43:20","737173805","test","2","prime_positive","51","12","27","1","400","88","16"
"103019","05:43:20","737173805","test","2","prime_negative","52","2","28","1","2655","88","20"
"103019","05:43:20","737173805","test","2","prime_positive","53","2","52","1","1139","88","20"
"103019","05:43:20","737173805","test","2","prime_negative","54","11","19","0","3","88","19"
"103019","05:43:20","737173805","test","2","prime_negative","55","4","70","0","434","88","18"
"103019","05:43:20","737173805","test","2","prime_positive","56","5","53","1","318","89","18"
"103019","05:43:20","737173805","test","2","prime_negative","57","1","18","0","479","89","17"
"103019","05:43:20","737173805","test","2","prime_negative","58","9","5","1","914","89","20"
"103019","05:43:20","737173805","test","2","prime_positive","59","6","24","1","283","89","20"
"103019","05:43:20","737173805","test","2","prime_negative","60","10","6","0","750","89","20"
"103019","05:43:20","737173805","test","2","prime_positive","61","4","10","1","494","90","20"
"103019","05:43:20","737173805","test","2","prime_positive","62","8","8","1","432","90","20"
"103019","05:43:20","737173805","test","2","prime_positive","63","9","37","0","349","87","20"
"103019","05:43:20","737173805","test","2","prime_positive","64","3","41","1","309","87","20"
"103019","05:43:20","737173805","test","2","prime_positive","65","12","19","1","1358","88","20"
"103019","05:43:20","737173805","test","2","prime_negative","66","7","38","0","375","88","19"
"103019","05:43:20","737173805","test","2","prime_negative","67","10","32","0","790","88","18"
"103019","05:43:20","737173805","test","2","prime_positive","68","7","13","1","340","88","18"
"103019","05:43:20","737173805","test","2","prime_negative","69","9","52","0","509","88","18"
"103019","05:43:20","737173805","test","2","prime_negative","70","11","64","0","695","88","17"
"103019","05:43:20","737173805","test","2","prime_negative","71","12","63","0","745","88","17"
"103019","05:43:20","737173805","test","2","prime_positive","72","1","56","1","257","88","17"
"103019","05:43:20","737173805","test","2","prime_negative","73","5","61","0","341","88","16"
"103019","12:42:51","986671127","practice","1","prime_negative_practice","4","0","0","0","4889","0","0"
"103019","12:42:51","986671127","practice","1","prime_positive_practice","5","0","0","0","1823","0","0"
"103019","12:42:51","986671127","practice","1","prime_negative_practice","6","0","0","1","7339","0","0"
"103019","12:42:51","986671127","practice","1","prime_positive_practice","7","0","0","1","7121","0","0"
"103019","12:42:51","986671127","practice","1","prime_positive_practice","8","0","0","1","4835","0","0"
"103019","12:42:51","986671127","practice","1","prime_negative_practice","9","0","0","0","1906","0","0"
"103019","12:42:51","986671127","practice","1","prime_positive_practice","10","0","0","1","3475","0","0"
"103019","12:42:51","986671127","practice","1","prime_positive_practice","11","0","0","1","1316","0","0"
"103019","12:42:51","986671127","practice","1","prime_negative_practice","12","0","0","1","2127","0","0"
"103019","12:42:51","986671127","practice","1","prime_negative_practice","13","0","0","0","1026","0","0"
"103019","12:42:51","986671127","test","2","prime_negative","2","11","17","1","7008","0","100"
"103019","12:42:51","986671127","test","2","prime_negative","3","5","33","0","1387","0","50"
"103019","12:42:51","986671127","test","2","prime_negative","4","9","7","1","1840","0","66"
"103019","12:42:51","986671127","test","2","prime_negative","5","2","68","0","829","0","50"
"103019","12:42:51","986671127","test","2","prime_negative","6","12","21","1","4100","0","60"
"103019","12:42:51","986671127","test","2","prime_negative","7","4","9","0","965","0","50"
"103019","12:42:51","986671127","test","2","prime_negative","8","6","6","1","4262","0","57"
"103019","12:42:51","986671127","test","2","prime_positive","9","9","59","1","1923","100","57"
"103019","12:42:51","986671127","test","2","prime_positive","10","10","54","1","777","100","57"
"103019","12:42:51","986671127","test","2","prime_negative","11","4","13","0","1878","100","50"
"103019","12:42:51","986671127","test","2","prime_negative","12","6","71","1","992","100","55"
"103019","12:42:51","986671127","test","2","prime_negative","13","10","65","1","2316","100","60"
"103019","12:42:51","986671127","test","2","prime_negative","14","9","31","1","3352","100","63"
"103019","12:42:51","986671127","test","2","prime_positive","15","3","18","1","911","100","63"
"103019","12:42:51","986671127","test","2","prime_positive","16","1","8","1","520","100","63"
"103019","12:42:51","986671127","test","2","prime_positive","17","5","20","1","866","100","63"
"103019","12:42:51","986671127","test","2","prime_positive","18","8","27","1","2363","100","63"
"103019","12:42:51","986671127","test","2","prime_negative","19","12","34","0","953","100","58"
"103019","12:42:51","986671127","test","2","prime_negative","20","11","66","0","1364","100","53"
"103019","12:42:51","986671127","test","2","prime_positive","21","12","19","0","1183","85","53"
"103019","12:42:51","986671127","test","2","prime_negative","22","5","24","1","2053","85","57"
"103019","12:42:51","986671127","test","2","prime_negative","23","3","37","0","765","85","53"
"103019","12:42:51","986671127","test","2","prime_negative","24","2","45","1","1063","85","56"
"103019","12:42:51","986671127","test","2","prime_negative","25","7","67","1","1101","85","58"
"103019","12:42:51","986671127","test","2","prime_positive","26","5","1","1","2832","87","58"
"103019","12:42:51","986671127","test","2","prime_negative","27","8","72","1","1770","87","61"
"103019","12:42:51","986671127","test","2","prime_negative","28","1","64","0","1180","87","57"
"103019","12:42:51","986671127","test","2","prime_positive","29","1","35","1","1030","88","57"
"103019","12:42:51","986671127","test","2","prime_positive","30","12","23","1","1732","90","57"
"103019","12:42:51","986671127","test","2","prime_negative","31","6","22","1","612","90","60"
"103019","12:42:51","986671127","test","2","prime_positive","32","10","44","1","472","90","60"
"103019","12:42:51","986671127","test","2","prime_negative","33","9","14","1","419","90","61"
"103019","12:42:51","986671127","test","2","prime_negative","34","2","46","1","903","90","63"
"103019","12:42:51","986671127","test","2","prime_positive","35","9","60","1","766","91","63"
"103019","12:42:51","986671127","test","2","prime_negative","36","5","53","1","895","91","65"
"103019","12:42:51","986671127","test","2","prime_positive","37","6","63","1","460","92","65"
"103019","12:42:51","986671127","test","2","prime_positive","38","3","61","1","505","92","65"
"103019","12:42:51","986671127","test","2","prime_positive","39","8","49","1","512","93","65"
"103019","12:42:51","986671127","test","2","prime_negative","40","8","50","1","911","93","66"
"103019","12:42:51","986671127","test","2","prime_positive","41","2","5","1","2180","93","66"
"103019","12:42:51","986671127","test","2","prime_negative","42","4","12","1","774","93","68"
"103019","12:42:51","986671127","test","2","prime_negative","43","11","4","1","385","93","69"
"103019","12:42:51","986671127","test","2","prime_positive","44","7","40","1","738","94","69"
"103019","12:42:51","986671127","test","2","prime_negative","45","1","58","1","1126","94","70"
"103019","12:42:51","986671127","test","2","prime_negative","46","12","56","1","955","94","71"
"103019","12:42:51","986671127","test","2","prime_positive","47","11","70","1","1049","94","71"
"103019","12:42:51","986671127","test","2","prime_positive","48","4","11","1","1099","94","71"
"103019","12:42:51","986671127","test","2","prime_negative","49","10","36","1","823","94","72"
"103019","12:42:51","986671127","test","2","prime_positive","50","5","48","1","845","95","72"
"103019","12:42:51","986671127","test","2","prime_positive","51","11","51","1","814","95","72"
"103019","12:42:51","986671127","test","2","prime_positive","52","8","16","1","1553","95","72"
"103019","12:42:51","986671127","test","2","prime_positive","53","4","43","1","474","95","72"
"103019","12:42:51","986671127","test","2","prime_negative","54","3","39","1","1536","95","73"
"103019","12:42:51","986671127","test","2","prime_negative","55","7","2","1","837","95","74"
"103019","12:42:51","986671127","test","2","prime_positive","56","2","28","1","679","95","74"
"103019","12:42:51","986671127","test","2","prime_positive","57","6","10","1","277","96","74"
"103019","12:42:51","986671127","test","2","prime_negative","58","9","32","1","679","96","75"
"103019","12:42:51","986671127","test","2","prime_negative","59","1","55","0","1019","96","72"
"103019","12:42:51","986671127","test","2","prime_positive","60","7","62","1","827","96","72"
"103019","12:42:51","986671127","test","2","prime_positive","61","9","47","1","920","96","72"
"103019","12:42:51","986671127","test","2","prime_positive","62","10","57","1","689","96","72"
"103019","12:42:51","986671127","test","2","prime_positive","63","3","52","1","522","96","72"
"103019","12:42:51","986671127","test","2","prime_positive","64","1","65","1","1188","96","72"
"103019","12:42:51","986671127","test","2","prime_positive","65","12","40","1","1115","96","72"
"103019","12:42:51","986671127","test","2","prime_positive","66","11","7","0","924","93","72"
"103019","12:42:51","986671127","test","2","prime_positive","67","4","35","1","709","93","72"
"103019","12:42:51","986671127","test","2","prime_negative","68","11","27","1","1420","93","73"
"103019","12:42:51","986671127","test","2","prime_positive","69","10","38","1","1303","94","73"
"103019","12:42:51","986671127","test","2","prime_negative","70","3","39","0","955","94","71"
"103019","12:42:51","986671127","test","2","prime_positive","71","3","43","1","1018","94","71"
"103019","12:42:51","986671127","test","2","prime_negative","72","10","46","0","1112","94","69"
"103019","12:42:51","986671127","test","2","prime_positive","73","9","53","0","2657","91","69"
"103019","12:43:37","836278210","practice","1","prime_negative_practice","4","0","0","0","13029","0","0"
"103019","12:43:37","836278210","practice","1","prime_negative_practice","5","0","0","0","4601","0","0"
"103019","12:43:37","836278210","practice","1","prime_negative_practice","6","0","0","1","5183","0","0"
"103019","12:43:37","836278210","practice","1","prime_positive_practice","7","0","0","1","2541","0","0"
"103019","12:43:37","836278210","practice","1","prime_positive_practice","8","0","0","1","2885","0","0"
"103019","12:43:37","836278210","practice","1","prime_positive_practice","9","0","0","1","3671","0","0"
"103019","12:43:37","836278210","practice","1","prime_negative_practice","10","0","0","1","2506","0","0"
"103019","12:43:37","836278210","practice","1","prime_positive_practice","11","0","0","1","3676","0","0"
"103019","12:43:37","836278210","practice","1","prime_negative_practice","12","0","0","1","2750","0","0"
"103019","12:43:37","836278210","practice","1","prime_positive_practice","13","0","0","1","2446","0","0"
"103019","12:43:37","836278210","test","2","prime_positive","2","10","57","1","2702","100","0"
"103019","12:43:37","836278210","test","2","prime_positive","3","3","31","0","3624","50","0"
"103019","12:43:37","836278210","test","2","prime_negative","4","12","33","0","2485","50","0"
"103019","12:43:37","836278210","test","2","prime_negative","5","2","58","0","4895","50","0"
"103019","12:43:37","836278210","test","2","prime_negative","6","4","9","1","1337","50","33"
"103019","12:43:37","836278210","test","2","prime_negative","7","1","37","1","1178","50","50"
"103019","12:43:37","836278210","test","2","prime_positive","8","9","69","1","1312","66","50"
"103019","12:43:37","836278210","test","2","prime_positive","9","8","19","1","1137","75","50"
"103019","12:43:37","836278210","test","2","prime_positive","10","11","34","0","1090","60","50"
"103019","12:43:37","836278210","test","2","prime_positive","11","12","39","1","972","66","50"
"103019","12:43:37","836278210","test","2","prime_positive","12","4","27","1","979","71","50"
"103019","12:43:37","836278210","test","2","prime_positive","13","5","32","1","1322","75","50"
"103019","12:43:37","836278210","test","2","prime_positive","14","6","1","0","1011","66","50"
"103019","12:43:37","836278210","test","2","prime_negative","15","9","21","1","1009","66","60"
"103019","12:43:37","836278210","test","2","prime_positive","16","1","48","1","2046","70","60"
"103019","12:43:37","836278210","test","2","prime_negative","17","7","68","0","1354","70","50"
"103019","12:43:37","836278210","test","2","prime_negative","18","6","30","1","890","70","57"
"103019","12:43:37","836278210","test","2","prime_negative","19","9","29","1","1237","70","62"
"103019","12:43:37","836278210","test","2","prime_negative","20","8","40","0","1345","70","55"
"103019","12:43:37","836278210","test","2","prime_positive","21","12","54","1","802","72","55"
"103019","12:43:37","836278210","test","2","prime_positive","22","7","35","0","1624","66","55"
"103019","12:43:37","836278210","test","2","prime_negative","23","3","66","1","837","66","60"
"103019","12:43:37","836278210","test","2","prime_positive","24","9","52","1","906","69","60"
"103019","12:43:37","836278210","test","2","prime_positive","25","10","23","1","875","71","60"
"103019","12:43:37","836278210","test","2","prime_positive","26","4","62","1","1374","73","60"
"103019","12:43:37","836278210","test","2","prime_positive","27","3","12","1","998","75","60"
"103019","12:43:37","836278210","test","2","prime_negative","28","7","50","1","1028","75","63"
"103019","12:43:37","836278210","test","2","prime_positive","29","2","13","1","1233","76","63"
"103019","12:43:37","836278210","test","2","prime_negative","30","11","64","0","813","76","58"
"103019","12:43:37","836278210","test","2","prime_positive","31","8","7","1","907","77","58"
"103019","12:43:37","836278210","test","2","prime_positive","32","11","20","0","1597","73","58"
"103019","12:43:37","836278210","test","2","prime_negative","33","4","10","0","1059","73","53"
"103019","12:43:37","836278210","test","2","prime_negative","34","12","70","0","1295","73","50"
"103019","12:43:37","836278210","test","2","prime_negative","35","1","59","0","1330","73","46"
"103019","12:43:37","836278210","test","2","prime_negative","36","6","25","1","819","73","50"
"103019","12:43:37","836278210","test","2","prime_negative","37","10","72","1","784","73","52"
"103019","12:43:37","836278210","test","2","prime_positive","38","1","42","1","895","75","52"
"103019","12:43:37","836278210","test","2","prime_negative","39","5","61","0","2185","75","50"
"103019","12:43:37","836278210","test","2","prime_positive","40","3","45","0","1496","71","50"
"103019","12:43:37","836278210","test","2","prime_negative","41","2","3","0","1794","71","47"
"103019","12:43:37","836278210","test","2","prime_positive","42","11","56","1","1048","72","47"
"103019","12:43:37","836278210","test","2","prime_positive","43","6","46","1","1260","73","47"
"103019","12:43:37","836278210","test","2","prime_positive","44","12","65","0","1960","70","47"
"103019","12:43:37","836278210","test","2","prime_positive","45","8","24","1","784","72","47"
"103019","12:43:37","836278210","test","2","prime_negative","46","4","43","0","974","72","45"
"103019","12:43:37","836278210","test","2","prime_negative","47","10","44","0","1150","72","42"
"103019","12:43:37","836278210","test","2","prime_positive","48","10","5","1","1854","73","42"
"103019","12:43:37","836278210","test","2","prime_positive","49","4","22","1","890","74","42"
"103019","12:43:37","836278210","test","2","prime_positive","50","2","60","1","1044","75","42"
"103019","12:43:37","836278210","test","2","prime_positive","51","7","49","1","857","75","42"
"103019","12:43:37","836278210","test","2","prime_negative","52","11","4","0","1949","75","40"
"103019","12:43:37","836278210","test","2","prime_negative","53","9","71","0","1141","75","39"
"103019","12:43:37","836278210","test","2","prime_negative","54","12","18","0","1165","75","37"
"103019","12:43:37","836278210","test","2","prime_negative","55","7","63","0","1564","75","36"
"103019","12:43:37","836278210","test","2","prime_positive","56","9","2","1","812","76","36"
"103019","12:43:37","836278210","test","2","prime_positive","57","5","41","0","1385","74","36"
"103019","12:43:37","836278210","test","2","prime_negative","58","1","36","1","848","74","38"
"103019","12:43:37","836278210","test","2","prime_negative","59","6","16","0","1020","74","37"
"103019","12:43:37","836278210","test","2","prime_positive","60","6","67","1","793","75","37"
"103019","12:43:37","836278210","test","2","prime_positive","61","8","47","1","775","75","37"
"103019","12:43:37","836278210","test","2","prime_negative","62","2","6","1","911","75","39"
"103019","12:43:37","836278210","test","2","prime_negative","63","3","53","1","1513","75","41"
"103019","12:43:37","836278210","test","2","prime_positive","64","1","11","1","947","76","41"
"103019","12:43:37","836278210","test","2","prime_negative","65","5","18","0","1003","76","40"
"103019","12:43:37","836278210","test","2","prime_negative","66","8","6","1","681","76","41"
"103019","12:43:37","836278210","test","2","prime_negative","67","8","42","1","748","76","43"
"103019","12:43:37","836278210","test","2","prime_negative","68","3","38","1","732","76","45"
"103019","12:43:37","836278210","test","2","prime_positive","69","5","58","1","1988","77","45"
"103019","12:43:37","836278210","test","2","prime_negative","70","6","64","1","979","77","47"
"103019","12:43:37","836278210","test","2","prime_negative","71","11","61","0","1850","77","45"
"103019","12:43:37","836278210","test","2","prime_positive","72","7","40","1","742","77","45"
"103019","12:43:37","836278210","test","2","prime_negative","73","5","43","1","1767","77","47"
"103019","12:46:17","113583025","practice","1","prime_positive_practice","4","0","0","0","4070","0","0"
"103019","12:46:17","113583025","practice","1","prime_positive_practice","5","0","0","0","1445","0","0"
"103019","12:46:17","113583025","practice","1","prime_negative_practice","6","0","0","0","1375","0","0"
"103019","12:46:17","113583025","practice","1","prime_negative_practice","7","0","0","0","2897","0","0"
"103019","12:46:17","113583025","practice","1","prime_negative_practice","8","0","0","0","1484","0","0"
"103019","12:46:17","113583025","practice","1","prime_positive_practice","9","0","0","1","820","0","0"
"103019","12:46:17","113583025","practice","1","prime_positive_practice","10","0","0","1","725","0","0"
"103019","12:46:17","113583025","practice","1","prime_positive_practice","11","0","0","1","274","0","0"
"103019","12:46:17","113583025","practice","1","prime_negative_practice","12","0","0","0","1424","0","0"
"103019","12:46:17","113583025","practice","1","prime_negative_practice","13","0","0","0","435","0","0"
"103019","12:46:17","113583025","test","2","prime_negative","2","6","67","0","1633","0","0"
"103019","12:46:17","113583025","test","2","prime_positive","3","10","55","1","771","100","0"
"103019","12:46:17","113583025","test","2","prime_positive","4","6","33","1","350","100","0"
"103019","12:46:17","113583025","test","2","prime_negative","5","10","69","0","875","100","0"
"103019","12:46:17","113583025","test","2","prime_negative","6","3","2","0","361","100","0"
"103019","12:46:17","113583025","test","2","prime_negative","7","12","41","0","2380","100","0"
"103019","12:46:17","113583025","test","2","prime_negative","8","2","17","0","299","100","0"
"103019","12:46:17","113583025","test","2","prime_negative","9","1","9","0","255","100","0"
"103019","12:46:17","113583025","test","2","prime_negative","10","9","23","0","254","100","0"
"103019","12:46:17","113583025","test","2","prime_positive","11","1","50","1","405","100","0"
"103019","12:46:17","113583025","test","2","prime_positive","12","12","52","0","653","75","0"
"103019","12:46:17","113583025","test","2","prime_positive","13","8","32","1","1174","80","0"
"103019","12:46:17","113583025","test","2","prime_positive","14","3","64","1","737","83","0"
"103019","12:46:17","113583025","test","2","prime_negative","15","10","8","0","453","83","0"
"103019","12:46:17","113583025","test","2","prime_negative","16","9","4","0","333","83","0"
"103019","12:46:17","113583025","test","2","prime_negative","17","8","53","0","297","83","0"
"103019","12:46:17","113583025","test","2","prime_positive","18","4","72","1","486","85","0"
"103019","12:46:17","113583025","test","2","prime_positive","19","4","60","1","725","87","0"
"103019","12:46:17","113583025","test","2","prime_negative","20","12","21","0","1098","87","0"
"103019","12:46:17","113583025","test","2","prime_positive","21","10","71","1","441","88","0"
"103019","12:46:17","113583025","test","2","prime_positive","22","2","66","1","209","90","0"
"103019","12:46:17","113583025","test","2","prime_positive","23","5","3","1","409","90","0"
"103019","12:46:17","113583025","test","2","prime_negative","24","3","54","0","194","90","0"
"103019","12:46:17","113583025","test","2","prime_negative","25","5","58","0","579","90","0"
"103019","12:46:17","113583025","test","2","prime_negative","26","1","43","0","238","90","0"
"103019","12:46:17","113583025","test","2","prime_negative","27","4","1","0","285","90","0"
"103019","12:46:17","113583025","test","2","prime_positive","28","3","26","1","251","91","0"
"103019","12:46:17","113583025","test","2","prime_negative","29","11","34","0","818","91","0"
"103019","12:46:17","113583025","test","2","prime_positive","30","1","46","1","220","92","0"
"103019","12:46:17","113583025","test","2","prime_positive","31","7","30","1","492","92","0"
"103019","12:46:17","113583025","test","2","prime_positive","32","11","49","1","274","93","0"
"103019","12:46:17","113583025","test","2","prime_negative","33","2","70","0","280","93","0"
"103019","12:46:17","113583025","test","2","prime_positive","34","8","24","1","255","93","0"
"103019","12:46:17","113583025","test","2","prime_positive","35","12","68","1","222","94","0"
"103019","12:46:17","113583025","test","2","prime_positive","36","9","42","1","198","94","0"
"103019","12:46:17","113583025","test","2","prime_positive","37","6","13","1","207","94","0"
"103019","12:46:17","113583025","test","2","prime_positive","38","2","59","1","159","95","0"
"103019","12:46:17","113583025","test","2","prime_negative","39","7","11","0","330","95","0"
"103019","12:46:17","113583025","test","2","prime_negative","40","6","45","0","446","95","0"
"103019","12:46:17","113583025","test","2","prime_negative","41","5","28","0","165","95","0"
"103019","12:46:17","113583025","test","2","prime_negative","42","9","40","0","119","95","0"
"103019","12:46:17","113583025","test","2","prime_positive","43","5","36","1","156","95","0"
"103019","12:46:17","113583025","test","2","prime_negative","44","8","27","0","638","95","0"
"103019","12:46:17","113583025","test","2","prime_negative","45","12","35","0","390","95","0"
"103019","12:46:17","113583025","test","2","prime_positive","46","6","25","1","256","95","0"
"103019","12:46:17","113583025","test","2","prime_positive","47","12","65","1","262","95","0"
"103019","12:46:17","113583025","test","2","prime_negative","48","10","31","0","285","95","0"
"103019","12:46:17","113583025","test","2","prime_positive","49","3","12","1","195","95","0"
"103019","12:46:17","113583025","test","2","prime_positive","50","1","29","1","228","96","0"
"103019","12:46:17","113583025","test","2","prime_positive","51","10","5","0","284","92","0"
"103019","12:46:17","113583025","test","2","prime_positive","52","8","10","1","466","92","0"
"103019","12:46:17","113583025","test","2","prime_negative","53","4","22","0","361","92","0"
"103019","12:46:17","113583025","test","2","prime_positive","54","11","61","1","268","92","0"
"103019","12:46:17","113583025","test","2","prime_negative","55","7","20","0","250","92","0"
"103019","12:46:17","113583025","test","2","prime_positive","56","9","39","1","202","93","0"
"103019","12:46:17","113583025","test","2","prime_positive","57","4","51","1","274","93","0"
"103019","12:46:17","113583025","test","2","prime_negative","58","3","57","0","192","93","0"
"103019","12:46:17","113583025","test","2","prime_negative","59","11","38","0","273","93","0"
"103019","12:46:17","113583025","test","2","prime_negative","60","6","14","0","272","93","0"
"103019","12:46:17","113583025","test","2","prime_negative","61","1","19","0","197","93","0"
"103019","12:46:17","113583025","test","2","prime_positive","62","7","18","1","183","93","0"
"103019","12:46:17","113583025","test","2","prime_negative","63","2","56","1","297","93","3"
"103019","12:46:17","113583025","test","2","prime_negative","64","12","40","0","270","93","3"
"103019","12:46:17","113583025","test","2","prime_positive","65","8","45","1","315","93","3"
"103019","12:46:17","113583025","test","2","prime_positive","66","3","64","1","200","93","3"
"103019","12:46:17","113583025","test","2","prime_positive","67","5","18","1","201","94","3"
"103019","12:46:17","113583025","test","2","prime_negative","68","1","6","0","138","94","3"
"103019","12:46:17","113583025","test","2","prime_negative","69","9","30","0","333","94","2"
"103019","12:46:17","113583025","test","2","prime_negative","70","6","22","0","298","94","2"
"103019","12:46:17","113583025","test","2","prime_positive","71","11","27","1","991","94","2"
"103019","12:46:17","113583025","test","2","prime_negative","72","7","25","0","185","94","2"
"103019","12:46:17","113583025","test","2","prime_positive","73","4","23","1","235","94","2"
"103019","12:45:47","759213201","practice","1","prime_positive_practice","4","0","0","1","2040","0","0"
"103019","12:45:47","759213201","practice","1","prime_positive_practice","5","0","0","1","674","0","0"
"103019","12:45:47","759213201","practice","1","prime_negative_practice","6","0","0","0","852","0","0"
"103019","12:45:47","759213201","practice","1","prime_negative_practice","7","0","0","0","701","0","0"
"103019","12:45:47","759213201","practice","1","prime_positive_practice","8","0","0","1","638","0","0"
"103019","12:45:47","759213201","practice","1","prime_positive_practice","9","0","0","1","584","0","0"
"103019","12:45:47","759213201","practice","1","prime_positive_practice","10","0","0","1","430","0","0"
"103019","12:45:47","759213201","practice","1","prime_negative_practice","11","0","0","0","746","0","0"
"103019","12:45:47","759213201","practice","1","prime_negative_practice","12","0","0","0","505","0","0"
"103019","12:45:47","759213201","practice","1","prime_negative_practice","13","0","0","0","625","0","0"
"103019","12:45:47","759213201","test","2","prime_negative","2","6","36","1","876","0","100"
"103019","12:45:47","759213201","test","2","prime_negative","3","10","57","0","2046","0","50"
"103019","12:45:47","759213201","test","2","prime_positive","4","6","21","1","1167","100","50"
"103019","12:45:47","759213201","test","2","prime_positive","5","9","60","1","1085","100","50"
"103019","12:45:47","759213201","test","2","prime_positive","6","3","11","0","669","66","50"
"103019","12:45:47","759213201","test","2","prime_positive","7","12","9","0","847","50","50"
"103019","12:45:47","759213201","test","2","prime_negative","8","1","34","0","593","50","33"
"103019","12:45:47","759213201","test","2","prime_negative","9","8","43","0","430","50","25"
"103019","12:45:47","759213201","test","2","prime_negative","10","3","63","0","394","50","20"
"103019","12:45:47","759213201","test","2","prime_negative","11","7","32","0","487","50","16"
"103019","12:45:47","759213201","test","2","prime_positive","12","4","10","1","1520","60","16"
"103019","12:45:47","759213201","test","2","prime_negative","13","2","14","0","719","60","14"
"103019","12:45:47","759213201","test","2","prime_negative","14","5","23","0","374","60","12"
"103019","12:45:47","759213201","test","2","prime_negative","15","4","67","0","869","60","11"
"103019","12:45:47","759213201","test","2","prime_positive","16","11","47","1","479","66","11"
"103019","12:45:47","759213201","test","2","prime_positive","17","8","13","1","648","71","11"
"103019","12:45:47","759213201","test","2","prime_negative","18","6","46","0","554","71","10"
"103019","12:45:47","759213201","test","2","prime_positive","19","9","55","1","561","75","10"
"103019","12:45:47","759213201","test","2","prime_negative","20","2","65","0","567","75","9"
"103019","12:45:47","759213201","test","2","prime_negative","21","12","25","0","517","75","8"
"103019","12:45:47","759213201","test","2","prime_negative","22","3","17","0","358","75","7"
"103019","12:45:47","759213201","test","2","prime_negative","23","11","69","0","709","75","7"
"103019","12:45:47","759213201","test","2","prime_positive","24","6","15","1","293","77","7"
"103019","12:45:47","759213201","test","2","prime_positive","25","8","18","1","479","80","7"
"103019","12:45:47","759213201","test","2","prime_positive","26","10","20","1","816","81","7"
"103019","12:45:47","759213201","test","2","prime_positive","27","1","66","1","444","83","7"
"103019","12:45:47","759213201","test","2","prime_negative","28","10","8","0","367","83","6"
"103019","12:45:47","759213201","test","2","prime_negative","29","8","3","0","566","83","6"
"103019","12:45:47","759213201","test","2","prime_negative","30","1","44","0","420","83","5"
"103019","12:45:47","759213201","test","2","prime_negative","31","9","38","0","1232","83","5"
"103019","12:45:47","759213201","test","2","prime_positive","32","4","50","1","356","84","5"
"103019","12:45:47","759213201","test","2","prime_negative","33","7","49","0","523","84","5"
"103019","12:45:47","759213201","test","2","prime_positive","34","11","56","1","907","85","5"
"103019","12:45:47","759213201","test","2","prime_negative","35","7","2","0","1444","85","5"
"103019","12:45:47","759213201","test","2","prime_positive","36","3","42","1","910","86","5"
"103019","12:45:47","759213201","test","2","prime_positive","37","12","19","0","1350","81","5"
"103019","12:45:47","759213201","test","2","prime_negative","38","10","58","0","461","81","4"
"103019","12:45:47","759213201","test","2","prime_negative","39","2","35","0","375","81","4"
"103019","12:45:47","759213201","test","2","prime_negative","40","9","61","0","718","81","4"
"103019","12:45:47","759213201","test","2","prime_positive","41","5","48","1","2102","82","4"
"103019","12:45:47","759213201","test","2","prime_positive","42","7","62","1","365","83","4"
"103019","12:45:47","759213201","test","2","prime_negative","43","11","6","0","1844","83","4"
"103019","12:45:47","759213201","test","2","prime_positive","44","2","71","1","565","84","4"
"103019","12:45:47","759213201","test","2","prime_positive","45","12","45","0","1844","80","4"
"103019","12:45:47","759213201","test","2","prime_positive","46","11","30","1","391","80","4"
"103019","12:45:47","759213201","test","2","prime_positive","47","6","5","1","420","81","4"
"103019","12:45:47","759213201","test","2","prime_positive","48","5","24","1","321","82","4"
"103019","12:45:47","759213201","test","2","prime_positive","49","8","54","1","377","83","4"
"103019","12:45:47","759213201","test","2","prime_negative","50","6","1","0","368","83","4"
"103019","12:45:47","759213201","test","2","prime_positive","51","10","22","1","438","84","4"
"103019","12:45:47","759213201","test","2","prime_positive","52","7","51","1","290","84","4"
"103019","12:45:47","759213201","test","2","prime_negative","53","1","59","0","428","84","3"
"103019","12:45:47","759213201","test","2","prime_positive","54","3","4","1","1735","85","3"
"103019","12:45:47","759213201","test","2","prime_positive","55","9","12","1","446","85","3"
"103019","12:45:47","759213201","test","2","prime_negative","56","4","70","0","1193","85","3"
"103019","12:45:47","759213201","test","2","prime_negative","57","12","16","0","382","85","3"
"103019","12:45:47","759213201","test","2","prime_positive","58","4","41","1","308","86","3"
"103019","12:45:47","759213201","test","2","prime_negative","59","3","72","0","717","86","3"
"103019","12:45:47","759213201","test","2","prime_negative","60","8","27","0","484","86","3"
"103019","12:45:47","759213201","test","2","prime_negative","61","5","53","0","342","86","3"
"103019","12:45:47","759213201","test","2","prime_negative","62","6","39","0","365","86","3"
"103019","12:45:47","759213201","test","2","prime_positive","63","2","37","1","371","86","3"
"103019","12:45:47","759213201","test","2","prime_positive","64","1","17","1","1386","87","3"
"103019","12:45:47","759213201","test","2","prime_negative","65","9","10","0","519","87","3"
"103019","12:45:47","759213201","test","2","prime_positive","66","7","60","1","327","87","3"
"103019","12:45:47","759213201","test","2","prime_positive","67","11","62","1","320","87","3"
"103019","12:45:47","759213201","test","2","prime_negative","68","3","11","0","432","87","2"
"103019","12:45:47","759213201","test","2","prime_positive","69","12","56","0","1188","85","2"
"103019","12:45:47","759213201","test","2","prime_positive","70","3","55","1","857","85","2"
"103019","12:45:47","759213201","test","2","prime_negative","71","4","22","0","627","85","2"
"103019","12:45:47","759213201","test","2","prime_positive","72","9","51","1","2424","86","2"
"103019","12:45:47","759213201","test","2","prime_negative","73","12","65","0","331","86","2"
"103019","12:44:49","874754605","practice","1","prime_positive_practice","4","0","0","1","6778","0","0"
"103019","12:44:49","874754605","practice","1","prime_positive_practice","5","0","0","1","8194","0","0"
"103019","12:44:49","874754605","practice","1","prime_positive_practice","6","0","0","0","1564","0","0"
"103019","12:44:49","874754605","practice","1","prime_negative_practice","7","0","0","0","1278","0","0"
"103019","12:44:49","874754605","practice","1","prime_positive_practice","8","0","0","0","2486","0","0"
"103019","12:44:49","874754605","practice","1","prime_negative_practice","9","0","0","0","835","0","0"
"103019","12:44:49","874754605","practice","1","prime_negative_practice","10","0","0","0","1703","0","0"
"103019","12:44:49","874754605","practice","1","prime_positive_practice","11","0","0","0","1334","0","0"
"103019","12:44:49","874754605","practice","1","prime_negative_practice","12","0","0","0","2081","0","0"
"103019","12:44:49","874754605","practice","1","prime_negative_practice","13","0","0","1","1426","0","0"
"103019","12:44:49","874754605","test","2","prime_positive","2","3","1","1","2097","100","0"
"103019","12:44:49","874754605","test","2","prime_positive","3","7","33","0","3024","50","0"
"103019","12:44:49","874754605","test","2","prime_negative","4","6","23","0","1164","50","0"
"103019","12:44:49","874754605","test","2","prime_positive","5","1","57","1","984","66","0"
"103019","12:44:49","874754605","test","2","prime_negative","6","5","49","1","1391","66","50"
"103019","12:44:49","874754605","test","2","prime_positive","7","9","5","1","797","75","50"
"103019","12:44:49","874754605","test","2","prime_negative","8","7","42","1","749","75","66"
"103019","12:44:49","874754605","test","2","prime_positive","9","2","17","0","2079","60","66"
"103019","12:44:49","874754605","test","2","prime_negative","10","12","65","1","697","60","75"
"103019","12:44:49","874754605","test","2","prime_positive","11","12","43","1","765","66","75"
"103019","12:44:49","874754605","test","2","prime_negative","12","8","28","1","1511","66","80"
"103019","12:44:49","874754605","test","2","prime_negative","13","3","39","0","867","66","66"
"103019","12:44:49","874754605","test","2","prime_positive","14","5","6","1","2522","71","66"
"103019","12:44:49","874754605","test","2","prime_positive","15","8","12","1","648","75","66"
"103019","12:44:49","874754605","test","2","prime_positive","16","5","44","1","652","77","66"
"103019","12:44:49","874754605","test","2","prime_negative","17","10","29","1","2474","77","71"
"103019","12:44:49","874754605","test","2","prime_positive","18","9","14","1","688","80","71"
"103019","12:44:49","874754605","test","2","prime_positive","19","3","68","1","1416","81","71"
"103019","12:44:49","874754605","test","2","prime_positive","20","12","58","1","1176","83","71"
"103019","12:44:49","874754605","test","2","prime_negative","21","10","40","1","1224","83","75"
"103019","12:44:49","874754605","test","2","prime_negative","22","12","70","0","1377","83","66"
"103019","12:44:49","874754605","test","2","prime_negative","23","11","11","0","2790","83","60"
"103019","12:44:49","874754605","test","2","prime_positive","24","1","19","1","729","84","60"
"103019","12:44:49","874754605","test","2","prime_positive","25","10","9","0","1244","78","60"
"103019","12:44:49","874754605","test","2","prime_positive","26","2","54","1","892","80","60"
"103019","12:44:49","874754605","test","2","prime_positive","27","7","32","1","880","81","60"
"103019","12:44:49","874754605","test","2","prime_negative","28","3","48","1","733","81","63"
"103019","12:44:49","874754605","test","2","prime_negative","29","8","51","1","756","81","66"
"103019","12:44:49","874754605","test","2","prime_negative","30","6","31","1","749","81","69"
"103019","12:44:49","874754605","test","2","prime_positive","31","6","53","1","1280","82","69"
"103019","12:44:49","874754605","test","2","prime_negative","32","5","55","1","3025","82","71"
"103019","12:44:49","874754605","test","2","prime_negative","33","7","18","1","916","82","73"
"103019","12:44:49","874754605","test","2","prime_negative","34","2","67","0","2572","82","68"
"103019","12:44:49","874754605","test","2","prime_negative","35","9","2","0","3475","82","64"
"103019","12:44:49","874754605","test","2","prime_positive","36","11","22","0","1464","77","64"
"103019","12:44:49","874754605","test","2","prime_negative","37","4","24","0","1863","77","61"
"103019","12:44:49","874754605","test","2","prime_negative","38","1","61","1","2836","77","63"
"103019","12:44:49","874754605","test","2","prime_positive","39","4","16","1","3316","78","63"
"103019","12:44:49","874754605","test","2","prime_positive","40","9","36","0","1000","75","63"
"103019","12:44:49","874754605","test","2","prime_positive","41","3","56","1","1290","76","63"
"103019","12:44:49","874754605","test","2","prime_positive","42","7","52","1","2656","77","63"
"103019","12:44:49","874754605","test","2","prime_positive","43","11","15","1","594","78","63"
"103019","12:44:49","874754605","test","2","prime_positive","44","5","26","0","7029","75","63"
"103019","12:44:49","874754605","test","2","prime_positive","45","8","60","0","1605","72","63"
"103019","12:44:49","874754605","test","2","prime_positive","46","12","7","1","723","73","63"
"103019","12:44:49","874754605","test","2","prime_positive","47","6","45","1","867","74","63"
"103019","12:44:49","874754605","test","2","prime_negative","48","1","8","1","1313","74","65"
"103019","12:44:49","874754605","test","2","prime_positive","49","4","21","1","656","75","65"
"103019","12:44:49","874754605","test","2","prime_positive","50","1","64","1","629","75","65"
"103019","12:44:49","874754605","test","2","prime_positive","51","10","30","1","712","76","65"
"103019","12:44:49","874754605","test","2","prime_negative","52","3","41","1","888","76","66"
"103019","12:44:49","874754605","test","2","prime_negative","53","9","71","1","762","76","68"
"103019","12:44:49","874754605","test","2","prime_positive","54","2","46","1","1647","77","68"
"103019","12:44:49","874754605","test","2","prime_negative","55","11","50","1","665","77","69"
"103019","12:44:49","874754605","test","2","prime_positive","56","1","27","0","683","75","69"
"103019","12:44:49","874754605","test","2","prime_negative","57","2","13","0","749","75","66"
"103019","12:44:49","874754605","test","2","prime_positive","58","6","47","1","1781","75","66"
"103019","12:44:49","874754605","test","2","prime_negative","59","7","10","1","764","75","68"
"103019","12:44:49","874754605","test","2","prime_negative","60","4","66","1","2088","75","69"
"103019","12:44:49","874754605","test","2","prime_negative","61","5","72","0","1024","75","66"
"103019","12:44:49","874754605","test","2","prime_negative","62","6","37","0","2246","75","64"
"103019","12:44:49","874754605","test","2","prime_negative","63","12","69","1","758","75","65"
"103019","12:44:49","874754605","test","2","prime_negative","64","8","41","1","998","75","66"
"103019","12:44:49","874754605","test","2","prime_negative","65","10","48","1","625","75","67"
"103019","12:44:49","874754605","test","2","prime_positive","66","3","54","0","854","73","67"
"103019","12:44:49","874754605","test","2","prime_negative","67","11","29","0","1571","73","65"
"103019","12:44:49","874754605","test","2","prime_negative","68","4","10","0","1046","73","63"
"103019","12:44:49","874754605","test","2","prime_negative","69","8","47","1","1669","73","64"
"103019","12:44:49","874754605","test","2","prime_positive","70","10","40","0","1031","71","64"
"103019","12:44:49","874754605","test","2","prime_negative","71","9","39","0","756","71","62"
"103019","12:44:49","874754605","test","2","prime_positive","72","11","23","0","836","69","62"
"103019","12:44:49","874754605","test","2","prime_negative","73","6","26","1","668","69","63"
"103019","12:45:34","733722337","practice","1","prime_positive_practice","4","0","0","0","2008","0","0"
"103019","12:45:34","733722337","practice","1","prime_negative_practice","5","0","0","0","2765","0","0"
"103019","12:45:34","733722337","practice","1","prime_positive_practice","6","0","0","1","1150","0","0"
"103019","12:45:34","733722337","practice","1","prime_positive_practice","7","0","0","0","1468","0","0"
"103019","12:45:34","733722337","practice","1","prime_negative_practice","8","0","0","0","2425","0","0"
"103019","12:45:34","733722337","practice","1","prime_positive_practice","9","0","0","1","3360","0","0"
"103019","12:45:34","733722337","practice","1","prime_negative_practice","10","0","0","1","1442","0","0"
"103019","12:45:34","733722337","practice","1","prime_positive_practice","11","0","0","0","2586","0","0"
"103019","12:45:34","733722337","practice","1","prime_negative_practice","12","0","0","1","1601","0","0"
"103019","12:45:34","733722337","practice","1","prime_negative_practice","13","0","0","1","1939","0","0"
"103019","12:45:34","733722337","test","2","prime_negative","2","7","36","1","1571","0","100"
"103019","12:45:34","733722337","test","2","prime_negative","3","1","22","1","1011","0","100"
"103019","12:45:34","733722337","test","2","prime_positive","4","5","42","1","1412","100","100"
"103019","12:45:34","733722337","test","2","prime_positive","5","2","46","1","959","100","100"
"103019","12:45:34","733722337","test","2","prime_positive","6","7","38","1","1062","100","100"
"103019","12:45:34","733722337","test","2","prime_positive","7","9","29","1","1616","100","100"
"103019","12:45:34","733722337","test","2","prime_positive","8","8","60","0","1538","80","100"
"103019","12:45:34","733722337","test","2","prime_negative","9","10","50","0","899","80","66"
"103019","12:45:34","733722337","test","2","prime_positive","10","6","61","0","762","66","66"
"103019","12:45:34","733722337","test","2","prime_positive","11","11","54","1","1869","71","66"
"103019","12:45:34","733722337","test","2","prime_positive","12","7","16","1","746","75","66"
"103019","12:45:34","733722337","test","2","prime_positive","13","1","37","1","1019","77","66"
"103019","12:45:34","733722337","test","2","prime_negative","14","5","52","0","903","77","50"
"103019","12:45:34","733722337","test","2","prime_positive","15","4","6","0","1523","70","50"
"103019","12:45:34","733722337","test","2","prime_positive","16","6","69","1","1347","72","50"
"103019","12:45:34","733722337","test","2","prime_positive","17","8","45","1","1291","75","50"
"103019","12:45:34","733722337","test","2","prime_positive","18","2","7","1","2184","76","50"
"103019","12:45:34","733722337","test","2","prime_positive","19","10","71","0","806","71","50"
"103019","12:45:34","733722337","test","2","prime_positive","20","12","26","0","851","66","50"
"103019","12:45:34","733722337","test","2","prime_negative","21","9","21","0","1118","66","40"
"103019","12:45:34","733722337","test","2","prime_positive","22","5","9","1","738","68","40"
"103019","12:45:34","733722337","test","2","prime_positive","23","3","53","0","1075","64","40"
"103019","12:45:34","733722337","test","2","prime_negative","24","2","67","0","1754","64","33"
"103019","12:45:34","733722337","test","2","prime_negative","25","12","51","0","1211","64","28"
"103019","12:45:34","733722337","test","2","prime_positive","26","11","19","0","1082","61","28"
"103019","12:45:34","733722337","test","2","prime_positive","27","9","2","1","606","63","28"
"103019","12:45:34","733722337","test","2","prime_negative","28","12","68","1","855","63","37"
"103019","12:45:34","733722337","test","2","prime_negative","29","1","25","1","924","63","44"
"103019","12:45:34","733722337","test","2","prime_negative","30","10","41","0","666","63","40"
"103019","12:45:34","733722337","test","2","prime_positive","31","9","72","0","1784","60","40"
"103019","12:45:34","733722337","test","2","prime_positive","32","8","57","1","805","61","40"
"103019","12:45:34","733722337","test","2","prime_positive","33","10","12","1","825","63","40"
"103019","12:45:34","733722337","test","2","prime_negative","34","5","44","0","1405","63","36"
"103019","12:45:34","733722337","test","2","prime_positive","35","11","20","1","1128","65","36"
"103019","12:45:34","733722337","test","2","prime_negative","36","6","33","1","945","65","41"
"103019","12:45:34","733722337","test","2","prime_positive","37","3","10","0","899","62","41"
"103019","12:45:34","733722337","test","2","prime_positive","38","2","34","1","823","64","41"
"103019","12:45:34","733722337","test","2","prime_negative","39","11","11","1","943","64","46"
"103019","12:45:34","733722337","test","2","prime_positive","40","4","13","1","1007","65","46"
"103019","12:45:34","733722337","test","2","prime_negative","41","9","5","1","767","65","50"
"103019","12:45:34","733722337","test","2","prime_negative","42","8","64","0","782","65","46"
"103019","12:45:34","733722337","test","2","prime_negative","43","2","3","1","862","65","50"
"103019","12:45:34","733722337","test","2","prime_negative","44","3","32","1","1150","65","52"
"103019","12:45:34","733722337","test","2","prime_negative","45","7","58","1","1559","65","55"
"103019","12:45:34","733722337","test","2","prime_negative","46","4","4","0","631","65","52"
"103019","12:45:34","733722337","test","2","prime_negative","47","8","39","1","685","65","55"
"103019","12:45:34","733722337","test","2","prime_negative","48","3","24","1","911","65","57"
"103019","12:45:34","733722337","test","2","prime_positive","49","6","30","1","1121","66","57"
"103019","12:45:34","733722337","test","2","prime_negative","50","11","18","0","1290","66","54"
"103019","12:45:34","733722337","test","2","prime_positive","51","12","62","0","1373","64","54"
"103019","12:45:34","733722337","test","2","prime_negative","52","9","63","0","945","64","52"
"103019","12:45:34","733722337","test","2","prime_negative","53","6","59","0","875","64","50"
"103019","12:45:34","733722337","test","2","prime_negative","54","2","40","0","804","64","48"
"103019","12:45:34","733722337","test","2","prime_positive","55","1","65","0","812","62","48"
"103019","12:45:34","733722337","test","2","prime_negative","56","12","55","0","724","62","46"
"103019","12:45:34","733722337","test","2","prime_positive","57","7","47","0","745","60","46"
"103019","12:45:34","733722337","test","2","prime_negative","58","4","23","1","526","60","48"
"103019","12:45:34","733722337","test","2","prime_positive","59","5","27","1","735","61","48"
"103019","12:45:34","733722337","test","2","prime_negative","60","1","56","0","908","61","46"
"103019","12:45:34","733722337","test","2","prime_negative","61","7","31","0","648","61","44"
"103019","12:45:34","733722337","test","2","prime_positive","62","6","35","1","837","62","44"
"103019","12:45:34","733722337","test","2","prime_negative","63","5","28","0","1012","62","43"
"103019","12:45:34","733722337","test","2","prime_negative","64","10","66","0","1796","62","41"
"103019","12:45:34","733722337","test","2","prime_negative","65","9","7","1","645","62","43"
"103019","12:45:34","733722337","test","2","prime_positive","66","7","23","1","459","63","43"
"103019","12:45:34","733722337","test","2","prime_negative","67","2","39","1","541","63","45"
"103019","12:45:34","733722337","test","2","prime_positive","68","12","20","1","1520","64","45"
"103019","12:45:34","733722337","test","2","prime_negative","69","4","1","0","1037","64","44"
"103019","12:45:34","733722337","test","2","prime_negative","70","8","9","1","634","64","45"
"103019","12:45:34","733722337","test","2","prime_negative","71","6","31","0","951","64","44"
"103019","12:45:34","733722337","test","2","prime_positive","72","8","60","1","1126","65","44"
"103019","12:45:34","733722337","test","2","prime_positive","73","5","71","0","758","63","44"
"103019","12:47:44","95937785","practice","1","prime_positive_practice","4","0","0","1","3630","0","0"
"103019","12:47:44","95937785","practice","1","prime_negative_practice","5","0","0","1","2177","0","0"
"103019","12:47:44","95937785","practice","1","prime_negative_practice","6","0","0","0","1777","0","0"
"103019","12:47:44","95937785","practice","1","prime_positive_practice","7","0","0","1","407","0","0"
"103019","12:47:44","95937785","practice","1","prime_negative_practice","8","0","0","1","453","0","0"
"103019","12:47:44","95937785","practice","1","prime_positive_practice","9","0","0","0","656","0","0"
"103019","12:47:44","95937785","practice","1","prime_positive_practice","10","0","0","1","351","0","0"
"103019","12:47:44","95937785","practice","1","prime_negative_practice","11","0","0","1","1174","0","0"
"103019","12:47:44","95937785","practice","1","prime_negative_practice","12","0","0","0","1481","0","0"
"103019","12:47:44","95937785","practice","1","prime_positive_practice","13","0","0","1","998","0","0"
"103019","12:47:44","95937785","test","2","prime_positive","2","9","22","0","1543","0","0"
"103019","12:47:44","95937785","test","2","prime_positive","3","8","24","1","1106","50","0"
"103019","12:47:44","95937785","test","2","prime_positive","4","5","33","0","400","33","0"
"103019","12:47:44","95937785","test","2","prime_negative","5","12","13","0","580","33","0"
"103019","12:47:44","95937785","test","2","prime_positive","6","10","12","0","784","25","0"
"103019","12:47:44","95937785","test","2","prime_negative","7","3","68","1","576","25","50"
"103019","12:47:44","95937785","test","2","prime_positive","8","1","2","0","467","20","50"
"103019","12:47:44","95937785","test","2","prime_positive","9","3","50","0","8513","16","50"
"103019","12:47:44","95937785","test","2","prime_negative","10","2","54","0","647","16","33"
"103019","12:47:44","95937785","test","2","prime_positive","11","12","72","1","767","28","33"
"103019","12:47:44","95937785","test","2","prime_positive","12","7","23","1","393","37","33"
"103019","12:47:44","95937785","test","2","prime_positive","13","4","64","1","368","44","33"
"103019","12:47:44","95937785","test","2","prime_negative","14","8","32","1","224","44","50"
"103019","12:47:44","95937785","test","2","prime_negative","15","9","65","0","281","44","40"
"103019","12:47:44","95937785","test","2","prime_positive","16","11","27","1","238","50","40"
"103019","12:47:44","95937785","test","2","prime_positive","17","5","1","1","395","54","40"
"103019","12:47:44","95937785","test","2","prime_positive","18","10","41","0","415","50","40"
"103019","12:47:44","95937785","test","2","prime_negative","19","11","44","0","832","50","33"
"103019","12:47:44","95937785","test","2","prime_negative","20","6","31","1","390","50","42"
"103019","12:47:44","95937785","test","2","prime_positive","21","6","55","1","756","53","42"
"103019","12:47:44","95937785","test","2","prime_positive","22","12","63","0","146","50","42"
"103019","12:47:44","95937785","test","2","prime_positive","23","1","6","1","146","53","42"
"103019","12:47:44","95937785","test","2","prime_negative","24","2","36","1","26","53","50"
"103019","12:47:44","95937785","test","2","prime_positive","25","2","3","0","14","50","50"
"103019","12:47:44","95937785","test","2","prime_positive","26","9","60","1","1680","52","50"
"103019","12:47:44","95937785","test","2","prime_negative","27","3","19","1","202","52","55"
"103019","12:47:44","95937785","test","2","prime_positive","28","3","45","1","491","55","55"
"103019","12:47:44","95937785","test","2","prime_negative","29","10","34","0","481","55","50"
"103019","12:47:44","95937785","test","2","prime_positive","30","8","56","1","380","57","50"
"103019","12:47:44","95937785","test","2","prime_positive","31","9","29","1","325","60","50"
"103019","12:47:44","95937785","test","2","prime_negative","32","8","51","0","282","60","45"
"103019","12:47:44","95937785","test","2","prime_negative","33","11","62","1","219","60","50"
"103019","12:47:44","95937785","test","2","prime_positive","34","6","66","1","182","61","50"
"103019","12:47:44","95937785","test","2","prime_positive","35","12","35","1","379","63","50"
"103019","12:47:44","95937785","test","2","prime_positive","36","8","5","1","556","65","50"
"103019","12:47:44","95937785","test","2","prime_negative","37","4","57","0","376","65","46"
"103019","12:47:44","95937785","test","2","prime_negative","38","12","20","1","203","65","50"
"103019","12:47:44","95937785","test","2","prime_negative","39","7","17","1","373","65","53"
