"date","time","subject","blockcode","blocknum","trialcode","trialnum","values.primestim","values.targetstim","correct","latency","trial.prime_positive.totalpercentcorrect","trial.prime_negative.totalpercentcorrect"
"071218","11:55:00","261248365","practice","1","prime_positive_practice","5","0","0","1","2561","0","0"
"071218","11:55:00","261248365","practice","1","intention_check_practice","6","0","0","0","2500","0","0"
"071218","11:55:00","261248365","practice","1","prime_positive_practice","7","0","0","0","1076","0","0"
"071218","11:55:00","261248365","practice","1","intention_check_practice","8","0","0","0","2500","0","0"
"071218","11:55:00","261248365","practice","1","prime_negative_practice","9","0","0","1","1055","0","0"
"071218","11:55:00","261248365","practice","1","intention_check_practice","10","0","0","0","2500","0","0"
"071218","11:55:00","261248365","practice","1","prime_positive_practice","11","0","0","1","467","0","0"
"071218","11:55:00","261248365","practice","1","intention_check_practice","12","0","0","0","2500","0","0"
"071218","11:55:00","261248365","practice","1","prime_negative_practice","13","0","0","1","871","0","0"
"071218","11:55:00","261248365","practice","1","intention_check_practice","14","0","0","0","2500","0","0"
"071218","11:55:00","261248365","practice","1","prime_positive_practice","15","0","0","0","743","0","0"
"071218","11:55:00","261248365","practice","1","intention_check_practice","16","0","0","0","2500","0","0"
"071218","11:55:00","261248365","practice","1","prime_negative_practice","17","0","0","0","168","0","0"
"071218","11:55:00","261248365","practice","1","intention_check_practice","18","0","0","0","2500","0","0"
"071218","11:55:00","261248365","practice","1","prime_negative_practice","19","0","0","1","287","0","0"
"071218","11:55:00","261248365","practice","1","intention_check_practice","20","0","0","0","2500","0","0"
"071218","11:55:00","261248365","practice","1","prime_negative_practice","21","0","0","0","651","0","0"
"071218","11:55:00","261248365","practice","1","intention_check_practice","22","0","0","0","2500","0","0"
"071218","11:55:00","261248365","practice","1","prime_positive_practice","23","0","0","1","871","0","0"
"071218","11:55:00","261248365","practice","1","intention_check_practice","24","0","0","0","2500","0","0"
"071218","11:55:00","261248365","test","2","prime_positive","2","12","106","1","619","100","0"
"071218","11:55:00","261248365","test","2","intention_check","3","12","106","0","2500","100","0"
"071218","11:55:00","261248365","test","2","prime_negative","4","8","156","0","105","100","0"
"071218","11:55:00","261248365","test","2","intention_check","5","8","156","0","2500","100","0"
"071218","11:55:00","261248365","test","2","prime_negative","6","9","199","1","548","100","50"
"071218","11:55:00","261248365","test","2","intention_check","7","9","199","0","2500","100","50"
"071218","11:55:00","261248365","test","2","prime_negative","8","4","40","1","645","100","66"
"071218","11:55:00","261248365","test","2","intention_check","9","4","40","0","2500","100","66"
"071218","11:55:00","261248365","test","2","prime_positive","10","4","81","0","381","50","66"
"071218","11:55:00","261248365","test","2","intention_check","11","4","81","0","2500","50","66"
"071218","11:55:00","261248365","test","2","prime_negative","12","6","89","0","78","50","50"
"071218","11:55:00","261248365","test","2","intention_check","13","6","89","0","2500","50","50"
"071218","11:55:00","261248365","test","2","prime_positive","14","2","29","1","66","66","50"
"071218","11:55:00","261248365","test","2","intention_check","15","2","29","0","2500","66","50"
"071218","11:55:00","261248365","test","2","prime_positive","16","10","82","1","295","75","50"
"071218","11:55:00","261248365","test","2","intention_check","17","10","82","0","2500","75","50"
"071218","11:55:00","261248365","test","2","prime_negative","18","7","134","0","302","75","40"
"071218","11:55:00","261248365","test","2","intention_check","19","7","134","0","2500","75","40"
"071218","11:55:00","261248365","test","2","prime_positive","20","1","141","0","362","60","40"
"071218","11:55:00","261248365","test","2","intention_check","21","1","141","0","2500","60","40"
"071218","11:55:00","261248365","test","2","prime_negative","22","5","187","0","145","60","33"
"071218","11:55:00","261248365","test","2","intention_check","23","5","187","0","2500","60","33"
"071218","11:55:00","261248365","test","2","prime_positive","24","9","44","1","787","66","33"
"071218","11:55:00","261248365","test","2","intention_check","25","9","44","0","2500","66","33"
"071218","11:55:00","261248365","test","2","prime_positive","26","11","192","0","79","57","33"
"071218","11:55:00","261248365","test","2","intention_check","27","11","192","0","2500","57","33"
"071218","11:55:00","261248365","test","2","prime_positive","28","5","161","0","74","50","33"
"071218","11:55:00","261248365","test","2","intention_check","29","5","161","0","2500","50","33"
"071218","11:55:00","261248365","test","2","prime_negative","30","12","157","1","7","50","42"
"071218","11:55:00","261248365","test","2","intention_check","31","12","157","0","2500","50","42"
"071218","11:55:00","261248365","test","2","prime_negative","32","11","70","1","146","50","50"
"071218","11:55:00","261248365","test","2","intention_check","33","11","70","0","2500","50","50"
"071218","11:55:00","261248365","test","2","prime_positive","34","3","188","1","8291","55","50"
"071218","11:55:00","261248365","test","2","intention_check","35","3","188","0","2500","55","50"
"071218","11:55:00","261248365","test","2","prime_negative","36","4","34","0","742","55","44"
"071218","11:55:00","261248365","test","2","intention_check","37","4","34","0","2500","55","44"
"071218","11:55:00","261248365","test","2","prime_negative","38","12","41","1","310","55","50"
"071218","11:55:00","261248365","test","2","intention_check","39","12","41","0","2500","55","50"
"071218","11:55:00","261248365","test","2","prime_positive","40","7","128","1","378","60","50"
"071218","11:55:00","261248365","test","2","intention_check","41","7","128","0","2500","60","50"
"071218","11:55:00","261248365","test","2","prime_positive","42","12","53","0","146","54","50"
"071218","11:55:00","261248365","test","2","intention_check","43","12","53","0","2500","54","50"
"071218","11:55:00","261248365","test","2","prime_negative","44","3","124","0","536","54","45"
"071218","11:55:00","261248365","test","2","intention_check","45","3","124","0","2500","54","45"
"071218","11:55:00","261248365","test","2","prime_positive","46","8","76","1","209","58","45"
"071218","11:55:00","261248365","test","2","intention_check","47","8","76","0","2500","58","45"
"071218","11:55:00","261248365","test","2","prime_positive","48","9","62","1","169","61","45"
"071218","11:55:00","261248365","test","2","intention_check","49","9","62","0","2500","61","45"
"071218","11:55:00","261248365","test","2","prime_negative","50","10","142","0","33","61","41"
"071218","11:55:00","261248365","test","2","intention_check","51","10","142","0","2500","61","41"
"071218","11:55:00","261248365","test","2","prime_negative","52","5","117","1","235","61","46"
"071218","11:55:00","261248365","test","2","intention_check","53","5","117","0","2500","61","46"
"071218","11:55:00","261248365","test","2","prime_positive","54","1","2","0","81","57","46"
"071218","11:55:00","261248365","test","2","intention_check","55","1","2","0","2500","57","46"
"071218","11:55:00","261248365","test","2","prime_positive","56","6","116","0","421","53","46"
"071218","11:55:00","261248365","test","2","intention_check","57","6","116","0","2500","53","46"
"071218","11:55:00","261248365","test","2","prime_positive","58","4","135","0","307","50","46"
"071218","11:55:00","261248365","test","2","intention_check","59","4","135","0","2500","50","46"
"071218","11:55:00","261248365","test","2","prime_positive","60","11","13","1","74","52","46"
"071218","11:55:00","261248365","test","2","intention_check","61","11","13","0","2500","52","46"
"071218","11:55:00","261248365","test","2","prime_positive","62","2","71","1","30","55","46"
"071218","11:55:00","261248365","test","2","intention_check","63","2","71","0","2500","55","46"
"071218","11:55:00","261248365","test","2","prime_negative","64","9","148","1","190","55","50"
"071218","11:55:00","261248365","test","2","intention_check","65","9","148","0","2500","55","50"
"071218","11:55:00","261248365","test","2","prime_negative","66","6","129","1","40","55","53"
"071218","11:55:00","261248365","test","2","intention_check","67","6","129","0","2500","55","53"
"071218","11:55:00","261248365","test","2","prime_positive","68","10","15","0","942","52","53"
"071218","11:55:00","261248365","test","2","intention_check","69","10","15","0","2500","52","53"
"071218","11:55:00","261248365","test","2","prime_positive","70","3","94","0","623","50","53"
"071218","11:55:00","261248365","test","2","intention_check","71","3","94","0","2500","50","53"
"071218","11:55:00","261248365","test","2","prime_positive","72","7","191","1","893","52","53"
"071218","11:55:00","261248365","test","2","intention_check","73","7","191","0","2500","52","53"
"071218","11:55:00","261248365","test","2","prime_negative","74","7","14","1","721","52","56"
"071218","11:55:00","261248365","test","2","intention_check","75","7","14","0","2500","52","56"
"071218","11:55:00","261248365","test","2","prime_positive","76","10","193","1","662","54","56"
"071218","11:55:00","261248365","test","2","intention_check","77","10","193","0","2500","54","56"
"071218","11:55:00","261248365","test","2","prime_negative","78","8","130","0","690","54","52"
"071218","11:55:00","261248365","test","2","intention_check","79","8","130","1","1619","54","52"
"071218","11:55:00","261248365","test","2","prime_negative","80","2","127","0","1015","54","50"
"071218","11:55:00","261248365","test","2","intention_check","81","2","127","1","770","54","50"
"071218","11:55:00","261248365","test","2","prime_negative","82","1","164","0","942","54","47"
"071218","11:55:00","261248365","test","2","intention_check","83","1","164","1","523","54","47"
"071218","11:55:00","261248365","test","2","prime_negative","84","12","108","1","3023","54","50"
"071218","11:55:00","261248365","test","2","intention_check","85","12","108","1","990","54","50"
"071218","11:55:00","261248365","test","2","prime_positive","86","5","118","1","1450","56","50"
"071218","11:55:00","261248365","test","2","intention_check","87","5","118","0","2500","56","50"
"071218","11:55:00","261248365","test","2","prime_negative","88","5","159","0","886","56","47"
"071218","11:55:00","261248365","test","2","intention_check","89","5","159","1","710","56","47"
"071218","11:55:00","261248365","test","2","prime_negative","90","3","45","0","762","56","45"
"071218","11:55:00","261248365","test","2","intention_check","91","3","45","1","736","56","45"
"071218","11:55:00","261248365","test","2","prime_positive","92","11","107","1","803","58","45"
"071218","11:55:00","261248365","test","2","intention_check","93","11","107","1","847","58","45"
"071218","11:55:00","261248365","test","2","prime_positive","94","12","60","1","966","60","45"
"071218","11:55:00","261248365","test","2","intention_check","95","12","60","1","967","60","45"
"071218","11:55:00","261248365","test","2","prime_positive","96","2","79","1","919","61","45"
"071218","11:55:00","261248365","test","2","intention_check","97","2","79","1","602","61","45"
"071218","11:55:00","261248365","test","2","prime_negative","98","7","98","0","1273","61","43"
"071218","11:55:00","261248365","test","2","intention_check","99","7","98","1","966","61","43"
"071218","11:55:00","261248365","test","2","prime_positive","100","1","123","1","685","62","43"
"071218","11:55:00","261248365","test","2","intention_check","101","1","123","1","686","62","43"
"071218","11:55:00","261248365","test","2","prime_negative","102","9","37","0","873","62","41"
"071218","11:55:00","261248365","test","2","intention_check","103","9","37","1","723","62","41"
"071218","11:55:00","261248365","test","2","prime_positive","104","9","101","0","870","60","41"
"071218","11:55:00","261248365","test","2","intention_check","105","9","101","1","591","60","41"
"071218","11:55:00","261248365","test","2","prime_negative","106","4","6","0","971","60","40"
"071218","11:55:00","261248365","test","2","intention_check","107","4","6","1","544","60","40"
"071218","11:55:00","261248365","test","2","prime_positive","108","4","137","0","519","58","40"
"071218","11:55:00","261248365","test","2","intention_check","109","4","137","1","499","58","40"
"071218","11:55:00","261248365","test","2","prime_positive","110","8","43","1","658","60","40"
"071218","11:55:00","261248365","test","2","intention_check","111","8","43","1","660","60","40"
"071218","11:55:00","261248365","test","2","prime_positive","112","6","58","1","712","61","40"
"071218","11:55:00","261248365","test","2","intention_check","113","6","58","1","663","61","40"
"071218","11:55:00","261248365","test","2","prime_negative","114","1","163","1","1244","61","42"
"071218","11:55:00","261248365","test","2","intention_check","115","1","163","1","518","61","42"
"071218","11:55:00","261248365","test","2","prime_negative","116","2","19","0","736","61","40"
"071218","11:55:00","261248365","test","2","intention_check","117","2","19","1","583","61","40"
"071218","11:55:00","261248365","test","2","prime_negative","118","10","181","0","739","61","39"
"071218","11:55:00","261248365","test","2","intention_check","119","10","181","1","665","61","39"
"071218","11:55:00","261248365","test","2","prime_positive","120","5","172","0","648","59","39"
"071218","11:55:00","261248365","test","2","intention_check","121","5","172","1","583","59","39"
"071218","11:55:00","261248365","test","2","prime_positive","122","11","195","1","583","60","39"
"071218","11:55:00","261248365","test","2","intention_check","123","11","195","1","596","60","39"
"071218","11:55:00","261248365","test","2","prime_negative","124","8","133","0","544","60","37"
"071218","11:55:00","261248365","test","2","intention_check","125","8","133","1","599","60","37"
"071218","11:55:00","261248365","test","2","prime_positive","126","9","23","0","474","58","37"
"071218","11:55:00","261248365","test","2","intention_check","127","9","23","1","356","58","37"
"071218","11:55:00","261248365","test","2","prime_positive","128","8","143","1","595","60","37"
"071218","11:55:00","261248365","test","2","intention_check","129","8","143","1","1780","60","37"
"071218","11:55:00","261248365","test","2","prime_positive","130","12","26","1","588","61","37"
"071218","11:55:00","261248365","test","2","intention_check","131","12","26","1","516","61","37"
"071218","11:55:00","261248365","test","2","prime_positive","132","2","75","1","444","62","37"
"071218","11:55:00","261248365","test","2","intention_check","133","2","75","1","591","62","37"
"071218","11:55:00","261248365","test","2","prime_negative","134","6","46","1","1355","62","40"
"071218","11:55:00","261248365","test","2","intention_check","135","6","46","0","2500","62","40"
"071218","11:55:00","261248365","test","2","prime_positive","136","6","16","1","602","63","40"
"071218","11:55:00","261248365","test","2","intention_check","137","6","16","1","1358","63","40"
"071218","11:55:00","261248365","test","2","prime_positive","138","7","131","1","1938","64","40"
"071218","11:55:00","261248365","test","2","intention_check","139","7","131","1","535","64","40"
"071218","11:55:00","261248365","test","2","prime_positive","140","4","115","1","1154","65","40"
"071218","11:55:00","261248365","test","2","intention_check","141","4","115","1","743","65","40"
"071218","11:55:00","261248365","test","2","prime_positive","142","1","114","1","791","65","40"
"071218","11:55:00","261248365","test","2","intention_check","143","1","114","1","791","65","40"
"071218","11:55:00","261248365","test","2","prime_negative","144","11","32","0","734","65","38"
"071218","11:55:00","261248365","test","2","intention_check","145","11","32","1","690","65","38"
"071218","11:55:00","261248365","test","2","prime_positive","146","3","17","1","1369","66","38"
"071218","11:55:00","261248365","test","2","intention_check","147","3","17","1","249","66","38"
"071218","11:55:00","261248365","test","2","prime_negative","148","10","33","0","569","66","37"
"071218","11:55:00","261248365","test","2","intention_check","149","10","33","1","846","66","37"
"071218","11:55:00","261248365","test","2","prime_positive","150","10","125","1","1090","67","37"
"071218","11:55:00","261248365","test","2","intention_check","151","10","125","0","2500","67","37"
"071218","11:55:00","261248365","test","2","prime_positive","152","12","168","1","660","68","37"
"071218","11:55:00","261248365","test","2","intention_check","153","12","168","1","838","68","37"
"071218","11:55:00","261248365","test","2","prime_negative","154","11","25","0","530","68","36"
"071218","11:55:00","261248365","test","2","intention_check","155","11","25","1","1513","68","36"
"071218","11:55:00","261248365","test","2","prime_negative","156","12","180","0","1112","68","35"
"071218","11:55:00","261248365","test","2","intention_check","157","12","180","0","2500","68","35"
"071218","11:55:00","261248365","test","2","prime_negative","158","5","176","0","746","68","34"
"071218","11:55:00","261248365","test","2","intention_check","159","5","176","1","757","68","34"
"071218","11:55:00","261248365","test","2","prime_negative","160","7","47","0","421","68","33"
"071218","11:55:00","261248365","test","2","intention_check","161","7","47","1","984","68","33"
"071218","11:55:00","261248365","test","2","prime_negative","162","8","144","0","436","68","32"
"071218","11:55:00","261248365","test","2","intention_check","163","8","144","1","551","68","32"
"071218","11:55:00","261248365","test","2","prime_negative","164","9","185","0","442","68","31"
"071218","11:55:00","261248365","test","2","intention_check","165","9","185","1","589","68","31"
"071218","11:55:00","261248365","test","2","prime_negative","166","2","183","0","477","68","30"
"071218","11:55:00","261248365","test","2","intention_check","167","2","183","1","603","68","30"
"071218","11:55:00","261248365","test","2","prime_positive","168","8","132","1","419","68","30"
"071218","11:55:00","261248365","test","2","intention_check","169","8","132","1","734","68","30"
"071218","11:55:00","261248365","test","2","prime_negative","170","6","28","0","665","68","30"
"071218","11:55:00","261248365","test","2","intention_check","171","6","28","1","852","68","30"
"071218","11:55:00","261248365","test","2","prime_negative","172","4","121","0","743","68","29"
"071218","11:55:00","261248365","test","2","intention_check","173","4","121","1","550","68","29"
"071218","11:55:00","261248365","test","2","prime_positive","174","10","197","1","533","69","29"
"071218","11:55:00","261248365","test","2","intention_check","175","10","197","1","720","69","29"
"071218","11:55:00","261248365","test","2","prime_positive","176","7","171","1","471","70","29"
"071218","11:55:00","261248365","test","2","intention_check","177","7","171","1","849","70","29"
"071218","11:55:00","261248365","test","2","prime_negative","178","1","175","0","597","70","28"
"071218","11:55:00","261248365","test","2","intention_check","179","1","175","1","865","70","28"
"071218","11:55:00","261248365","test","2","prime_negative","180","3","151","0","717","70","27"
"071218","11:55:00","261248365","test","2","intention_check","181","3","151","1","718","70","27"
"071218","11:55:00","261248365","test","2","prime_positive","182","4","57","1","665","70","27"
"071218","11:55:00","261248365","test","2","intention_check","183","4","57","1","635","70","27"
"071218","11:55:00","261248365","test","2","prime_positive","184","9","126","0","610","69","27"
"071218","11:55:00","261248365","test","2","intention_check","185","9","126","1","866","69","27"
"071218","11:55:00","261248365","test","2","prime_negative","186","12","7","0","722","69","27"
"071218","11:55:00","261248365","test","2","intention_check","187","12","7","1","537","69","27"
"071218","11:55:00","261248365","test","2","prime_negative","188","10","167","0","637","69","26"
"071218","11:55:00","261248365","test","2","intention_check","189","10","167","1","535","69","26"
"071218","11:55:00","261248365","test","2","prime_positive","190","5","198","1","659","70","26"
"071218","11:55:00","261248365","test","2","intention_check","191","5","198","1","653","70","26"
"071218","11:55:00","261248365","test","2","prime_negative","192","2","22","0","753","70","26"
"071218","11:55:00","261248365","test","2","intention_check","193","2","22","1","671","70","26"
"071218","11:55:00","261248365","test","2","prime_negative","194","7","160","0","462","70","25"
"071218","11:55:00","261248365","test","2","intention_check","195","7","160","1","596","70","25"
"071218","11:55:00","261248365","test","2","prime_negative","196","5","92","0","428","70","25"
"071218","11:55:00","261248365","test","2","intention_check","197","5","92","1","455","70","25"
"071218","11:55:00","261248365","test","2","prime_negative","198","3","150","0","364","70","24"
"071218","11:55:00","261248365","test","2","intention_check","199","3","150","1","354","70","24"
"071218","11:55:00","261248365","test","2","prime_positive","200","2","194","1","469","70","24"
"071218","11:55:00","261248365","test","2","intention_check","201","2","194","1","727","70","24"
"071218","11:55:00","261248365","test","2","prime_positive","202","6","36","1","454","71","24"
"071218","11:55:00","261248365","test","2","intention_check","203","6","36","1","677","71","24"
"071218","11:55:00","261248365","test","2","prime_negative","204","6","169","0","709","71","24"
"071218","11:55:00","261248365","test","2","intention_check","205","6","169","1","580","71","24"
"071218","11:55:00","261248365","test","2","prime_positive","206","11","104","1","1328","71","24"
"071218","11:55:00","261248365","test","2","intention_check","207","11","104","1","582","71","24"
"071218","11:55:00","261248365","test","2","prime_negative","208","9","173","0","546","71","23"
"071218","11:55:00","261248365","test","2","intention_check","209","9","173","1","681","71","23"
"071218","11:55:00","261248365","test","2","prime_positive","210","1","49","1","1484","72","23"
"071218","11:55:00","261248365","test","2","intention_check","211","1","49","1","549","72","23"
"071218","11:55:00","261248365","test","2","prime_negative","212","4","35","0","608","72","23"
"071218","11:55:00","261248365","test","2","intention_check","213","4","35","1","612","72","23"
"071218","11:55:00","261248365","test","2","prime_negative","214","8","64","0","379","72","22"
"071218","11:55:00","261248365","test","2","intention_check","215","8","64","1","693","72","22"
"071218","11:55:00","261248365","test","2","prime_negative","216","11","165","0","517","72","22"
"071218","11:55:00","261248365","test","2","intention_check","217","11","165","1","526","72","22"
"071218","11:55:00","261248365","test","2","prime_negative","218","1","77","0","416","72","21"
"071218","11:55:00","261248365","test","2","intention_check","219","1","77","1","509","72","21"
"071218","11:55:00","261248365","test","2","prime_positive","220","3","96","1","465","72","21"
"071218","11:55:00","261248365","test","2","intention_check","221","3","96","1","827","72","21"
"071218","11:55:00","261248365","test","2","prime_negative","222","11","112","0","490","72","21"
"071218","11:55:00","261248365","test","2","intention_check","223","11","112","1","600","72","21"
"071218","11:55:00","261248365","test","2","prime_positive","224","1","31","1","375","73","21"
"071218","11:55:00","261248365","test","2","intention_check","225","1","31","1","957","73","21"
"071218","11:55:00","261248365","test","2","prime_positive","226","8","182","1","585","73","21"
"071218","11:55:00","261248365","test","2","intention_check","227","8","182","1","669","73","21"
"071218","11:55:00","261248365","test","2","prime_negative","228","5","119","0","553","73","21"
"071218","11:55:00","261248365","test","2","intention_check","229","5","119","1","607","73","21"
"071218","11:55:00","261248365","test","2","prime_positive","230","2","93","1","387","74","21"
"071218","11:55:00","261248365","test","2","intention_check","231","2","93","1","712","74","21"
"071218","11:55:00","261248365","test","2","prime_positive","232","4","147","0","848","72","21"
"071218","11:55:00","261248365","test","2","intention_check","233","4","147","0","2500","72","21"
"071218","11:55:00","261248365","test","2","prime_negative","234","10","200","0","515","72","20"
"071218","11:55:00","261248365","test","2","intention_check","235","10","200","0","2500","72","20"
"071218","11:55:00","261248365","test","2","prime_negative","236","8","85","0","3957","72","20"
"071218","11:55:00","261248365","test","2","intention_check","237","8","85","0","2500","72","20"
"071218","11:55:00","261248365","test","2","prime_negative","238","3","177","0","808","72","20"
"071218","11:55:00","261248365","test","2","intention_check","239","3","177","1","1952","72","20"
"071218","11:55:00","261248365","test","2","prime_positive","240","10","155","0","832","71","20"
"071218","11:55:00","261248365","test","2","intention_check","241","10","155","0","2500","71","20"
"071218","10:51:13","610671551","practice","1","prime_positive_practice","5","0","0","1","3091","0","0"
"071218","10:51:13","610671551","practice","1","intention_check_practice","6","0","0","0","2500","0","0"
"071218","10:51:13","610671551","practice","1","prime_positive_practice","7","0","0","0","2542","0","0"
"071218","10:51:13","610671551","practice","1","intention_check_practice","8","0","0","0","2500","0","0"
"071218","10:51:13","610671551","practice","1","prime_positive_practice","9","0","0","1","1312","0","0"
"071218","10:51:13","610671551","practice","1","intention_check_practice","10","0","0","0","2500","0","0"
"071218","10:51:13","610671551","practice","1","prime_negative_practice","11","0","0","1","3282","0","0"
"071218","10:51:13","610671551","practice","1","intention_check_practice","12","0","0","0","2500","0","0"
"071218","10:51:13","610671551","practice","1","prime_negative_practice","13","0","0","1","2077","0","0"
"071218","10:51:13","610671551","practice","1","intention_check_practice","14","0","0","0","2500","0","0"
"071218","10:51:13","610671551","practice","1","prime_positive_practice","15","0","0","1","1785","0","0"
"071218","10:51:13","610671551","practice","1","intention_check_practice","16","0","0","0","2500","0","0"
"071218","10:51:13","610671551","practice","1","prime_negative_practice","17","0","0","1","3152","0","0"
"071218","10:51:13","610671551","practice","1","intention_check_practice","18","0","0","0","2500","0","0"
"071218","10:51:13","610671551","practice","1","prime_negative_practice","19","0","0","1","801","0","0"
"071218","10:51:13","610671551","practice","1","intention_check_practice","20","0","0","0","2500","0","0"
"071218","10:51:13","610671551","practice","1","prime_positive_practice","21","0","0","1","696","0","0"
"071218","10:51:13","610671551","practice","1","intention_check_practice","22","0","0","0","2500","0","0"
"071218","10:51:13","610671551","practice","1","prime_negative_practice","23","0","0","1","836","0","0"
"071218","10:51:13","610671551","practice","1","intention_check_practice","24","0","0","0","2500","0","0"
"071218","10:51:13","610671551","test","2","prime_positive","2","9","113","1","667","100","0"
"071218","10:51:13","610671551","test","2","intention_check","3","9","113","0","2500","100","0"
"071218","10:51:13","610671551","test","2","prime_positive","4","8","27","1","807","100","0"
"071218","10:51:13","610671551","test","2","intention_check","5","8","27","0","2500","100","0"
"071218","10:51:13","610671551","test","2","prime_positive","6","7","22","1","807","100","0"
"071218","10:51:13","610671551","test","2","intention_check","7","7","22","0","2500","100","0"
"071218","10:51:13","610671551","test","2","prime_positive","8","11","91","1","678","100","0"
"071218","10:51:13","610671551","test","2","intention_check","9","11","91","0","2500","100","0"
"071218","10:51:13","610671551","test","2","prime_negative","10","6","172","1","802","100","100"
"071218","10:51:13","610671551","test","2","intention_check","11","6","172","0","2500","100","100"
"071218","10:51:13","610671551","test","2","prime_positive","12","2","42","1","705","100","100"
"071218","10:51:13","610671551","test","2","intention_check","13","2","42","0","2500","100","100"
"071218","10:51:13","610671551","test","2","prime_negative","14","2","151","1","940","100","100"
"071218","10:51:13","610671551","test","2","intention_check","15","2","151","0","2500","100","100"
"071218","10:51:13","610671551","test","2","prime_negative","16","8","122","1","1022","100","100"
"071218","10:51:13","610671551","test","2","intention_check","17","8","122","0","2500","100","100"
"071218","10:51:13","610671551","test","2","prime_negative","18","9","6","1","692","100","100"
"071218","10:51:13","610671551","test","2","intention_check","19","9","6","0","2500","100","100"
"071218","10:51:13","610671551","test","2","prime_negative","20","12","175","1","672","100","100"
"071218","10:51:13","610671551","test","2","intention_check","21","12","175","0","2500","100","100"
"071218","10:51:13","610671551","test","2","prime_negative","22","7","107","1","916","100","100"
"071218","10:51:13","610671551","test","2","intention_check","23","7","107","0","2500","100","100"
"071218","10:51:13","610671551","test","2","prime_positive","24","6","138","1","679","100","100"
"071218","10:51:13","610671551","test","2","intention_check","25","6","138","0","2500","100","100"
"071218","10:51:13","610671551","test","2","prime_negative","26","10","51","1","627","100","100"
"071218","10:51:13","610671551","test","2","intention_check","27","10","51","0","2500","100","100"
"071218","10:51:13","610671551","test","2","prime_negative","28","9","55","1","738","100","100"
"071218","10:51:13","610671551","test","2","intention_check","29","9","55","0","2500","100","100"
"071218","10:51:13","610671551","test","2","prime_negative","30","3","48","1","756","100","100"
"071218","10:51:13","610671551","test","2","intention_check","31","3","48","0","2500","100","100"
"071218","10:51:13","610671551","test","2","prime_negative","32","4","188","1","806","100","100"
"071218","10:51:13","610671551","test","2","intention_check","33","4","188","0","2500","100","100"
"071218","10:51:13","610671551","test","2","prime_positive","34","12","30","1","605","100","100"
"071218","10:51:13","610671551","test","2","intention_check","35","12","30","0","2500","100","100"
"071218","10:51:13","610671551","test","2","prime_positive","36","5","137","1","653","100","100"
"071218","10:51:13","610671551","test","2","intention_check","37","5","137","0","2500","100","100"
"071218","10:51:13","610671551","test","2","prime_positive","38","11","164","1","738","100","100"
"071218","10:51:13","610671551","test","2","intention_check","39","11","164","0","2500","100","100"
"071218","10:51:13","610671551","test","2","prime_positive","40","9","100","1","677","100","100"
"071218","10:51:13","610671551","test","2","intention_check","41","9","100","0","2500","100","100"
"071218","10:51:13","610671551","test","2","prime_positive","42","7","134","1","706","100","100"
"071218","10:51:13","610671551","test","2","intention_check","43","7","134","0","2500","100","100"
"071218","10:51:13","610671551","test","2","prime_positive","44","12","193","1","1485","100","100"
"071218","10:51:13","610671551","test","2","intention_check","45","12","193","0","2500","100","100"
"071218","10:51:13","610671551","test","2","prime_negative","46","6","192","1","506","100","100"
"071218","10:51:13","610671551","test","2","intention_check","47","6","192","0","2500","100","100"
"071218","10:51:13","610671551","test","2","prime_negative","48","5","72","1","469","100","100"
"071218","10:51:13","610671551","test","2","intention_check","49","5","72","0","2500","100","100"
"071218","10:51:13","610671551","test","2","prime_positive","50","2","78","1","435","100","100"
"071218","10:51:13","610671551","test","2","intention_check","51","2","78","0","2500","100","100"
"071218","10:51:13","610671551","test","2","prime_negative","52","7","168","1","497","100","100"
"071218","10:51:13","610671551","test","2","intention_check","53","7","168","0","2500","100","100"
"071218","10:51:13","610671551","test","2","prime_negative","54","10","83","1","630","100","100"
"071218","10:51:13","610671551","test","2","intention_check","55","10","83","0","2500","100","100"
"071218","10:51:13","610671551","test","2","prime_positive","56","3","106","1","684","100","100"
"071218","10:51:13","610671551","test","2","intention_check","57","3","106","0","2500","100","100"
"071218","10:51:13","610671551","test","2","prime_negative","58","1","31","1","913","100","100"
"071218","10:51:13","610671551","test","2","intention_check","59","1","31","0","2500","100","100"
"071218","10:51:13","610671551","test","2","prime_negative","60","8","93","1","580","100","100"
"071218","10:51:13","610671551","test","2","intention_check","61","8","93","0","2500","100","100"
"071218","10:51:13","610671551","test","2","prime_positive","62","4","130","1","677","100","100"
"071218","10:51:13","610671551","test","2","intention_check","63","4","130","0","2500","100","100"
"071218","10:51:13","610671551","test","2","prime_positive","64","1","198","1","587","100","100"
"071218","10:51:13","610671551","test","2","intention_check","65","1","198","0","2500","100","100"
"071218","10:51:13","610671551","test","2","prime_negative","66","12","169","1","819","100","100"
"071218","10:51:13","610671551","test","2","intention_check","67","12","169","0","2500","100","100"
"071218","10:51:13","610671551","test","2","prime_negative","68","2","117","1","586","100","100"
"071218","10:51:13","610671551","test","2","intention_check","69","2","117","0","2500","100","100"
"071218","10:51:13","610671551","test","2","prime_negative","70","11","190","1","738","100","100"
"071218","10:51:13","610671551","test","2","intention_check","71","11","190","0","2500","100","100"
"071218","10:51:13","610671551","test","2","prime_negative","72","8","98","1","685","100","100"
"071218","10:51:13","610671551","test","2","intention_check","73","8","98","0","2500","100","100"
"071218","10:51:13","610671551","test","2","prime_negative","74","7","109","1","321","100","100"
"071218","10:51:13","610671551","test","2","intention_check","75","7","109","0","2500","100","100"
"071218","10:51:13","610671551","test","2","prime_positive","76","6","64","1","532","100","100"
"071218","10:51:13","610671551","test","2","intention_check","77","6","64","0","2500","100","100"
"071218","10:51:13","610671551","test","2","prime_negative","78","3","62","1","830","100","100"
"071218","10:51:13","610671551","test","2","intention_check","79","3","62","0","2500","100","100"
"071218","10:51:13","610671551","test","2","prime_negative","80","12","167","1","486","100","100"
"071218","10:51:13","610671551","test","2","intention_check","81","12","167","0","2500","100","100"
"071218","10:51:13","610671551","test","2","prime_negative","82","4","182","1","754","100","100"
"071218","10:51:13","610671551","test","2","intention_check","83","4","182","0","2500","100","100"
"071218","10:51:13","610671551","test","2","prime_positive","84","10","120","1","1027","100","100"
"071218","10:51:13","610671551","test","2","intention_check","85","10","120","0","2500","100","100"
"071218","10:51:13","610671551","test","2","prime_negative","86","11","17","1","746","100","100"
"071218","10:51:13","610671551","test","2","intention_check","87","11","17","0","2500","100","100"
"071218","10:51:13","610671551","test","2","prime_negative","88","6","161","1","756","100","100"
"071218","10:51:13","610671551","test","2","intention_check","89","6","161","0","2500","100","100"
"071218","10:51:13","610671551","test","2","prime_positive","90","8","131","1","496","100","100"
"071218","10:51:13","610671551","test","2","intention_check","91","8","131","0","2500","100","100"
"071218","10:51:13","610671551","test","2","prime_negative","92","10","199","1","571","100","100"
"071218","10:51:13","610671551","test","2","intention_check","93","10","199","0","2500","100","100"
"071218","10:51:13","610671551","test","2","prime_positive","94","4","29","1","524","100","100"
"071218","10:51:13","610671551","test","2","intention_check","95","4","29","0","2500","100","100"
"071218","10:51:13","610671551","test","2","prime_negative","96","2","53","1","519","100","100"
"071218","10:51:13","610671551","test","2","intention_check","97","2","53","0","2500","100","100"
"071218","10:51:13","610671551","test","2","prime_positive","98","3","84","1","434","100","100"
"071218","10:51:13","610671551","test","2","intention_check","99","3","84","0","2500","100","100"
"071218","10:51:13","610671551","test","2","prime_positive","100","11","87","1","512","100","100"
"071218","10:51:13","610671551","test","2","intention_check","101","11","87","0","2500","100","100"
"071218","10:51:13","610671551","test","2","prime_positive","102","12","173","1","500","100","100"
"071218","10:51:13","610671551","test","2","intention_check","103","12","173","0","2500","100","100"
"071218","10:51:13","610671551","test","2","prime_negative","104","5","110","1","680","100","100"
"071218","10:51:13","610671551","test","2","intention_check","105","5","110","0","2500","100","100"
"071218","10:51:13","610671551","test","2","prime_negative","106","9","141","1","557","100","100"
"071218","10:51:13","610671551","test","2","intention_check","107","9","141","0","2500","100","100"
"071218","10:51:13","610671551","test","2","prime_positive","108","9","140","1","647","100","100"
"071218","10:51:13","610671551","test","2","intention_check","109","9","140","0","2500","100","100"
"071218","10:51:13","610671551","test","2","prime_positive","110","7","14","1","797","100","100"
"071218","10:51:13","610671551","test","2","intention_check","111","7","14","0","2500","100","100"
"071218","10:51:13","610671551","test","2","prime_negative","112","1","1","1","1013","100","100"
"071218","10:51:13","610671551","test","2","intention_check","113","1","1","0","2500","100","100"
"071218","10:51:13","610671551","test","2","prime_positive","114","1","112","1","901","100","100"
"071218","10:51:13","610671551","test","2","intention_check","115","1","112","1","1471","100","100"
"071218","10:51:13","610671551","test","2","prime_positive","116","5","57","1","1586","100","100"
"071218","10:51:13","610671551","test","2","intention_check","117","5","57","0","2500","100","100"
"071218","10:51:13","610671551","test","2","prime_positive","118","2","25","1","1218","100","100"
"071218","10:51:13","610671551","test","2","intention_check","119","2","25","0","2500","100","100"
"071218","10:51:13","610671551","test","2","prime_negative","120","9","157","1","521","100","100"
"071218","10:51:13","610671551","test","2","intention_check","121","9","157","0","2500","100","100"
"071218","10:51:13","610671551","test","2","prime_positive","122","8","56","1","460","100","100"
"071218","10:51:13","610671551","test","2","intention_check","123","8","56","0","2500","100","100"
"071218","10:51:13","610671551","test","2","prime_negative","124","2","3","1","489","100","100"
"071218","10:51:13","610671551","test","2","intention_check","125","2","3","0","2500","100","100"
"071218","10:51:13","610671551","test","2","prime_negative","126","3","119","1","678","100","100"
"071218","10:51:13","610671551","test","2","intention_check","127","3","119","0","2500","100","100"
"071218","10:51:13","610671551","test","2","prime_negative","128","5","16","1","691","100","100"
"071218","10:51:13","610671551","test","2","intention_check","129","5","16","0","2500","100","100"
"071218","10:51:13","610671551","test","2","prime_negative","130","6","18","1","399","100","100"
"071218","10:51:13","610671551","test","2","intention_check","131","6","18","0","2500","100","100"
"071218","10:51:13","610671551","test","2","prime_negative","132","7","165","1","367","100","100"
"071218","10:51:13","610671551","test","2","intention_check","133","7","165","0","2500","100","100"
"071218","10:51:13","610671551","test","2","prime_negative","134","8","44","1","232","100","100"
"071218","10:51:13","610671551","test","2","intention_check","135","8","44","0","2500","100","100"
"071218","10:51:13","610671551","test","2","prime_positive","136","6","185","1","407","100","100"
"071218","10:51:13","610671551","test","2","intention_check","137","6","185","0","2500","100","100"
"071218","10:51:13","610671551","test","2","prime_negative","138","12","135","1","454","100","100"
"071218","10:51:13","610671551","test","2","intention_check","139","12","135","0","2500","100","100"
"071218","10:51:13","610671551","test","2","prime_positive","140","10","61","1","564","100","100"
"071218","10:51:13","610671551","test","2","intention_check","141","10","61","0","2500","100","100"
"071218","10:51:13","610671551","test","2","prime_positive","142","8","156","1","454","100","100"
"071218","10:51:13","610671551","test","2","intention_check","143","8","156","0","2500","100","100"
"071218","10:51:13","610671551","test","2","prime_positive","144","11","37","1","532","100","100"
"071218","10:51:13","610671551","test","2","intention_check","145","11","37","0","2500","100","100"
"071218","10:51:13","610671551","test","2","prime_positive","146","6","144","1","870","100","100"
"071218","10:51:13","610671551","test","2","intention_check","147","6","144","1","946","100","100"
"071218","10:51:13","610671551","test","2","prime_negative","148","1","15","1","1340","100","100"
"071218","10:51:13","610671551","test","2","intention_check","149","1","15","0","2500","100","100"
"071218","10:51:13","610671551","test","2","prime_positive","150","10","183","1","1646","100","100"
"071218","10:51:13","610671551","test","2","intention_check","151","10","183","1","747","100","100"
"071218","10:51:13","610671551","test","2","prime_positive","152","1","24","1","1693","100","100"
"071218","10:51:13","610671551","test","2","intention_check","153","1","24","1","872","100","100"
"071218","10:51:13","610671551","test","2","prime_positive","154","5","71","1","1682","100","100"
"071218","10:51:13","610671551","test","2","intention_check","155","5","71","1","685","100","100"
"071218","10:51:13","610671551","test","2","prime_positive","156","3","28","1","871","100","100"
"071218","10:51:13","610671551","test","2","intention_check","157","3","28","1","771","100","100"
"071218","10:51:13","610671551","test","2","prime_positive","158","12","158","1","868","100","100"
"071218","10:51:13","610671551","test","2","intention_check","159","12","158","1","776","100","100"
"071218","10:51:13","610671551","test","2","prime_positive","160","9","105","1","1602","100","100"
"071218","10:51:13","610671551","test","2","intention_check","161","9","105","0","2500","100","100"
"071218","10:51:13","610671551","test","2","prime_negative","162","10","101","1","898","100","100"
"071218","10:51:13","610671551","test","2","intention_check","163","10","101","0","2500","100","100"
"071218","10:51:13","610671551","test","2","prime_negative","164","4","40","1","806","100","100"
"071218","10:51:13","610671551","test","2","intention_check","165","4","40","0","2500","100","100"
"071218","10:51:13","610671551","test","2","prime_positive","166","7","59","1","854","100","100"
"071218","10:51:13","610671551","test","2","intention_check","167","7","59","1","602","100","100"
"071218","10:51:13","610671551","test","2","prime_positive","168","4","73","1","1276","100","100"
"071218","10:51:13","610671551","test","2","intention_check","169","4","73","1","687","100","100"
"071218","10:51:13","610671551","test","2","prime_positive","170","2","36","1","649","100","100"
"071218","10:51:13","610671551","test","2","intention_check","171","2","36","1","742","100","100"
"071218","10:51:13","610671551","test","2","prime_positive","172","10","34","1","1088","100","100"
"071218","10:51:13","610671551","test","2","intention_check","173","10","34","1","611","100","100"
"071218","10:51:13","610671551","test","2","prime_negative","174","11","177","1","1029","100","100"
"071218","10:51:13","610671551","test","2","intention_check","175","11","177","0","2500","100","100"
"071218","10:51:13","610671551","test","2","prime_positive","176","2","80","1","1038","100","100"
"071218","10:51:13","610671551","test","2","intention_check","177","2","80","1","657","100","100"
"071218","10:51:13","610671551","test","2","prime_positive","178","11","99","1","635","100","100"
"071218","10:51:13","610671551","test","2","intention_check","179","11","99","1","584","100","100"
"071218","10:51:13","610671551","test","2","prime_negative","180","8","47","1","1042","100","100"
"071218","10:51:13","610671551","test","2","intention_check","181","8","47","0","2500","100","100"
"071218","10:51:13","610671551","test","2","prime_negative","182","11","46","1","1000","100","100"
"071218","10:51:13","610671551","test","2","intention_check","183","11","46","0","2500","100","100"
"071218","10:51:13","610671551","test","2","prime_negative","184","3","170","1","1056","100","100"
"071218","10:51:13","610671551","test","2","intention_check","185","3","170","0","2500","100","100"
"071218","10:51:13","610671551","test","2","prime_positive","186","9","176","1","2077","100","100"
"071218","10:51:13","610671551","test","2","intention_check","187","9","176","1","1097","100","100"
"071218","10:51:13","610671551","test","2","prime_positive","188","12","171","1","803","100","100"
"071218","10:51:13","610671551","test","2","intention_check","189","12","171","1","633","100","100"
"071218","10:51:13","610671551","test","2","prime_negative","190","10","125","1","1523","100","100"
"071218","10:51:13","610671551","test","2","intention_check","191","10","125","0","2500","100","100"
"071218","10:51:13","610671551","test","2","prime_positive","192","3","179","1","526","100","100"
"071218","10:51:13","610671551","test","2","intention_check","193","3","179","1","527","100","100"
"071218","10:51:13","610671551","test","2","prime_negative","194","2","66","1","794","100","100"
"071218","10:51:13","610671551","test","2","intention_check","195","2","66","0","2500","100","100"
"071218","10:51:13","610671551","test","2","prime_negative","196","7","139","1","826","100","100"
"071218","10:51:13","610671551","test","2","intention_check","197","7","139","0","2500","100","100"
"071218","10:51:13","610671551","test","2","prime_negative","198","12","79","1","1593","100","100"
"071218","10:51:13","610671551","test","2","intention_check","199","12","79","0","2500","100","100"
"071218","10:51:13","610671551","test","2","prime_positive","200","7","10","1","617","100","100"
"071218","10:51:13","610671551","test","2","intention_check","201","7","10","1","567","100","100"
"071218","10:51:13","610671551","test","2","prime_positive","202","4","19","1","545","100","100"
"071218","10:51:13","610671551","test","2","intention_check","203","4","19","1","314","100","100"
"071218","10:51:13","610671551","test","2","prime_negative","204","4","20","1","1316","100","100"
"071218","10:51:13","610671551","test","2","intention_check","205","4","20","0","2500","100","100"
"071218","10:51:13","610671551","test","2","prime_negative","206","6","69","1","807","100","100"
"071218","10:51:13","610671551","test","2","intention_check","207","6","69","0","2500","100","100"
"071218","10:51:13","610671551","test","2","prime_positive","208","1","102","1","438","100","100"
"071218","10:51:13","610671551","test","2","intention_check","209","1","102","1","308","100","100"
"071218","10:51:13","610671551","test","2","prime_negative","210","9","154","1","726","100","100"
"071218","10:51:13","610671551","test","2","intention_check","211","9","154","0","2500","100","100"
"071218","10:51:13","610671551","test","2","prime_positive","212","5","2","1","704","100","100"
"071218","10:51:13","610671551","test","2","intention_check","213","5","2","1","419","100","100"
"071218","10:51:13","610671551","test","2","prime_positive","214","8","126","1","565","100","100"
"071218","10:51:13","610671551","test","2","intention_check","215","8","126","1","325","100","100"
"071218","10:51:13","610671551","test","2","prime_positive","216","6","142","1","631","100","100"
"071218","10:51:13","610671551","test","2","intention_check","217","6","142","1","389","100","100"
"071218","10:51:13","610671551","test","2","prime_negative","218","5","67","1","1359","100","100"
"071218","10:51:13","610671551","test","2","intention_check","219","5","67","0","2500","100","100"
"071218","10:51:13","610671551","test","2","prime_negative","220","1","54","1","584","100","100"
"071218","10:51:13","610671551","test","2","intention_check","221","1","54","0","2500","100","100"
"071218","10:51:13","610671551","test","2","prime_positive","222","3","52","1","441","100","100"
"071218","10:51:13","610671551","test","2","intention_check","223","3","52","1","382","100","100"
"071218","10:51:13","610671551","test","2","prime_negative","224","11","184","1","968","100","100"
"071218","10:51:13","610671551","test","2","intention_check","225","11","184","0","2500","100","100"
"071218","10:51:13","610671551","test","2","prime_positive","226","9","155","1","753","100","100"
"071218","10:51:13","610671551","test","2","intention_check","227","9","155","1","409","100","100"
"071218","10:51:13","610671551","test","2","prime_positive","228","2","82","1","635","100","100"
"071218","10:51:13","610671551","test","2","intention_check","229","2","82","1","417","100","100"
"071218","10:51:13","610671551","test","2","prime_negative","230","10","181","1","738","100","100"
"071218","10:51:13","610671551","test","2","intention_check","231","10","181","0","2500","100","100"
"071218","10:51:13","610671551","test","2","prime_negative","232","6","92","1","781","100","100"
"071218","10:51:13","610671551","test","2","intention_check","233","6","92","0","2500","100","100"
"071218","10:51:13","610671551","test","2","prime_positive","234","6","60","1","494","100","100"
"071218","10:51:13","610671551","test","2","intention_check","235","6","60","1","641","100","100"
"071218","10:51:13","610671551","test","2","prime_negative","236","3","133","1","867","100","100"
"071218","10:51:13","610671551","test","2","intention_check","237","3","133","0","2500","100","100"
"071218","10:51:13","610671551","test","2","prime_negative","238","8","5","1","744","100","100"
"071218","10:51:13","610671551","test","2","intention_check","239","8","5","0","2500","100","100"
"071218","10:51:13","610671551","test","2","prime_positive","240","11","45","1","562","100","100"
"071218","10:51:13","610671551","test","2","intention_check","241","11","45","1","554","100","100"
"071218","16:54:15","146376097","practice","1","prime_positive_practice","5","0","0","0","3792","0","0"
"071218","16:54:15","146376097","practice","1","intention_check_practice","6","0","0","0","2500","0","0"
"071218","16:54:15","146376097","practice","1","prime_negative_practice","7","0","0","1","2346","0","0"
"071218","16:54:15","146376097","practice","1","intention_check_practice","8","0","0","0","2500","0","0"
"071218","16:54:15","146376097","practice","1","prime_negative_practice","9","0","0","0","2992","0","0"
"071218","16:54:15","146376097","practice","1","intention_check_practice","10","0","0","0","2500","0","0"
"071218","16:54:15","146376097","practice","1","prime_positive_practice","11","0","0","1","3379","0","0"
"071218","16:54:15","146376097","practice","1","intention_check_practice","12","0","0","1","1317","0","0"
"071218","16:54:15","146376097","practice","1","prime_positive_practice","13","0","0","1","2346","0","0"
"071218","16:54:15","146376097","practice","1","intention_check_practice","14","0","0","0","2500","0","0"
"071218","16:54:15","146376097","practice","1","prime_negative_practice","15","0","0","0","2163","0","0"
"071218","16:54:15","146376097","practice","1","intention_check_practice","16","0","0","1","689","0","0"
"071218","16:54:15","146376097","practice","1","prime_positive_practice","17","0","0","1","2881","0","0"
"071218","16:54:15","146376097","practice","1","intention_check_practice","18","0","0","0","2500","0","0"
"071218","16:54:15","146376097","practice","1","prime_positive_practice","19","0","0","1","3494","0","0"
"071218","16:54:15","146376097","practice","1","intention_check_practice","20","0","0","1","2121","0","0"
"071218","16:54:15","146376097","practice","1","prime_negative_practice","21","0","0","1","3633","0","0"
"071218","16:54:15","146376097","practice","1","intention_check_practice","22","0","0","0","2500","0","0"
"071218","16:54:15","146376097","practice","1","prime_negative_practice","23","0","0","0","2123","0","0"
"071218","16:54:15","146376097","practice","1","intention_check_practice","24","0","0","0","2500","0","0"
"071218","16:54:15","146376097","test","2","prime_negative","2","5","75","1","1251","0","100"
"071218","16:54:15","146376097","test","2","intention_check","3","5","75","0","2500","0","100"
"071218","16:54:15","146376097","test","2","prime_negative","4","11","174","1","1920","0","100"
"071218","16:54:15","146376097","test","2","intention_check","5","11","174","0","2500","0","100"
"071218","16:54:15","146376097","test","2","prime_negative","6","12","179","0","1593","0","66"
"071218","16:54:15","146376097","test","2","intention_check","7","12","179","1","539","0","66"
"071218","16:54:15","146376097","test","2","prime_positive","8","2","104","1","2573","100","66"
"071218","16:54:15","146376097","test","2","intention_check","9","2","104","0","2500","100","66"
"071218","16:54:15","146376097","test","2","prime_positive","10","10","99","1","1494","100","66"
"071218","16:54:15","146376097","test","2","intention_check","11","10","99","0","2500","100","66"
"071218","16:54:15","146376097","test","2","prime_negative","12","8","116","0","1506","100","50"
"071218","16:54:15","146376097","test","2","intention_check","13","8","116","1","494","100","50"
"071218","16:54:15","146376097","test","2","prime_negative","14","1","97","0","1482","100","40"
"071218","16:54:15","146376097","test","2","intention_check","15","1","97","0","2500","100","40"
"071218","16:54:15","146376097","test","2","prime_positive","16","8","41","0","1916","66","40"
"071218","16:54:15","146376097","test","2","intention_check","17","8","41","0","2500","66","40"
"071218","16:54:15","146376097","test","2","prime_negative","18","2","82","0","1679","66","33"
"071218","16:54:15","146376097","test","2","intention_check","19","2","82","1","482","66","33"
"071218","16:54:15","146376097","test","2","prime_negative","20","9","162","1","1392","66","42"
"071218","16:54:15","146376097","test","2","intention_check","21","9","162","0","2500","66","42"
"071218","16:54:15","146376097","test","2","prime_positive","22","4","53","0","1166","50","42"
"071218","16:54:15","146376097","test","2","intention_check","23","4","53","0","2500","50","42"
"071218","16:54:15","146376097","test","2","prime_negative","24","7","135","1","1335","50","50"
"071218","16:54:15","146376097","test","2","intention_check","25","7","135","0","2500","50","50"
"071218","16:54:15","146376097","test","2","prime_negative","26","2","66","0","1328","50","44"
"071218","16:54:15","146376097","test","2","intention_check","27","2","66","1","401","50","44"
"071218","16:54:15","146376097","test","2","prime_negative","28","6","27","1","1139","50","50"
"071218","16:54:15","146376097","test","2","intention_check","29","6","27","0","2500","50","50"
"071218","16:54:15","146376097","test","2","prime_negative","30","8","131","0","1499","50","45"
"071218","16:54:15","146376097","test","2","intention_check","31","8","131","0","2500","50","45"
"071218","16:54:15","146376097","test","2","prime_positive","32","11","191","0","1606","40","45"
"071218","16:54:15","146376097","test","2","intention_check","33","11","191","0","2500","40","45"
"071218","16:54:15","146376097","test","2","prime_negative","34","5","93","1","1329","40","50"
"071218","16:54:15","146376097","test","2","intention_check","35","5","93","0","2500","40","50"
"071218","16:54:15","146376097","test","2","prime_positive","36","6","186","1","1496","50","50"
"071218","16:54:15","146376097","test","2","intention_check","37","6","186","1","493","50","50"
"071218","16:54:15","146376097","test","2","prime_positive","38","12","92","0","1572","42","50"
"071218","16:54:15","146376097","test","2","intention_check","39","12","92","0","2500","42","50"
"071218","16:54:15","146376097","test","2","prime_positive","40","2","110","0","1206","37","50"
"071218","16:54:15","146376097","test","2","intention_check","41","2","110","0","2500","37","50"
"071218","16:54:15","146376097","test","2","prime_negative","42","1","136","0","1413","37","46"
"071218","16:54:15","146376097","test","2","intention_check","43","1","136","1","606","37","46"
"071218","16:54:15","146376097","test","2","prime_negative","44","4","29","0","1856","37","42"
"071218","16:54:15","146376097","test","2","intention_check","45","4","29","1","1074","37","42"
"071218","16:54:15","146376097","test","2","prime_negative","46","9","157","0","1420","37","40"
"071218","16:54:15","146376097","test","2","intention_check","47","9","157","0","2500","37","40"
"071218","16:54:15","146376097","test","2","prime_positive","48","11","154","0","1548","33","40"
"071218","16:54:15","146376097","test","2","intention_check","49","11","154","0","2500","33","40"
"071218","16:54:15","146376097","test","2","prime_positive","50","8","55","0","1188","30","40"
"071218","16:54:15","146376097","test","2","intention_check","51","8","55","0","2500","30","40"
"071218","16:54:15","146376097","test","2","prime_positive","52","1","95","1","1522","36","40"
"071218","16:54:15","146376097","test","2","intention_check","53","1","95","1","457","36","40"
"071218","16:54:15","146376097","test","2","prime_negative","54","11","72","0","1234","36","37"
"071218","16:54:15","146376097","test","2","intention_check","55","11","72","0","2500","36","37"
"071218","16:54:15","146376097","test","2","prime_negative","56","10","85","0","1965","36","35"
"071218","16:54:15","146376097","test","2","intention_check","57","10","85","1","709","36","35"
"071218","16:54:15","146376097","test","2","prime_negative","58","12","121","0","2218","36","33"
"071218","16:54:15","146376097","test","2","intention_check","59","12","121","1","397","36","33"
"071218","16:54:15","146376097","test","2","prime_negative","60","3","8","0","1911","36","31"
"071218","16:54:15","146376097","test","2","intention_check","61","3","8","0","2500","36","31"
"071218","16:54:15","146376097","test","2","prime_positive","62","9","144","1","1602","41","31"
"071218","16:54:15","146376097","test","2","intention_check","63","9","144","1","478","41","31"
"071218","16:54:15","146376097","test","2","prime_negative","64","8","123","1","2027","41","35"
"071218","16:54:15","146376097","test","2","intention_check","65","8","123","0","2500","41","35"
"071218","16:54:15","146376097","test","2","prime_positive","66","10","194","0","1198","38","35"
"071218","16:54:15","146376097","test","2","intention_check","67","10","194","0","2500","38","35"
"071218","16:54:15","146376097","test","2","prime_negative","68","4","51","0","1258","38","33"
"071218","16:54:15","146376097","test","2","intention_check","69","4","51","1","436","38","33"
"071218","16:54:15","146376097","test","2","prime_positive","70","4","130","1","2564","42","33"
"071218","16:54:15","146376097","test","2","intention_check","71","4","130","0","2500","42","33"
"071218","16:54:15","146376097","test","2","prime_positive","72","7","56","0","1307","40","33"
"071218","16:54:15","146376097","test","2","intention_check","73","7","56","0","2500","40","33"
"071218","16:54:15","146376097","test","2","prime_negative","74","10","57","0","1367","40","31"
"071218","16:54:15","146376097","test","2","intention_check","75","10","57","1","286","40","31"
"071218","16:54:15","146376097","test","2","prime_positive","76","12","35","1","1904","43","31"
"071218","16:54:15","146376097","test","2","intention_check","77","12","35","1","340","43","31"
"071218","16:54:15","146376097","test","2","prime_negative","78","3","137","0","1474","43","30"
"071218","16:54:15","146376097","test","2","intention_check","79","3","137","1","660","43","30"
"071218","16:54:15","146376097","test","2","prime_negative","80","12","24","0","1938","43","29"
"071218","16:54:15","146376097","test","2","intention_check","81","12","24","1","339","43","29"
"071218","16:54:15","146376097","test","2","prime_negative","82","11","139","1","2191","43","32"
"071218","16:54:15","146376097","test","2","intention_check","83","11","139","0","2500","43","32"
"071218","16:54:15","146376097","test","2","prime_positive","84","6","192","1","2171","47","32"
"071218","16:54:15","146376097","test","2","intention_check","85","6","192","1","409","47","32"
"071218","16:54:15","146376097","test","2","prime_negative","86","7","2","0","2622","47","30"
"071218","16:54:15","146376097","test","2","intention_check","87","7","2","1","1796","47","30"
"071218","16:54:15","146376097","test","2","prime_negative","88","5","138","1","1603","47","33"
"071218","16:54:15","146376097","test","2","intention_check","89","5","138","0","2500","47","33"
"071218","16:54:15","146376097","test","2","prime_negative","90","6","17","1","1532","47","35"
"071218","16:54:15","146376097","test","2","intention_check","91","6","17","0","2500","47","35"
"071218","16:54:15","146376097","test","2","prime_positive","92","3","180","1","1420","50","35"
"071218","16:54:15","146376097","test","2","intention_check","93","3","180","0","2500","50","35"
"071218","16:54:15","146376097","test","2","prime_negative","94","2","18","0","1032","50","34"
"071218","16:54:15","146376097","test","2","intention_check","95","2","18","1","392","50","34"
"071218","16:54:15","146376097","test","2","prime_positive","96","5","119","1","1352","52","34"
"071218","16:54:15","146376097","test","2","intention_check","97","5","119","0","2500","52","34"
"071218","16:54:15","146376097","test","2","prime_negative","98","9","50","0","1156","52","33"
"071218","16:54:15","146376097","test","2","intention_check","99","9","50","0","2500","52","33"
"071218","16:54:15","146376097","test","2","prime_positive","100","12","96","1","1121","55","33"
"071218","16:54:15","146376097","test","2","intention_check","101","12","96","0","2500","55","33"
"071218","16:54:15","146376097","test","2","prime_positive","102","10","128","1","1578","57","33"
"071218","16:54:15","146376097","test","2","intention_check","103","10","128","0","2500","57","33"
"071218","16:54:15","146376097","test","2","prime_negative","104","1","84","0","1333","57","32"
"071218","16:54:15","146376097","test","2","intention_check","105","1","84","1","526","57","32"
"071218","16:54:15","146376097","test","2","prime_positive","106","8","161","1","1354","59","32"
"071218","16:54:15","146376097","test","2","intention_check","107","8","161","0","2500","59","32"
"071218","16:54:15","146376097","test","2","prime_positive","108","5","153","1","1368","60","32"
"071218","16:54:15","146376097","test","2","intention_check","109","5","153","0","2500","60","32"
"071218","16:54:15","146376097","test","2","prime_negative","110","1","49","0","1096","60","31"
"071218","16:54:15","146376097","test","2","intention_check","111","1","49","1","356","60","31"
"071218","16:54:15","146376097","test","2","prime_negative","112","12","199","0","1129","60","30"
"071218","16:54:15","146376097","test","2","intention_check","113","12","199","1","262","60","30"
"071218","16:54:15","146376097","test","2","prime_negative","114","4","156","0","2125","60","29"
"071218","16:54:15","146376097","test","2","intention_check","115","4","156","1","383","60","29"
"071218","16:54:15","146376097","test","2","prime_negative","116","8","122","1","1202","60","31"
"071218","16:54:15","146376097","test","2","intention_check","117","8","122","0","2500","60","31"
"071218","16:54:15","146376097","test","2","prime_negative","118","2","140","0","974","60","30"
"071218","16:54:15","146376097","test","2","intention_check","119","2","140","1","334","60","30"
"071218","16:54:15","146376097","test","2","prime_negative","120","11","68","1","1100","60","32"
"071218","16:54:15","146376097","test","2","intention_check","121","11","68","0","2500","60","32"
"071218","16:54:15","146376097","test","2","prime_positive","122","7","78","0","1221","58","32"
"071218","16:54:15","146376097","test","2","intention_check","123","7","78","0","2500","58","32"
"071218","16:54:15","146376097","test","2","prime_negative","124","6","195","0","1267","58","31"
"071218","16:54:15","146376097","test","2","intention_check","125","6","195","0","2500","58","31"
"071218","16:54:15","146376097","test","2","prime_positive","126","1","73","0","871","56","31"
"071218","16:54:15","146376097","test","2","intention_check","127","1","73","0","2500","56","31"
"071218","16:54:15","146376097","test","2","prime_positive","128","6","40","0","2080","53","31"
"071218","16:54:15","146376097","test","2","intention_check","129","6","40","0","2500","53","31"
"071218","16:54:15","146376097","test","2","prime_negative","130","7","111","0","1839","53","30"
"071218","16:54:15","146376097","test","2","intention_check","131","7","111","1","260","53","30"
"071218","16:54:15","146376097","test","2","prime_negative","132","10","176","0","3449","53","30"
"071218","16:54:15","146376097","test","2","intention_check","133","10","176","1","525","53","30"
"071218","16:54:15","146376097","test","2","prime_positive","134","9","150","1","1807","55","30"
"071218","16:54:15","146376097","test","2","intention_check","135","9","150","1","1059","55","30"
"071218","16:54:15","146376097","test","2","prime_positive","136","4","125","1","1964","57","30"
"071218","16:54:15","146376097","test","2","intention_check","137","4","125","0","2500","57","30"
"071218","16:54:15","146376097","test","2","prime_positive","138","3","165","1","1337","58","30"
"071218","16:54:15","146376097","test","2","intention_check","139","3","165","1","241","58","30"
"071218","16:54:15","146376097","test","2","prime_negative","140","3","173","0","2284","58","29"
"071218","16:54:15","146376097","test","2","intention_check","141","3","173","1","253","58","29"
"071218","16:54:15","146376097","test","2","prime_negative","142","5","20","0","1443","58","28"
"071218","16:54:15","146376097","test","2","intention_check","143","5","20","0","2500","58","28"
"071218","16:54:15","146376097","test","2","prime_positive","144","2","175","0","1394","56","28"
"071218","16:54:15","146376097","test","2","intention_check","145","2","175","0","2500","56","28"
"071218","16:54:15","146376097","test","2","prime_positive","146","11","158","1","2399","58","28"
"071218","16:54:15","146376097","test","2","intention_check","147","11","158","0","2500","58","28"
"071218","16:54:15","146376097","test","2","prime_positive","148","9","13","0","1348","56","28"
"071218","16:54:15","146376097","test","2","intention_check","149","9","13","0","2500","56","28"
"071218","16:54:15","146376097","test","2","prime_negative","150","9","26","0","2156","56","27"
"071218","16:54:15","146376097","test","2","intention_check","151","9","26","0","2500","56","27"
"071218","16:54:15","146376097","test","2","prime_positive","152","11","58","0","1183","54","27"
"071218","16:54:15","146376097","test","2","intention_check","153","11","58","0","2500","54","27"
"071218","16:54:15","146376097","test","2","prime_positive","154","10","113","0","2272","52","27"
"071218","16:54:15","146376097","test","2","intention_check","155","10","113","0","2500","52","27"
"071218","16:54:15","146376097","test","2","prime_negative","156","2","65","0","1182","52","27"
"071218","16:54:15","146376097","test","2","intention_check","157","2","65","1","319","52","27"
"071218","16:54:15","146376097","test","2","prime_positive","158","4","160","1","1210","54","27"
"071218","16:54:15","146376097","test","2","intention_check","159","4","160","0","2500","54","27"
"071218","16:54:15","146376097","test","2","prime_positive","160","1","10","0","1592","52","27"
"071218","16:54:15","146376097","test","2","intention_check","161","1","10","0","2500","52","27"
"071218","16:54:15","146376097","test","2","prime_positive","162","5","101","1","1459","54","27"
"071218","16:54:15","146376097","test","2","intention_check","163","5","101","0","2500","54","27"
"071218","16:54:15","146376097","test","2","prime_positive","164","7","181","0","1849","52","27"
"071218","16:54:15","146376097","test","2","intention_check","165","7","181","0","2500","52","27"
"071218","16:54:15","146376097","test","2","prime_negative","166","7","197","0","2420","52","26"
"071218","16:54:15","146376097","test","2","intention_check","167","7","197","0","2500","52","26"
"071218","16:54:15","146376097","test","2","prime_positive","168","3","88","0","2294","51","26"
"071218","16:54:15","146376097","test","2","intention_check","169","3","88","0","2500","51","26"
"071218","16:54:15","146376097","test","2","prime_positive","170","8","198","0","1309","50","26"
"071218","16:54:15","146376097","test","2","intention_check","171","8","198","0","2500","50","26"
"071218","16:54:15","146376097","test","2","prime_positive","172","6","184","1","2270","51","26"
"071218","16:54:15","146376097","test","2","intention_check","173","6","184","0","2500","51","26"
"071218","16:54:15","146376097","test","2","prime_positive","174","2","148","1","1288","52","26"
"071218","16:54:15","146376097","test","2","intention_check","175","2","148","0","2500","52","26"
"071218","16:54:15","146376097","test","2","prime_negative","176","11","33","1","1607","52","28"
"071218","16:54:15","146376097","test","2","intention_check","177","11","33","0","2500","52","28"
"071218","16:54:15","146376097","test","2","prime_positive","178","12","107","1","1691","53","28"
"071218","16:54:15","146376097","test","2","intention_check","179","12","107","0","2500","53","28"
"071218","16:54:15","146376097","test","2","prime_positive","180","6","23","1","1613","54","28"
"071218","16:54:15","146376097","test","2","intention_check","181","6","23","1","523","54","28"
"071218","16:54:15","146376097","test","2","prime_positive","182","5","170","1","2248","55","28"
"071218","16:54:15","146376097","test","2","intention_check","183","5","170","1","1271","55","28"
"071218","16:54:15","146376097","test","2","prime_negative","184","10","36","0","1832","55","27"
"071218","16:54:15","146376097","test","2","intention_check","185","10","36","1","594","55","27"
"071218","16:54:15","146376097","test","2","prime_negative","186","6","37","0","1415","55","27"
"071218","16:54:15","146376097","test","2","intention_check","187","6","37","0","2500","55","27"
"071218","16:54:15","146376097","test","2","prime_positive","188","3","81","0","1963","54","27"
"071218","16:54:15","146376097","test","2","intention_check","189","3","81","0","2500","54","27"
"071218","16:54:15","146376097","test","2","prime_negative","190","9","114","1","1536","54","28"
"071218","16:54:15","146376097","test","2","intention_check","191","9","114","0","2500","54","28"
"071218","16:54:15","146376097","test","2","prime_negative","192","5","60","0","1342","54","28"
"071218","16:54:15","146376097","test","2","intention_check","193","5","60","1","487","54","28"
"071218","16:54:15","146376097","test","2","prime_positive","194","10","94","1","2024","55","28"
"071218","16:54:15","146376097","test","2","intention_check","195","10","94","0","2500","55","28"
"071218","16:54:15","146376097","test","2","prime_positive","196","9","177","0","1721","54","28"
"071218","16:54:15","146376097","test","2","intention_check","197","9","177","0","2500","54","28"
"071218","16:54:15","146376097","test","2","prime_positive","198","2","166","0","2007","53","28"
"071218","16:54:15","146376097","test","2","intention_check","199","2","166","0","2500","53","28"
"071218","16:54:15","146376097","test","2","prime_negative","200","12","142","0","1787","53","27"
"071218","16:54:15","146376097","test","2","intention_check","201","12","142","1","431","53","27"
"071218","16:54:15","146376097","test","2","prime_positive","202","11","48","0","1272","52","27"
"071218","16:54:15","146376097","test","2","intention_check","203","11","48","0","2500","52","27"
"071218","16:54:15","146376097","test","2","prime_negative","204","8","61","0","1584","52","26"
"071218","16:54:15","146376097","test","2","intention_check","205","8","61","0","2500","52","26"
"071218","16:54:15","146376097","test","2","prime_negative","206","3","74","0","1808","52","26"
"071218","16:54:15","146376097","test","2","intention_check","207","3","74","1","401","52","26"
"071218","16:54:15","146376097","test","2","prime_negative","208","1","71","0","1490","52","25"
"071218","16:54:15","146376097","test","2","intention_check","209","1","71","0","2500","52","25"
"071218","16:54:15","146376097","test","2","prime_negative","210","4","117","0","1592","52","25"
"071218","16:54:15","146376097","test","2","intention_check","211","4","117","1","325","52","25"
"071218","16:54:15","146376097","test","2","prime_negative","212","3","106","0","1265","52","25"
"071218","16:54:15","146376097","test","2","intention_check","213","3","106","0","2500","52","25"
"071218","16:54:15","146376097","test","2","prime_negative","214","10","62","0","1397","52","24"
"071218","16:54:15","146376097","test","2","intention_check","215","10","62","0","2500","52","24"
"071218","16:54:15","146376097","test","2","prime_positive","216","1","120","1","1298","52","24"
"071218","16:54:15","146376097","test","2","intention_check","217","1","120","0","2500","52","24"
"071218","16:54:15","146376097","test","2","prime_positive","218","12","63","1","1665","53","24"
"071218","16:54:15","146376097","test","2","intention_check","219","12","63","1","407","53","24"
"071218","16:54:15","146376097","test","2","prime_positive","220","7","149","1","1742","54","24"
"071218","16:54:15","146376097","test","2","intention_check","221","7","149","1","730","54","24"
"071218","16:54:15","146376097","test","2","prime_positive","222","8","43","0","1340","53","24"
"071218","16:54:15","146376097","test","2","intention_check","223","8","43","0","2500","53","24"
"071218","16:54:15","146376097","test","2","prime_positive","224","4","3","0","1212","52","24"
"071218","16:54:15","146376097","test","2","intention_check","225","4","3","0","2500","52","24"
"071218","16:54:15","146376097","test","2","prime_positive","226","2","190","1","1210","53","24"
"071218","16:54:15","146376097","test","2","intention_check","227","2","190","0","2500","53","24"
"071218","16:54:15","146376097","test","2","prime_positive","228","5","155","1","1295","54","24"
"071218","16:54:15","146376097","test","2","intention_check","229","5","155","0","2500","54","24"
"071218","16:54:15","146376097","test","2","prime_positive","230","4","115","1","2335","55","24"
"071218","16:54:15","146376097","test","2","intention_check","231","4","115","0","2500","55","24"
"071218","16:54:15","146376097","test","2","prime_negative","232","11","21","0","1067","55","24"
"071218","16:54:15","146376097","test","2","intention_check","233","11","21","0","2500","55","24"
"071218","16:54:15","146376097","test","2","prime_positive","234","3","83","1","1290","55","24"
"071218","16:54:15","146376097","test","2","intention_check","235","3","83","1","461","55","24"
"071218","16:54:15","146376097","test","2","prime_negative","236","4","45","0","1546","55","23"
"071218","16:54:15","146376097","test","2","intention_check","237","4","45","0","2500","55","23"
"071218","16:54:15","146376097","test","2","prime_negative","238","12","44","0","1897","55","23"
"071218","16:54:15","146376097","test","2","intention_check","239","12","44","0","2500","55","23"
"071218","16:54:15","146376097","test","2","prime_positive","240","1","145","1","1334","56","23"
"071218","16:54:15","146376097","test","2","intention_check","241","1","145","1","573","56","23"
"071218","11:55:56","968375333","practice","1","prime_negative_practice","5","0","0","0","3572","0","0"
"071218","11:55:56","968375333","practice","1","intention_check_practice","6","0","0","0","2500","0","0"
"071218","11:55:56","968375333","practice","1","prime_negative_practice","7","0","0","0","6811","0","0"
"071218","11:55:56","968375333","practice","1","intention_check_practice","8","0","0","0","2500","0","0"
"071218","11:55:56","968375333","practice","1","prime_negative_practice","9","0","0","1","4842","0","0"
"071218","11:55:56","968375333","practice","1","intention_check_practice","10","0","0","0","2500","0","0"
"071218","11:55:56","968375333","practice","1","prime_positive_practice","11","0","0","1","1274","0","0"
"071218","11:55:56","968375333","practice","1","intention_check_practice","12","0","0","0","2500","0","0"
"071218","11:55:56","968375333","practice","1","prime_positive_practice","13","0","0","0","1366","0","0"
"071218","11:55:56","968375333","practice","1","intention_check_practice","14","0","0","1","695","0","0"
"071218","11:55:56","968375333","practice","1","prime_positive_practice","15","0","0","0","1094","0","0"
"071218","11:55:56","968375333","practice","1","intention_check_practice","16","0","0","0","2500","0","0"
"071218","11:55:56","968375333","practice","1","prime_negative_practice","17","0","0","0","2015","0","0"
"071218","11:55:56","968375333","practice","1","intention_check_practice","18","0","0","0","2500","0","0"
"071218","11:55:56","968375333","practice","1","prime_positive_practice","19","0","0","1","2071","0","0"
"071218","11:55:56","968375333","practice","1","intention_check_practice","20","0","0","1","1641","0","0"
"071218","11:55:56","968375333","practice","1","prime_positive_practice","21","0","0","0","2305","0","0"
"071218","11:55:56","968375333","practice","1","intention_check_practice","22","0","0","1","143","0","0"
"071218","11:55:56","968375333","practice","1","prime_negative_practice","23","0","0","0","1549","0","0"
"071218","11:55:56","968375333","practice","1","intention_check_practice","24","0","0","0","2500","0","0"
"071218","11:55:56","968375333","test","2","prime_positive","2","9","38","0","1921","0","0"
"071218","11:55:56","968375333","test","2","intention_check","3","9","38","1","757","0","0"
"071218","11:55:56","968375333","test","2","prime_negative","4","8","57","1","2611","0","100"
"071218","11:55:56","968375333","test","2","intention_check","5","8","57","1","260","0","100"
"071218","11:55:56","968375333","test","2","prime_negative","6","10","173","0","1191","0","50"
"071218","11:55:56","968375333","test","2","intention_check","7","10","173","1","1071","0","50"
"071218","11:55:56","968375333","test","2","prime_negative","8","3","87","0","760","0","33"
"071218","11:55:56","968375333","test","2","intention_check","9","3","87","0","2500","0","33"
"071218","11:55:56","968375333","test","2","prime_negative","10","11","81","0","819","0","25"
"071218","11:55:56","968375333","test","2","intention_check","11","11","81","1","1017","0","25"
"071218","11:55:56","968375333","test","2","prime_positive","12","11","198","1","6787","50","25"
"071218","11:55:56","968375333","test","2","intention_check","13","11","198","1","572","50","25"
"071218","11:55:56","968375333","test","2","prime_positive","14","2","182","1","710","66","25"
"071218","11:55:56","968375333","test","2","intention_check","15","2","182","1","121","66","25"
"071218","11:55:56","968375333","test","2","prime_positive","16","5","166","1","634","75","25"
"071218","11:55:56","968375333","test","2","intention_check","17","5","166","1","72","75","25"
"071218","11:55:56","968375333","test","2","prime_positive","18","12","153","0","759","60","25"
"071218","11:55:56","968375333","test","2","intention_check","19","12","153","1","106","60","25"
"071218","11:55:56","968375333","test","2","prime_negative","20","9","90","0","713","60","20"
"071218","11:55:56","968375333","test","2","intention_check","21","9","90","1","1411","60","20"
"071218","11:55:56","968375333","test","2","prime_positive","22","6","106","0","733","50","20"
"071218","11:55:56","968375333","test","2","intention_check","23","6","106","0","2500","50","20"
"071218","11:55:56","968375333","test","2","prime_negative","24","5","109","0","1655","50","16"
"071218","11:55:56","968375333","test","2","intention_check","25","5","109","1","670","50","16"
"071218","11:55:56","968375333","test","2","prime_positive","26","8","134","1","983","57","16"
"071218","11:55:56","968375333","test","2","intention_check","27","8","134","1","510","57","16"
"071218","11:55:56","968375333","test","2","prime_negative","28","1","20","1","656","57","28"
"071218","11:55:56","968375333","test","2","intention_check","29","1","20","0","2500","57","28"
"071218","11:55:56","968375333","test","2","prime_negative","30","7","31","1","2228","57","37"
"071218","11:55:56","968375333","test","2","intention_check","31","7","31","1","755","57","37"
"071218","11:55:56","968375333","test","2","prime_positive","32","10","49","1","573","62","37"
"071218","11:55:56","968375333","test","2","intention_check","33","10","49","1","62","62","37"
"071218","11:55:56","968375333","test","2","prime_positive","34","9","27","0","1259","55","37"
"071218","11:55:56","968375333","test","2","intention_check","35","9","27","1","649","55","37"
"071218","11:55:56","968375333","test","2","prime_negative","36","1","13","1","1275","55","44"
"071218","11:55:56","968375333","test","2","intention_check","37","1","13","1","256","55","44"
"071218","11:55:56","968375333","test","2","prime_positive","38","12","3","1","1162","60","44"
"071218","11:55:56","968375333","test","2","intention_check","39","12","3","1","219","60","44"
"071218","11:55:56","968375333","test","2","prime_positive","40","1","147","0","1017","54","44"
"071218","11:55:56","968375333","test","2","intention_check","41","1","147","1","657","54","44"
"071218","11:55:56","968375333","test","2","prime_positive","42","2","123","1","1600","58","44"
"071218","11:55:56","968375333","test","2","intention_check","43","2","123","0","2500","58","44"
"071218","11:55:56","968375333","test","2","prime_positive","44","3","128","0","1009","53","44"
"071218","11:55:56","968375333","test","2","intention_check","45","3","128","1","513","53","44"
"071218","11:55:56","968375333","test","2","prime_positive","46","11","55","1","1729","57","44"
"071218","11:55:56","968375333","test","2","intention_check","47","11","55","0","2500","57","44"
"071218","11:55:56","968375333","test","2","prime_positive","48","5","138","0","1460","53","44"
"071218","11:55:56","968375333","test","2","intention_check","49","5","138","1","539","53","44"
"071218","11:55:56","968375333","test","2","prime_negative","50","12","4","1","844","53","50"
"071218","11:55:56","968375333","test","2","intention_check","51","12","4","0","2500","53","50"
"071218","11:55:56","968375333","test","2","prime_negative","52","4","161","0","1211","53","45"
"071218","11:55:56","968375333","test","2","intention_check","53","4","161","1","555","53","45"
"071218","11:55:56","968375333","test","2","prime_positive","54","7","85","0","988","50","45"
"071218","11:55:56","968375333","test","2","intention_check","55","7","85","0","2500","50","45"
"071218","11:55:56","968375333","test","2","prime_negative","56","6","71","1","1590","50","50"
"071218","11:55:56","968375333","test","2","intention_check","57","6","71","1","910","50","50"
"071218","11:55:56","968375333","test","2","prime_positive","58","4","46","0","1941","47","50"
"071218","11:55:56","968375333","test","2","intention_check","59","4","46","0","2500","47","50"
"071218","11:55:56","968375333","test","2","prime_positive","60","8","70","1","493","50","50"
"071218","11:55:56","968375333","test","2","intention_check","61","8","70","1","472","50","50"
"071218","11:55:56","968375333","test","2","prime_negative","62","2","118","0","3963","50","46"
"071218","11:55:56","968375333","test","2","intention_check","63","2","118","0","2500","50","46"
"071218","11:55:56","968375333","test","2","prime_negative","64","5","168","0","4522","50","42"
"071218","11:55:56","968375333","test","2","intention_check","65","5","168","1","648","50","42"
"071218","11:55:56","968375333","test","2","prime_positive","66","6","186","0","1432","47","42"
"071218","11:55:56","968375333","test","2","intention_check","67","6","186","0","2500","47","42"
"071218","11:55:56","968375333","test","2","prime_negative","68","8","91","0","1887","47","40"
"071218","11:55:56","968375333","test","2","intention_check","69","8","91","1","932","47","40"
"071218","11:55:56","968375333","test","2","prime_negative","70","11","162","1","1126","47","43"
"071218","11:55:56","968375333","test","2","intention_check","71","11","162","1","81","47","43"
"071218","11:55:56","968375333","test","2","prime_positive","72","6","151","0","544","45","43"
"071218","11:55:56","968375333","test","2","intention_check","73","6","151","1","109","45","43"
"071218","11:55:56","968375333","test","2","prime_positive","74","12","189","1","891","47","43"
"071218","11:55:56","968375333","test","2","intention_check","75","12","189","1","128","47","43"
"071218","11:55:56","968375333","test","2","prime_positive","76","4","196","0","1118","45","43"
"071218","11:55:56","968375333","test","2","intention_check","77","4","196","1","88","45","43"
"071218","11:55:56","968375333","test","2","prime_positive","78","1","62","1","1274","47","43"
"071218","11:55:56","968375333","test","2","intention_check","79","1","62","0","2500","47","43"
"071218","11:55:56","968375333","test","2","prime_negative","80","9","30","1","4938","47","47"
"071218","11:55:56","968375333","test","2","intention_check","81","9","30","1","153","47","47"
"071218","11:55:56","968375333","test","2","prime_negative","82","10","163","0","815","47","44"
"071218","11:55:56","968375333","test","2","intention_check","83","10","163","0","2500","47","44"
"071218","11:55:56","968375333","test","2","prime_positive","84","5","47","1","1712","50","44"
"071218","11:55:56","968375333","test","2","intention_check","85","5","47","1","213","50","44"
"071218","11:55:56","968375333","test","2","prime_negative","86","3","178","1","1628","50","47"
"071218","11:55:56","968375333","test","2","intention_check","87","3","178","1","203","50","47"
"071218","11:55:56","968375333","test","2","prime_negative","88","2","140","0","1618","50","45"
"071218","11:55:56","968375333","test","2","intention_check","89","2","140","1","275","50","45"
"071218","11:55:56","968375333","test","2","prime_negative","90","3","150","1","5866","50","47"
"071218","11:55:56","968375333","test","2","intention_check","91","3","150","1","1351","50","47"
"071218","11:55:56","968375333","test","2","prime_positive","92","3","141","1","858","52","47"
"071218","11:55:56","968375333","test","2","intention_check","93","3","141","1","272","52","47"
"071218","11:55:56","968375333","test","2","prime_negative","94","11","1","0","3873","52","45"
"071218","11:55:56","968375333","test","2","intention_check","95","11","1","1","51","52","45"
"071218","11:55:56","968375333","test","2","prime_positive","96","8","93","0","2486","50","45"
"071218","11:55:56","968375333","test","2","intention_check","97","8","93","0","2500","50","45"
"071218","11:55:56","968375333","test","2","prime_negative","98","9","7","1","755","50","47"
"071218","11:55:56","968375333","test","2","intention_check","99","9","7","1","676","50","47"
"071218","11:55:56","968375333","test","2","prime_negative","100","7","45","1","606","50","50"
"071218","11:55:56","968375333","test","2","intention_check","101","7","45","1","589","50","50"
"071218","11:55:56","968375333","test","2","prime_positive","102","2","112","0","2457","48","50"
"071218","11:55:56","968375333","test","2","intention_check","103","2","112","1","832","48","50"
"071218","11:55:56","968375333","test","2","prime_negative","104","8","43","1","1479","48","52"
"071218","11:55:56","968375333","test","2","intention_check","105","8","43","1","635","48","52"
"071218","11:55:56","968375333","test","2","prime_positive","106","11","171","1","446","50","52"
"071218","11:55:56","968375333","test","2","intention_check","107","11","171","0","2500","50","52"
"071218","11:55:56","968375333","test","2","prime_negative","108","10","99","0","492","50","50"
"071218","11:55:56","968375333","test","2","intention_check","109","10","99","1","1717","50","50"
"071218","11:55:56","968375333","test","2","prime_negative","110","1","169","0","967","50","48"
"071218","11:55:56","968375333","test","2","intention_check","111","1","169","1","609","50","48"
"071218","11:55:56","968375333","test","2","prime_negative","112","4","74","0","705","50","46"
"071218","11:55:56","968375333","test","2","intention_check","113","4","74","1","565","50","46"
"071218","11:55:56","968375333","test","2","prime_positive","114","10","37","1","590","51","46"
"071218","11:55:56","968375333","test","2","intention_check","115","10","37","1","717","51","46"
"071218","11:55:56","968375333","test","2","prime_negative","116","12","137","1","576","51","48"
"071218","11:55:56","968375333","test","2","intention_check","117","12","137","1","232","51","48"
"071218","11:55:56","968375333","test","2","prime_negative","118","6","167","0","584","51","46"
"071218","11:55:56","968375333","test","2","intention_check","119","6","167","1","552","51","46"
"071218","11:55:56","968375333","test","2","prime_negative","120","5","108","1","1903","51","48"
"071218","11:55:56","968375333","test","2","intention_check","121","5","108","1","634","51","48"
"071218","11:55:56","968375333","test","2","prime_negative","122","5","131","1","461","51","50"
"071218","11:55:56","968375333","test","2","intention_check","123","5","131","1","161","51","50"
"071218","11:55:56","968375333","test","2","prime_negative","124","3","17","0","457","51","48"
"071218","11:55:56","968375333","test","2","intention_check","125","3","17","1","878","51","48"
"071218","11:55:56","968375333","test","2","prime_positive","126","7","36","1","488","53","48"
"071218","11:55:56","968375333","test","2","intention_check","127","7","36","1","563","53","48"
"071218","11:55:56","968375333","test","2","prime_negative","128","1","9","0","906","53","47"
"071218","11:55:56","968375333","test","2","intention_check","129","1","9","1","550","53","47"
"071218","11:55:56","968375333","test","2","prime_negative","130","4","181","0","366","53","45"
"071218","11:55:56","968375333","test","2","intention_check","131","4","181","0","2500","53","45"
"071218","11:55:56","968375333","test","2","prime_negative","132","6","199","0","1565","53","44"
"071218","11:55:56","968375333","test","2","intention_check","133","6","199","0","2500","53","44"
"071218","11:55:56","968375333","test","2","prime_positive","134","9","12","1","851","54","44"
"071218","11:55:56","968375333","test","2","intention_check","135","9","12","1","215","54","44"
"071218","11:55:56","968375333","test","2","prime_positive","136","11","170","1","974","56","44"
"071218","11:55:56","968375333","test","2","intention_check","137","11","170","0","2500","56","44"
"071218","11:55:56","968375333","test","2","prime_negative","138","2","33","0","600","56","43"
"071218","11:55:56","968375333","test","2","intention_check","139","2","33","1","289","56","43"
"071218","11:55:56","968375333","test","2","prime_negative","140","7","185","1","443","56","44"
"071218","11:55:56","968375333","test","2","intention_check","141","7","185","1","560","56","44"
"071218","11:55:56","968375333","test","2","prime_negative","142","8","88","1","1174","56","46"
"071218","11:55:56","968375333","test","2","intention_check","143","8","88","1","511","56","46"
"071218","11:55:56","968375333","test","2","prime_negative","144","12","6","0","1254","56","45"
"071218","11:55:56","968375333","test","2","intention_check","145","12","6","1","341","56","45"
"071218","11:55:56","968375333","test","2","prime_positive","146","5","22","1","654","57","45"
"071218","11:55:56","968375333","test","2","intention_check","147","5","22","1","323","57","45"
"071218","11:55:56","968375333","test","2","prime_positive","148","10","200","0","2232","55","45"
"071218","11:55:56","968375333","test","2","intention_check","149","10","200","1","192","55","45"
"071218","11:55:56","968375333","test","2","prime_positive","150","1","100","1","640","57","45"
"071218","11:55:56","968375333","test","2","intention_check","151","1","100","1","157","57","45"
"071218","11:55:56","968375333","test","2","prime_positive","152","7","52","1","392","58","45"
"071218","11:55:56","968375333","test","2","intention_check","153","7","52","1","111","58","45"
"071218","11:55:56","968375333","test","2","prime_positive","154","4","192","0","495","56","45"
"071218","11:55:56","968375333","test","2","intention_check","155","4","192","1","548","56","45"
"071218","11:55:56","968375333","test","2","prime_negative","156","11","96","0","541","56","43"
"071218","11:55:56","968375333","test","2","intention_check","157","11","96","1","208","56","43"
"071218","11:55:56","968375333","test","2","prime_positive","158","12","158","0","904","55","43"
"071218","11:55:56","968375333","test","2","intention_check","159","12","158","1","516","55","43"
"071218","11:55:56","968375333","test","2","prime_positive","160","8","50","1","471","56","43"
"071218","11:55:56","968375333","test","2","intention_check","161","8","50","1","259","56","43"
"071218","11:55:56","968375333","test","2","prime_negative","162","10","35","0","428","56","42"
"071218","11:55:56","968375333","test","2","intention_check","163","10","35","1","107","56","42"
"071218","11:55:56","968375333","test","2","prime_negative","164","9","102","0","420","56","41"
"071218","11:55:56","968375333","test","2","intention_check","165","9","102","1","196","56","41"
"071218","11:55:56","968375333","test","2","prime_negative","166","10","135","0","396","56","40"
"071218","11:55:56","968375333","test","2","intention_check","167","10","135","0","2500","56","40"
"071218","11:55:56","968375333","test","2","prime_positive","168","9","16","1","351","57","40"
"071218","11:55:56","968375333","test","2","intention_check","169","9","16","1","440","57","40"
"071218","11:55:56","968375333","test","2","prime_positive","170","6","14","0","345","56","40"
"071218","11:55:56","968375333","test","2","intention_check","171","6","14","1","452","56","40"
"071218","11:55:56","968375333","test","2","prime_negative","172","6","130","0","477","56","40"
"071218","11:55:56","968375333","test","2","intention_check","173","6","130","1","689","56","40"
"071218","11:55:56","968375333","test","2","prime_negative","174","4","145","1","2360","56","41"
"071218","11:55:56","968375333","test","2","intention_check","175","4","145","1","842","56","41"
"071218","11:55:56","968375333","test","2","prime_negative","176","3","165","0","435","56","40"
"071218","11:55:56","968375333","test","2","intention_check","177","3","165","1","266","56","40"
"071218","11:55:56","968375333","test","2","prime_positive","178","3","94","1","675","57","40"
"071218","11:55:56","968375333","test","2","intention_check","179","3","94","1","152","57","40"
"071218","11:55:56","968375333","test","2","prime_positive","180","2","191","1","552","58","40"
"071218","11:55:56","968375333","test","2","intention_check","181","2","191","1","665","58","40"
"071218","11:55:56","968375333","test","2","prime_negative","182","11","76","0","960","58","39"
"071218","11:55:56","968375333","test","2","intention_check","183","11","76","1","674","58","39"
"071218","11:55:56","968375333","test","2","prime_positive","184","10","190","1","684","59","39"
"071218","11:55:56","968375333","test","2","intention_check","185","10","190","1","838","59","39"
"071218","11:55:56","968375333","test","2","prime_positive","186","5","177","1","1112","60","39"
"071218","11:55:56","968375333","test","2","intention_check","187","5","177","1","156","60","39"
"071218","11:55:56","968375333","test","2","prime_negative","188","9","24","0","990","60","38"
"071218","11:55:56","968375333","test","2","intention_check","189","9","24","1","1030","60","38"
"071218","11:55:56","968375333","test","2","prime_negative","190","1","111","0","1605","60","38"
"071218","11:55:56","968375333","test","2","intention_check","191","1","111","1","805","60","38"
"071218","11:55:56","968375333","test","2","prime_negative","192","2","101","0","367","60","37"
"071218","11:55:56","968375333","test","2","intention_check","193","2","101","1","983","60","37"
"071218","11:55:56","968375333","test","2","prime_negative","194","8","113","1","562","60","38"
"071218","11:55:56","968375333","test","2","intention_check","195","8","113","1","514","60","38"
"071218","11:55:56","968375333","test","2","prime_negative","196","12","144","0","825","60","37"
"071218","11:55:56","968375333","test","2","intention_check","197","12","144","1","218","60","37"
"071218","11:55:56","968375333","test","2","prime_positive","198","12","103","0","328","58","37"
"071218","11:55:56","968375333","test","2","intention_check","199","12","103","1","228","58","37"
"071218","11:55:56","968375333","test","2","prime_negative","200","7","157","1","413","58","38"
"071218","11:55:56","968375333","test","2","intention_check","201","7","157","1","491","58","38"
"071218","11:55:56","968375333","test","2","prime_negative","202","5","86","1","525","58","40"
"071218","11:55:56","968375333","test","2","intention_check","203","5","86","1","1716","58","40"
"071218","11:55:56","968375333","test","2","prime_negative","204","7","89","0","623","58","39"
"071218","11:55:56","968375333","test","2","intention_check","205","7","89","0","2500","58","39"
"071218","11:55:56","968375333","test","2","prime_positive","206","6","42","0","472","57","39"
"071218","11:55:56","968375333","test","2","intention_check","207","6","42","1","677","57","39"
"071218","11:55:56","968375333","test","2","prime_negative","208","6","8","1","926","57","40"
"071218","11:55:56","968375333","test","2","intention_check","209","6","8","1","720","57","40"
"071218","11:55:56","968375333","test","2","prime_negative","210","8","129","0","857","57","39"
"071218","11:55:56","968375333","test","2","intention_check","211","8","129","1","255","57","39"
"071218","11:55:56","968375333","test","2","prime_positive","212","8","155","1","3308","58","39"
"071218","11:55:56","968375333","test","2","intention_check","213","8","155","1","728","58","39"
"071218","11:55:56","968375333","test","2","prime_positive","214","4","152","1","1266","59","39"
"071218","11:55:56","968375333","test","2","intention_check","215","4","152","1","303","59","39"
"071218","11:55:56","968375333","test","2","prime_positive","216","1","75","1","537","60","39"
"071218","11:55:56","968375333","test","2","intention_check","217","1","75","1","227","60","39"
"071218","11:55:56","968375333","test","2","prime_negative","218","9","44","1","2665","60","40"
"071218","11:55:56","968375333","test","2","intention_check","219","9","44","1","173","60","40"
"071218","11:55:56","968375333","test","2","prime_positive","220","11","67","0","2268","58","40"
"071218","11:55:56","968375333","test","2","intention_check","221","11","67","1","451","58","40"
"071218","11:55:56","968375333","test","2","prime_negative","222","12","48","1","9196","58","41"
"071218","11:55:56","968375333","test","2","intention_check","223","12","48","1","139","58","41"
"071218","11:55:56","968375333","test","2","prime_positive","224","3","25","0","444","57","41"
"071218","11:55:56","968375333","test","2","intention_check","225","3","25","1","243","57","41"
