"date","time","subject","blockcode","blocknum","trialcode","trialnum","values.primestim","values.targetstim","correct","latency","trial.prime_positive.totalpercentcorrect","trial.prime_negative.totalpercentcorrect"
"071218","15:14:29","148697371","practice","1","prime_negative_practice","5","0","0","0","3580","0","0"
"071218","15:14:29","148697371","practice","1","intention_check_practice","6","0","0","1","2222","0","0"
"071218","15:14:29","148697371","practice","1","prime_positive_practice","7","0","0","1","1240","0","0"
"071218","15:14:29","148697371","practice","1","intention_check_practice","8","0","0","1","710","0","0"
"071218","15:14:29","148697371","practice","1","prime_negative_practice","9","0","0","0","1040","0","0"
"071218","15:14:29","148697371","practice","1","intention_check_practice","10","0","0","1","1830","0","0"
"071218","15:14:29","148697371","practice","1","prime_negative_practice","11","0","0","0","962","0","0"
"071218","15:14:29","148697371","practice","1","intention_check_practice","12","0","0","1","570","0","0"
"071218","15:14:29","148697371","practice","1","prime_positive_practice","13","0","0","1","853","0","0"
"071218","15:14:29","148697371","practice","1","intention_check_practice","14","0","0","0","2500","0","0"
"071218","15:14:29","148697371","practice","1","prime_positive_practice","15","0","0","1","1884","0","0"
"071218","15:14:29","148697371","practice","1","intention_check_practice","16","0","0","1","672","0","0"
"071218","15:14:29","148697371","practice","1","prime_negative_practice","17","0","0","0","1786","0","0"
"071218","15:14:29","148697371","practice","1","intention_check_practice","18","0","0","1","643","0","0"
"071218","15:14:29","148697371","practice","1","prime_positive_practice","19","0","0","1","621","0","0"
"071218","15:14:29","148697371","practice","1","intention_check_practice","20","0","0","1","275","0","0"
"071218","15:14:29","148697371","practice","1","prime_negative_practice","21","0","0","0","670","0","0"
"071218","15:14:29","148697371","practice","1","intention_check_practice","22","0","0","1","1747","0","0"
"071218","15:14:29","148697371","practice","1","prime_positive_practice","23","0","0","1","3581","0","0"
"071218","15:14:29","148697371","practice","1","intention_check_practice","24","0","0","0","2500","0","0"
"071218","15:14:29","148697371","test","2","prime_positive","2","4","139","1","1236","100","0"
"071218","15:14:29","148697371","test","2","intention_check","3","4","139","0","2500","100","0"
"071218","15:14:29","148697371","test","2","prime_positive","4","10","168","1","1917","100","0"
"071218","15:14:29","148697371","test","2","intention_check","5","10","168","1","480","100","0"
"071218","15:14:29","148697371","test","2","prime_positive","6","8","2","1","2618","100","0"
"071218","15:14:29","148697371","test","2","intention_check","7","8","2","1","482","100","0"
"071218","15:14:29","148697371","test","2","prime_negative","8","12","40","0","1948","100","0"
"071218","15:14:29","148697371","test","2","intention_check","9","12","40","1","622","100","0"
"071218","15:14:29","148697371","test","2","prime_positive","10","3","58","1","984","100","0"
"071218","15:14:29","148697371","test","2","intention_check","11","3","58","1","672","100","0"
"071218","15:14:29","148697371","test","2","prime_positive","12","6","103","1","586","100","0"
"071218","15:14:29","148697371","test","2","intention_check","13","6","103","1","498","100","0"
"071218","15:14:29","148697371","test","2","prime_negative","14","1","69","0","2268","100","0"
"071218","15:14:29","148697371","test","2","intention_check","15","1","69","1","529","100","0"
"071218","15:14:29","148697371","test","2","prime_positive","16","7","61","1","1997","100","0"
"071218","15:14:29","148697371","test","2","intention_check","17","7","61","1","2189","100","0"
"071218","15:14:29","148697371","test","2","prime_negative","18","9","199","0","1576","100","0"
"071218","15:14:29","148697371","test","2","intention_check","19","9","199","1","665","100","0"
"071218","15:14:29","148697371","test","2","prime_positive","20","2","98","1","611","100","0"
"071218","15:14:29","148697371","test","2","intention_check","21","2","98","1","283","100","0"
"071218","15:14:29","148697371","test","2","prime_positive","22","9","43","1","741","100","0"
"071218","15:14:29","148697371","test","2","intention_check","23","9","43","1","359","100","0"
"071218","15:14:29","148697371","test","2","prime_negative","24","4","48","0","770","100","0"
"071218","15:14:29","148697371","test","2","intention_check","25","4","48","1","179","100","0"
"071218","15:14:29","148697371","test","2","prime_negative","26","11","164","1","2525","100","20"
"071218","15:14:29","148697371","test","2","intention_check","27","11","164","0","2500","100","20"
"071218","15:14:29","148697371","test","2","prime_positive","28","7","117","1","691","100","20"
"071218","15:14:29","148697371","test","2","intention_check","29","7","117","1","519","100","20"
"071218","15:14:29","148697371","test","2","prime_negative","30","6","83","0","2401","100","16"
"071218","15:14:29","148697371","test","2","intention_check","31","6","83","1","641","100","16"
"071218","15:14:29","148697371","test","2","prime_negative","32","7","114","0","1340","100","14"
"071218","15:14:29","148697371","test","2","intention_check","33","7","114","1","710","100","14"
"071218","15:14:29","148697371","test","2","prime_negative","34","9","115","0","753","100","12"
"071218","15:14:29","148697371","test","2","intention_check","35","9","115","1","434","100","12"
"071218","15:14:29","148697371","test","2","prime_negative","36","7","136","0","797","100","11"
"071218","15:14:29","148697371","test","2","intention_check","37","7","136","1","285","100","11"
"071218","15:14:29","148697371","test","2","prime_negative","38","11","11","0","2967","100","10"
"071218","15:14:29","148697371","test","2","intention_check","39","11","11","0","2500","100","10"
"071218","15:14:29","148697371","test","2","prime_positive","40","3","161","1","459","100","10"
"071218","15:14:29","148697371","test","2","intention_check","41","3","161","1","312","100","10"
"071218","15:14:29","148697371","test","2","prime_positive","42","4","77","1","1155","100","10"
"071218","15:14:29","148697371","test","2","intention_check","43","4","77","1","532","100","10"
"071218","15:14:29","148697371","test","2","prime_negative","44","6","126","0","895","100","9"
"071218","15:14:29","148697371","test","2","intention_check","45","6","126","1","251","100","9"
"071218","15:14:29","148697371","test","2","prime_positive","46","8","1","1","582","100","9"
"071218","15:14:29","148697371","test","2","intention_check","47","8","1","1","302","100","9"
"071218","15:14:29","148697371","test","2","prime_negative","48","1","192","0","463","100","8"
"071218","15:14:29","148697371","test","2","intention_check","49","1","192","1","454","100","8"
"071218","15:14:29","148697371","test","2","prime_negative","50","2","186","0","593","100","7"
"071218","15:14:29","148697371","test","2","intention_check","51","2","186","1","297","100","7"
"071218","15:14:29","148697371","test","2","prime_positive","52","12","63","1","1140","100","7"
"071218","15:14:29","148697371","test","2","intention_check","53","12","63","0","2500","100","7"
"071218","15:14:29","148697371","test","2","prime_positive","54","2","150","1","1248","100","7"
"071218","15:14:29","148697371","test","2","intention_check","55","2","150","1","558","100","7"
"071218","15:14:29","148697371","test","2","prime_positive","56","1","19","1","345","100","7"
"071218","15:14:29","148697371","test","2","intention_check","57","1","19","1","266","100","7"
"071218","15:14:29","148697371","test","2","prime_negative","58","5","148","0","518","100","7"
"071218","15:14:29","148697371","test","2","intention_check","59","5","148","1","384","100","7"
"071218","15:14:29","148697371","test","2","prime_negative","60","12","38","0","603","100","6"
"071218","15:14:29","148697371","test","2","intention_check","61","12","38","1","258","100","6"
"071218","15:14:29","148697371","test","2","prime_positive","62","10","36","1","1405","100","6"
"071218","15:14:29","148697371","test","2","intention_check","63","10","36","1","357","100","6"
"071218","15:14:29","148697371","test","2","prime_positive","64","11","132","1","831","100","6"
"071218","15:14:29","148697371","test","2","intention_check","65","11","132","1","462","100","6"
"071218","15:14:29","148697371","test","2","prime_positive","66","6","64","1","329","100","6"
"071218","15:14:29","148697371","test","2","intention_check","67","6","64","1","315","100","6"
"071218","15:14:29","148697371","test","2","prime_negative","68","10","154","0","1335","100","6"
"071218","15:14:29","148697371","test","2","intention_check","69","10","154","1","913","100","6"
"071218","15:14:29","148697371","test","2","prime_negative","70","4","198","0","764","100","5"
"071218","15:14:29","148697371","test","2","intention_check","71","4","198","1","413","100","5"
"071218","15:14:29","148697371","test","2","prime_positive","72","5","87","1","1655","100","5"
"071218","15:14:29","148697371","test","2","intention_check","73","5","87","1","1060","100","5"
"071218","15:14:29","148697371","test","2","prime_positive","74","10","56","1","784","100","5"
"071218","15:14:29","148697371","test","2","intention_check","75","10","56","1","527","100","5"
"071218","15:14:29","148697371","test","2","prime_positive","76","1","137","1","394","100","5"
"071218","15:14:29","148697371","test","2","intention_check","77","1","137","1","362","100","5"
"071218","15:14:29","148697371","test","2","prime_positive","78","9","128","1","405","100","5"
"071218","15:14:29","148697371","test","2","intention_check","79","9","128","1","820","100","5"
"071218","15:14:29","148697371","test","2","prime_negative","80","3","158","0","2094","100","5"
"071218","15:14:29","148697371","test","2","intention_check","81","3","158","1","1339","100","5"
"071218","15:14:29","148697371","test","2","prime_negative","82","8","49","0","2197","100","5"
"071218","15:14:29","148697371","test","2","intention_check","83","8","49","1","302","100","5"
"071218","15:14:29","148697371","test","2","prime_negative","84","12","72","0","473","100","5"
"071218","15:14:29","148697371","test","2","intention_check","85","12","72","1","181","100","5"
"071218","15:14:29","148697371","test","2","prime_positive","86","7","194","1","545","100","5"
"071218","15:14:29","148697371","test","2","intention_check","87","7","194","1","234","100","5"
"071218","15:14:29","148697371","test","2","prime_negative","88","10","174","0","485","100","4"
"071218","15:14:29","148697371","test","2","intention_check","89","10","174","1","545","100","4"
"071218","15:14:29","148697371","test","2","prime_positive","90","3","68","1","604","100","4"
"071218","15:14:29","148697371","test","2","intention_check","91","3","68","1","243","100","4"
"071218","15:14:29","148697371","test","2","prime_positive","92","2","73","1","622","100","4"
"071218","15:14:29","148697371","test","2","intention_check","93","2","73","1","532","100","4"
"071218","15:14:29","148697371","test","2","prime_positive","94","5","134","1","415","100","4"
"071218","15:14:29","148697371","test","2","intention_check","95","5","134","1","254","100","4"
"071218","15:14:29","148697371","test","2","prime_positive","96","6","47","1","345","100","4"
"071218","15:14:29","148697371","test","2","intention_check","97","6","47","1","123","100","4"
"071218","15:14:29","148697371","test","2","prime_positive","98","12","18","1","518","100","4"
"071218","15:14:29","148697371","test","2","intention_check","99","12","18","1","1584","100","4"
"071218","15:14:29","148697371","test","2","prime_positive","100","4","113","1","572","100","4"
"071218","15:14:29","148697371","test","2","intention_check","101","4","113","1","436","100","4"
"071218","15:14:29","148697371","test","2","prime_negative","102","9","8","0","559","100","4"
"071218","15:14:29","148697371","test","2","intention_check","103","9","8","1","184","100","4"
"071218","15:14:29","148697371","test","2","prime_negative","104","5","125","0","419","100","4"
"071218","15:14:29","148697371","test","2","intention_check","105","5","125","1","145","100","4"
"071218","15:14:29","148697371","test","2","prime_negative","106","4","32","0","428","100","4"
"071218","15:14:29","148697371","test","2","intention_check","107","4","32","1","107","100","4"
"071218","15:14:29","148697371","test","2","prime_negative","108","7","78","0","709","100","4"
"071218","15:14:29","148697371","test","2","intention_check","109","7","78","1","137","100","4"
"071218","15:14:29","148697371","test","2","prime_negative","110","6","12","0","467","100","3"
"071218","15:14:29","148697371","test","2","intention_check","111","6","12","1","112","100","3"
"071218","15:14:29","148697371","test","2","prime_negative","112","2","44","0","459","100","3"
"071218","15:14:29","148697371","test","2","intention_check","113","2","44","1","120","100","3"
"071218","15:14:29","148697371","test","2","prime_negative","114","3","16","0","595","100","3"
"071218","15:14:29","148697371","test","2","intention_check","115","3","16","1","138","100","3"
"071218","15:14:29","148697371","test","2","prime_negative","116","8","123","0","517","100","3"
"071218","15:14:29","148697371","test","2","intention_check","117","8","123","1","48","100","3"
"071218","15:14:29","148697371","test","2","prime_negative","118","11","165","0","666","100","3"
"071218","15:14:29","148697371","test","2","intention_check","119","11","165","1","79","100","3"
"071218","15:14:29","148697371","test","2","prime_negative","120","1","140","0","842","100","3"
"071218","15:14:29","148697371","test","2","intention_check","121","1","140","1","40","100","3"
"071218","15:14:29","148697371","test","2","prime_negative","122","10","35","0","323","100","3"
"071218","15:14:29","148697371","test","2","intention_check","123","10","35","1","21","100","3"
"071218","15:14:29","148697371","test","2","prime_negative","124","6","23","0","400","100","3"
"071218","15:14:29","148697371","test","2","intention_check","125","6","23","1","63","100","3"
"071218","15:14:29","148697371","test","2","prime_negative","126","8","119","0","458","100","2"
"071218","15:14:29","148697371","test","2","intention_check","127","8","119","1","7","100","2"
"071218","15:14:29","148697371","test","2","prime_positive","128","11","142","1","722","100","2"
"071218","15:14:29","148697371","test","2","intention_check","129","11","142","1","100","100","2"
"071218","15:14:29","148697371","test","2","prime_negative","130","4","163","0","399","100","2"
"071218","15:14:29","148697371","test","2","intention_check","131","4","163","1","78","100","2"
"071218","15:14:29","148697371","test","2","prime_negative","132","2","92","0","761","100","2"
"071218","15:14:29","148697371","test","2","intention_check","133","2","92","1","123","100","2"
"071218","15:14:29","148697371","test","2","prime_positive","134","8","57","1","406","100","2"
"071218","15:14:29","148697371","test","2","intention_check","135","8","57","1","85","100","2"
"071218","15:14:29","148697371","test","2","prime_positive","136","10","93","1","272","100","2"
"071218","15:14:29","148697371","test","2","intention_check","137","10","93","1","85","100","2"
"071218","15:14:29","148697371","test","2","prime_negative","138","11","191","0","304","100","2"
"071218","15:14:29","148697371","test","2","intention_check","139","11","191","1","83","100","2"
"071218","15:14:29","148697371","test","2","prime_positive","140","9","15","1","415","100","2"
"071218","15:14:29","148697371","test","2","intention_check","141","9","15","1","62","100","2"
"071218","15:14:29","148697371","test","2","prime_positive","142","4","122","1","425","100","2"
"071218","15:14:29","148697371","test","2","intention_check","143","4","122","1","56","100","2"
"071218","15:14:29","148697371","test","2","prime_negative","144","9","173","1","434","100","5"
"071218","15:14:29","148697371","test","2","intention_check","145","9","173","1","80","100","5"
"071218","15:14:29","148697371","test","2","prime_negative","146","1","157","0","1324","100","5"
"071218","15:14:29","148697371","test","2","intention_check","147","1","157","1","54","100","5"
"071218","15:14:29","148697371","test","2","prime_negative","148","7","59","0","930","100","5"
"071218","15:14:29","148697371","test","2","intention_check","149","7","59","1","60","100","5"
"071218","15:14:29","148697371","test","2","prime_positive","150","3","185","1","551","100","5"
"071218","15:14:29","148697371","test","2","intention_check","151","3","185","1","48","100","5"
"071218","15:14:29","148697371","test","2","prime_negative","152","5","111","0","620","100","4"
"071218","15:14:29","148697371","test","2","intention_check","153","5","111","1","978","100","4"
"071218","15:14:29","148697371","test","2","prime_negative","154","3","24","0","814","100","4"
"071218","15:14:29","148697371","test","2","intention_check","155","3","24","1","397","100","4"
"071218","15:14:29","148697371","test","2","prime_positive","156","7","96","1","680","100","4"
"071218","15:14:29","148697371","test","2","intention_check","157","7","96","1","189","100","4"
"071218","15:14:29","148697371","test","2","prime_positive","158","5","97","1","616","100","4"
"071218","15:14:29","148697371","test","2","intention_check","159","5","97","1","142","100","4"
"071218","15:14:29","148697371","test","2","prime_negative","160","12","146","0","362","100","4"
"071218","15:14:29","148697371","test","2","intention_check","161","12","146","1","123","100","4"
"071218","15:14:29","148697371","test","2","prime_positive","162","11","107","1","311","100","4"
"071218","15:14:29","148697371","test","2","intention_check","163","11","107","1","73","100","4"
"071218","15:14:29","148697371","test","2","prime_positive","164","1","7","1","517","100","4"
"071218","15:14:29","148697371","test","2","intention_check","165","1","7","1","31","100","4"
"071218","15:14:29","148697371","test","2","prime_negative","166","4","90","0","410","100","4"
"071218","15:14:29","148697371","test","2","intention_check","167","4","90","1","89","100","4"
"071218","15:14:29","148697371","test","2","prime_positive","168","8","156","1","533","100","4"
"071218","15:14:29","148697371","test","2","intention_check","169","8","156","1","111","100","4"
"071218","15:14:29","148697371","test","2","prime_positive","170","2","179","1","442","100","4"
"071218","15:14:29","148697371","test","2","intention_check","171","2","179","1","88","100","4"
"071218","15:14:29","148697371","test","2","prime_negative","172","6","133","0","499","100","4"
"071218","15:14:29","148697371","test","2","intention_check","173","6","133","1","127","100","4"
"071218","15:14:29","148697371","test","2","prime_negative","174","12","10","0","410","100","4"
"071218","15:14:29","148697371","test","2","intention_check","175","12","10","1","121","100","4"
"071218","15:14:29","148697371","test","2","prime_positive","176","6","177","1","516","100","4"
"071218","15:14:29","148697371","test","2","intention_check","177","6","177","1","111","100","4"
"071218","15:14:29","148697371","test","2","prime_negative","178","3","25","0","426","100","4"
"071218","15:14:29","148697371","test","2","intention_check","179","3","25","1","56","100","4"
"071218","15:14:29","148697371","test","2","prime_negative","180","5","100","0","307","100","4"
"071218","15:14:29","148697371","test","2","intention_check","181","5","100","1","70","100","4"
"071218","15:14:29","148697371","test","2","prime_positive","182","12","105","1","1441","100","4"
"071218","15:14:29","148697371","test","2","intention_check","183","12","105","0","2500","100","4"
"071218","15:14:29","148697371","test","2","prime_positive","184","8","54","1","1538","100","4"
"071218","15:14:29","148697371","test","2","intention_check","185","8","54","1","420","100","4"
"071218","15:14:29","148697371","test","2","prime_negative","186","7","74","0","639","100","4"
"071218","15:14:29","148697371","test","2","intention_check","187","7","74","1","277","100","4"
"071218","15:14:29","148697371","test","2","prime_positive","188","4","71","0","2304","97","4"
"071218","15:14:29","148697371","test","2","intention_check","189","4","71","0","2500","97","4"
"071218","15:14:29","148697371","test","2","prime_positive","190","7","79","1","1135","97","4"
"071218","15:14:29","148697371","test","2","intention_check","191","7","79","0","2500","97","4"
"071218","15:14:29","148697371","test","2","prime_positive","192","6","152","1","1019","97","4"
"071218","15:14:29","148697371","test","2","intention_check","193","6","152","1","498","97","4"
"071218","15:14:29","148697371","test","2","prime_negative","194","9","80","0","765","97","4"
"071218","15:14:29","148697371","test","2","intention_check","195","9","80","1","1342","97","4"
"071218","15:14:29","148697371","test","2","prime_positive","196","9","175","1","1418","97","4"
"071218","15:14:29","148697371","test","2","intention_check","197","9","175","0","2500","97","4"
"071218","15:14:29","148697371","test","2","prime_positive","198","2","51","1","1531","97","4"
"071218","15:14:29","148697371","test","2","intention_check","199","2","51","1","910","97","4"
"071218","15:14:29","148697371","test","2","prime_negative","200","11","65","0","2057","97","3"
"071218","15:14:29","148697371","test","2","intention_check","201","11","65","1","679","97","3"
"071218","15:14:29","148697371","test","2","prime_positive","202","5","34","0","1010","96","3"
"071218","15:14:29","148697371","test","2","intention_check","203","5","34","0","2500","96","3"
"071218","15:14:29","148697371","test","2","prime_negative","204","2","62","0","1252","96","3"
"071218","15:14:29","148697371","test","2","intention_check","205","2","62","1","145","96","3"
"071218","15:14:29","148697371","test","2","prime_positive","206","1","30","1","796","96","3"
"071218","15:14:29","148697371","test","2","intention_check","207","1","30","1","540","96","3"
"071218","15:14:29","148697371","test","2","prime_positive","208","12","176","1","663","96","3"
"071218","15:14:29","148697371","test","2","intention_check","209","12","176","1","445","96","3"
"071218","15:14:29","148697371","test","2","prime_negative","210","8","120","0","2744","96","3"
"071218","15:14:29","148697371","test","2","intention_check","211","8","120","1","107","96","3"
"071218","15:14:29","148697371","test","2","prime_negative","212","10","130","0","550","96","3"
"071218","15:14:29","148697371","test","2","intention_check","213","10","130","1","47","96","3"
"071218","15:14:29","148697371","test","2","prime_positive","214","10","9","1","1643","96","3"
"071218","15:14:29","148697371","test","2","intention_check","215","10","9","0","2500","96","3"
"071218","15:14:29","148697371","test","2","prime_negative","216","1","42","0","2244","96","3"
"071218","15:14:29","148697371","test","2","intention_check","217","1","42","1","602","96","3"
"071218","15:14:29","148697371","test","2","prime_negative","218","5","109","1","1638","96","5"
"071218","15:14:29","148697371","test","2","intention_check","219","5","109","0","2500","96","5"
"071218","15:14:29","148697371","test","2","prime_positive","220","11","14","1","2062","96","5"
"071218","15:14:29","148697371","test","2","intention_check","221","11","14","1","124","96","5"
"071218","15:14:29","148697371","test","2","prime_positive","222","3","188","1","1016","96","5"
"071218","15:14:29","148697371","test","2","intention_check","223","3","188","1","1518","96","5"
"071218","15:14:29","148697371","test","2","prime_positive","224","10","160","1","858","96","5"
"071218","15:14:29","148697371","test","2","intention_check","225","10","160","0","2500","96","5"
"071218","15:14:29","148697371","test","2","prime_positive","226","12","195","1","1553","96","5"
"071218","15:14:29","148697371","test","2","intention_check","227","12","195","0","2500","96","5"
"071218","15:14:29","148697371","test","2","prime_negative","228","3","189","0","1501","96","5"
"071218","15:14:29","148697371","test","2","intention_check","229","3","189","1","705","96","5"
"071218","15:14:29","148697371","test","2","prime_positive","230","3","27","1","860","96","5"
"071218","15:14:29","148697371","test","2","intention_check","231","3","27","1","265","96","5"
"071218","15:14:29","148697371","test","2","prime_negative","232","4","184","0","1140","96","5"
"071218","15:14:29","148697371","test","2","intention_check","233","4","184","1","70","96","5"
"071218","15:14:29","148697371","test","2","prime_positive","234","7","95","1","1489","96","5"
"071218","15:14:29","148697371","test","2","intention_check","235","7","95","0","2500","96","5"
"071218","15:14:29","148697371","test","2","prime_positive","236","9","104","1","816","96","5"
"071218","15:14:29","148697371","test","2","intention_check","237","9","104","0","2500","96","5"
"071218","15:14:29","148697371","test","2","prime_negative","238","12","84","0","1512","96","5"
"071218","15:14:29","148697371","test","2","intention_check","239","12","84","0","2500","96","5"
"071218","15:14:29","148697371","test","2","prime_negative","240","1","53","0","1366","96","5"
"071218","15:14:29","148697371","test","2","intention_check","241","1","53","1","383","96","5"
"071218","15:13:32","787416013","practice","1","prime_negative_practice","5","0","0","1","1134","0","0"
"071218","15:13:32","787416013","practice","1","intention_check_practice","6","0","0","0","2500","0","0"
"071218","15:13:32","787416013","practice","1","prime_positive_practice","7","0","0","1","590","0","0"
"071218","15:13:32","787416013","practice","1","intention_check_practice","8","0","0","0","2500","0","0"
"071218","15:13:32","787416013","practice","1","prime_negative_practice","9","0","0","1","542","0","0"
"071218","15:13:32","787416013","practice","1","intention_check_practice","10","0","0","0","2500","0","0"
"071218","15:13:32","787416013","practice","1","prime_negative_practice","11","0","0","1","1194","0","0"
"071218","15:13:32","787416013","practice","1","intention_check_practice","12","0","0","0","2500","0","0"
"071218","15:13:32","787416013","practice","1","prime_positive_practice","13","0","0","0","766","0","0"
"071218","15:13:32","787416013","practice","1","intention_check_practice","14","0","0","0","2500","0","0"
"071218","15:13:32","787416013","practice","1","prime_positive_practice","15","0","0","0","642","0","0"
"071218","15:13:32","787416013","practice","1","intention_check_practice","16","0","0","0","2500","0","0"
"071218","15:13:32","787416013","practice","1","prime_positive_practice","17","0","0","1","621","0","0"
"071218","15:13:32","787416013","practice","1","intention_check_practice","18","0","0","0","2500","0","0"
"071218","15:13:32","787416013","practice","1","prime_negative_practice","19","0","0","0","471","0","0"
"071218","15:13:32","787416013","practice","1","intention_check_practice","20","0","0","0","2500","0","0"
"071218","15:13:32","787416013","practice","1","prime_positive_practice","21","0","0","1","582","0","0"
"071218","15:13:32","787416013","practice","1","intention_check_practice","22","0","0","0","2500","0","0"
"071218","15:13:32","787416013","practice","1","prime_negative_practice","23","0","0","0","850","0","0"
"071218","15:13:32","787416013","practice","1","intention_check_practice","24","0","0","0","2500","0","0"
"071218","15:13:32","787416013","test","2","prime_negative","2","7","34","0","694","0","0"
"071218","15:13:32","787416013","test","2","intention_check","3","7","34","0","2500","0","0"
"071218","15:13:32","787416013","test","2","prime_negative","4","10","82","0","645","0","0"
"071218","15:13:32","787416013","test","2","intention_check","5","10","82","0","2500","0","0"
"071218","15:13:32","787416013","test","2","prime_positive","6","10","155","1","581","100","0"
"071218","15:13:32","787416013","test","2","intention_check","7","10","155","0","2500","100","0"
"071218","15:13:32","787416013","test","2","prime_negative","8","4","164","0","717","100","0"
"071218","15:13:32","787416013","test","2","intention_check","9","4","164","0","2500","100","0"
"071218","15:13:32","787416013","test","2","prime_positive","10","7","116","1","459","100","0"
"071218","15:13:32","787416013","test","2","intention_check","11","7","116","0","2500","100","0"
"071218","15:13:32","787416013","test","2","prime_negative","12","6","5","0","838","100","0"
"071218","15:13:32","787416013","test","2","intention_check","13","6","5","0","2500","100","0"
"071218","15:13:32","787416013","test","2","prime_positive","14","6","36","0","694","66","0"
"071218","15:13:32","787416013","test","2","intention_check","15","6","36","0","2500","66","0"
"071218","15:13:32","787416013","test","2","prime_negative","16","8","195","0","830","66","0"
"071218","15:13:32","787416013","test","2","intention_check","17","8","195","0","2500","66","0"
"071218","15:13:32","787416013","test","2","prime_negative","18","12","8","1","659","66","16"
"071218","15:13:32","787416013","test","2","intention_check","19","12","8","0","2500","66","16"
"071218","15:13:32","787416013","test","2","prime_negative","20","5","159","0","777","66","14"
"071218","15:13:32","787416013","test","2","intention_check","21","5","159","0","2500","66","14"
"071218","15:13:32","787416013","test","2","prime_negative","22","12","177","1","771","66","25"
"071218","15:13:32","787416013","test","2","intention_check","23","12","177","0","2500","66","25"
"071218","15:13:32","787416013","test","2","prime_positive","24","4","183","0","787","50","25"
"071218","15:13:32","787416013","test","2","intention_check","25","4","183","0","2500","50","25"
"071218","15:13:32","787416013","test","2","prime_positive","26","5","38","1","647","60","25"
"071218","15:13:32","787416013","test","2","intention_check","27","5","38","0","2500","60","25"
"071218","15:13:32","787416013","test","2","prime_negative","28","6","42","0","840","60","22"
"071218","15:13:32","787416013","test","2","intention_check","29","6","42","0","2500","60","22"
"071218","15:13:32","787416013","test","2","prime_negative","30","10","131","0","791","60","20"
"071218","15:13:32","787416013","test","2","intention_check","31","10","131","0","2500","60","20"
"071218","15:13:32","787416013","test","2","prime_negative","32","8","149","1","486","60","27"
"071218","15:13:32","787416013","test","2","intention_check","33","8","149","0","2500","60","27"
"071218","15:13:32","787416013","test","2","prime_positive","34","9","200","1","803","66","27"
"071218","15:13:32","787416013","test","2","intention_check","35","9","200","0","2500","66","27"
"071218","15:13:32","787416013","test","2","prime_negative","36","1","80","0","656","66","25"
"071218","15:13:32","787416013","test","2","intention_check","37","1","80","0","2500","66","25"
"071218","15:13:32","787416013","test","2","prime_positive","38","3","143","0","679","57","25"
"071218","15:13:32","787416013","test","2","intention_check","39","3","143","0","2500","57","25"
"071218","15:13:32","787416013","test","2","prime_positive","40","9","108","1","674","62","25"
"071218","15:13:32","787416013","test","2","intention_check","41","9","108","0","2500","62","25"
"071218","15:13:32","787416013","test","2","prime_positive","42","12","60","0","776","55","25"
"071218","15:13:32","787416013","test","2","intention_check","43","12","60","0","2500","55","25"
"071218","15:13:32","787416013","test","2","prime_negative","44","4","24","1","875","55","30"
"071218","15:13:32","787416013","test","2","intention_check","45","4","24","0","2500","55","30"
"071218","15:13:32","787416013","test","2","prime_negative","46","9","19","0","541","55","28"
"071218","15:13:32","787416013","test","2","intention_check","47","9","19","0","2500","55","28"
"071218","15:13:32","787416013","test","2","prime_positive","48","7","103","1","571","60","28"
"071218","15:13:32","787416013","test","2","intention_check","49","7","103","0","2500","60","28"
"071218","15:13:32","787416013","test","2","prime_negative","50","3","26","0","636","60","26"
"071218","15:13:32","787416013","test","2","intention_check","51","3","26","0","2500","60","26"
"071218","15:13:32","787416013","test","2","prime_negative","52","7","186","1","489","60","31"
"071218","15:13:32","787416013","test","2","intention_check","53","7","186","0","2500","60","31"
"071218","15:13:32","787416013","test","2","prime_negative","54","5","21","0","660","60","29"
"071218","15:13:32","787416013","test","2","intention_check","55","5","21","0","2500","60","29"
"071218","15:13:32","787416013","test","2","prime_negative","56","2","31","0","483","60","27"
"071218","15:13:32","787416013","test","2","intention_check","57","2","31","0","2500","60","27"
"071218","15:13:32","787416013","test","2","prime_negative","58","11","180","1","429","60","31"
"071218","15:13:32","787416013","test","2","intention_check","59","11","180","0","2500","60","31"
"071218","15:13:32","787416013","test","2","prime_negative","60","1","12","0","605","60","30"
"071218","15:13:32","787416013","test","2","intention_check","61","1","12","0","2500","60","30"
"071218","15:13:32","787416013","test","2","prime_negative","62","7","126","0","870","60","28"
"071218","15:13:32","787416013","test","2","intention_check","63","7","126","0","2500","60","28"
"071218","15:13:32","787416013","test","2","prime_positive","64","5","198","1","1041","63","28"
"071218","15:13:32","787416013","test","2","intention_check","65","5","198","0","2500","63","28"
"071218","15:13:32","787416013","test","2","prime_negative","66","3","184","1","688","63","31"
"071218","15:13:32","787416013","test","2","intention_check","67","3","184","0","2500","63","31"
"071218","15:13:32","787416013","test","2","prime_negative","68","5","150","0","535","63","30"
"071218","15:13:32","787416013","test","2","intention_check","69","5","150","0","2500","63","30"
"071218","15:13:32","787416013","test","2","prime_positive","70","8","45","0","802","58","30"
"071218","15:13:32","787416013","test","2","intention_check","71","8","45","0","2500","58","30"
"071218","15:13:32","787416013","test","2","prime_positive","72","3","90","0","757","53","30"
"071218","15:13:32","787416013","test","2","intention_check","73","3","90","0","2500","53","30"
"071218","15:13:32","787416013","test","2","prime_negative","74","4","13","1","515","53","33"
"071218","15:13:32","787416013","test","2","intention_check","75","4","13","0","2500","53","33"
"071218","15:13:32","787416013","test","2","prime_negative","76","11","154","0","707","53","32"
"071218","15:13:32","787416013","test","2","intention_check","77","11","154","0","2500","53","32"
"071218","15:13:32","787416013","test","2","prime_negative","78","10","4","0","633","53","30"
"071218","15:13:32","787416013","test","2","intention_check","79","10","4","0","2500","53","30"
"071218","15:13:32","787416013","test","2","prime_negative","80","6","167","1","656","53","33"
"071218","15:13:32","787416013","test","2","intention_check","81","6","167","0","2500","53","33"
"071218","15:13:32","787416013","test","2","prime_positive","82","4","44","0","622","50","33"
"071218","15:13:32","787416013","test","2","intention_check","83","4","44","0","2500","50","33"
"071218","15:13:32","787416013","test","2","prime_negative","84","8","32","0","543","50","32"
"071218","15:13:32","787416013","test","2","intention_check","85","8","32","0","2500","50","32"
"071218","15:13:32","787416013","test","2","prime_negative","86","12","134","1","515","50","34"
"071218","15:13:32","787416013","test","2","intention_check","87","12","134","0","2500","50","34"
"071218","15:13:32","787416013","test","2","prime_negative","88","2","30","0","441","50","33"
"071218","15:13:32","787416013","test","2","intention_check","89","2","30","0","2500","50","33"
"071218","15:13:32","787416013","test","2","prime_positive","90","1","122","1","615","53","33"
"071218","15:13:32","787416013","test","2","intention_check","91","1","122","0","2500","53","33"
"071218","15:13:32","787416013","test","2","prime_positive","92","6","49","0","504","50","33"
"071218","15:13:32","787416013","test","2","intention_check","93","6","49","0","2500","50","33"
"071218","15:13:32","787416013","test","2","prime_negative","94","9","118","1","477","50","35"
"071218","15:13:32","787416013","test","2","intention_check","95","9","118","0","2500","50","35"
"071218","15:13:32","787416013","test","2","prime_positive","96","2","94","0","522","47","35"
"071218","15:13:32","787416013","test","2","intention_check","97","2","94","0","2500","47","35"
"071218","15:13:32","787416013","test","2","prime_positive","98","11","146","1","587","50","35"
"071218","15:13:32","787416013","test","2","intention_check","99","11","146","0","2500","50","35"
"071218","15:13:32","787416013","test","2","prime_positive","100","10","174","0","540","47","35"
"071218","15:13:32","787416013","test","2","intention_check","101","10","174","0","2500","47","35"
"071218","15:13:32","787416013","test","2","prime_positive","102","6","158","1","391","50","35"
"071218","15:13:32","787416013","test","2","intention_check","103","6","158","0","2500","50","35"
"071218","15:13:32","787416013","test","2","prime_negative","104","12","58","0","483","50","34"
"071218","15:13:32","787416013","test","2","intention_check","105","12","58","0","2500","50","34"
"071218","15:13:32","787416013","test","2","prime_negative","106","5","83","0","596","50","33"
"071218","15:13:32","787416013","test","2","intention_check","107","5","83","0","2500","50","33"
"071218","15:13:32","787416013","test","2","prime_positive","108","7","7","0","667","47","33"
"071218","15:13:32","787416013","test","2","intention_check","109","7","7","0","2500","47","33"
"071218","15:13:32","787416013","test","2","prime_negative","110","8","68","1","580","47","35"
"071218","15:13:32","787416013","test","2","intention_check","111","8","68","0","2500","47","35"
"071218","15:13:32","787416013","test","2","prime_positive","112","1","182","1","809","50","35"
"071218","15:13:32","787416013","test","2","intention_check","113","1","182","0","2500","50","35"
"071218","15:13:32","787416013","test","2","prime_positive","114","4","52","0","467","47","35"
"071218","15:13:32","787416013","test","2","intention_check","115","4","52","0","2500","47","35"
"071218","15:13:32","787416013","test","2","prime_negative","116","10","76","0","589","47","34"
"071218","15:13:32","787416013","test","2","intention_check","117","10","76","0","2500","47","34"
"071218","15:13:32","787416013","test","2","prime_negative","118","4","142","1","464","47","36"
"071218","15:13:32","787416013","test","2","intention_check","119","4","142","0","2500","47","36"
"071218","15:13:32","787416013","test","2","prime_positive","120","12","85","0","687","45","36"
"071218","15:13:32","787416013","test","2","intention_check","121","12","85","0","2500","45","36"
"071218","15:13:32","787416013","test","2","prime_positive","122","11","139","1","446","48","36"
"071218","15:13:32","787416013","test","2","intention_check","123","11","139","0","2500","48","36"
"071218","15:13:32","787416013","test","2","prime_negative","124","6","102","1","466","48","37"
"071218","15:13:32","787416013","test","2","intention_check","125","6","102","0","2500","48","37"
"071218","15:13:32","787416013","test","2","prime_positive","126","5","178","0","818","46","37"
"071218","15:13:32","787416013","test","2","intention_check","127","5","178","0","2500","46","37"
"071218","15:13:32","787416013","test","2","prime_negative","128","1","95","1","413","46","39"
"071218","15:13:32","787416013","test","2","intention_check","129","1","95","0","2500","46","39"
"071218","15:13:32","787416013","test","2","prime_positive","130","2","112","1","436","48","39"
"071218","15:13:32","787416013","test","2","intention_check","131","2","112","0","2500","48","39"
"071218","15:13:32","787416013","test","2","prime_positive","132","3","194","1","517","50","39"
"071218","15:13:32","787416013","test","2","intention_check","133","3","194","0","2500","50","39"
"071218","15:13:32","787416013","test","2","prime_positive","134","10","172","1","476","51","39"
"071218","15:13:32","787416013","test","2","intention_check","135","10","172","0","2500","51","39"
"071218","15:13:32","787416013","test","2","prime_positive","136","8","191","1","580","53","39"
"071218","15:13:32","787416013","test","2","intention_check","137","8","191","0","2500","53","39"
"071218","15:13:32","787416013","test","2","prime_negative","138","2","92","1","445","53","41"
"071218","15:13:32","787416013","test","2","intention_check","139","2","92","0","2500","53","41"
"071218","15:13:32","787416013","test","2","prime_positive","140","9","89","1","522","54","41"
"071218","15:13:32","787416013","test","2","intention_check","141","9","89","0","2500","54","41"
"071218","15:13:32","787416013","test","2","prime_positive","142","5","133","1","510","56","41"
"071218","15:13:32","787416013","test","2","intention_check","143","5","133","0","2500","56","41"
"071218","15:13:32","787416013","test","2","prime_positive","144","8","148","1","521","57","41"
"071218","15:13:32","787416013","test","2","intention_check","145","8","148","0","2500","57","41"
"071218","15:13:32","787416013","test","2","prime_positive","146","3","74","1","466","58","41"
"071218","15:13:32","787416013","test","2","intention_check","147","3","74","0","2500","58","41"
"071218","15:13:32","787416013","test","2","prime_negative","148","9","1","0","357","58","40"
"071218","15:13:32","787416013","test","2","intention_check","149","9","1","0","2500","58","40"
"071218","15:13:32","787416013","test","2","prime_positive","150","10","114","1","436","60","40"
"071218","15:13:32","787416013","test","2","intention_check","151","10","114","0","2500","60","40"
"071218","15:13:32","787416013","test","2","prime_positive","152","4","41","0","409","58","40"
"071218","15:13:32","787416013","test","2","intention_check","153","4","41","0","2500","58","40"
"071218","15:13:32","787416013","test","2","prime_negative","154","7","170","1","501","58","41"
"071218","15:13:32","787416013","test","2","intention_check","155","7","170","0","2500","58","41"
"071218","15:13:32","787416013","test","2","prime_positive","156","7","153","1","476","59","41"
"071218","15:13:32","787416013","test","2","intention_check","157","7","153","0","2500","59","41"
"071218","15:13:32","787416013","test","2","prime_positive","158","12","39","1","1169","60","41"
"071218","15:13:32","787416013","test","2","intention_check","159","12","39","0","2500","60","41"
"071218","15:13:32","787416013","test","2","prime_positive","160","1","69","0","479","58","41"
"071218","15:13:32","787416013","test","2","intention_check","161","1","69","0","2500","58","41"
"071218","15:13:32","787416013","test","2","prime_negative","162","11","91","0","584","58","40"
"071218","15:13:32","787416013","test","2","intention_check","163","11","91","0","2500","58","40"
"071218","15:13:32","787416013","test","2","prime_positive","164","11","47","0","470","57","40"
"071218","15:13:32","787416013","test","2","intention_check","165","11","47","0","2500","57","40"
"071218","15:13:32","787416013","test","2","prime_negative","166","3","15","0","608","57","39"
"071218","15:13:32","787416013","test","2","intention_check","167","3","15","0","2500","57","39"
"071218","15:13:32","787416013","test","2","prime_positive","168","2","33","1","461","58","39"
"071218","15:13:32","787416013","test","2","intention_check","169","2","33","0","2500","58","39"
"071218","15:13:32","787416013","test","2","prime_positive","170","9","144","1","519","59","39"
"071218","15:13:32","787416013","test","2","intention_check","171","9","144","0","2500","59","39"
"071218","15:13:32","787416013","test","2","prime_negative","172","3","27","1","453","59","40"
"071218","15:13:32","787416013","test","2","intention_check","173","3","27","0","2500","59","40"
"071218","15:13:32","787416013","test","2","prime_positive","174","6","130","1","437","60","40"
"071218","15:13:32","787416013","test","2","intention_check","175","6","130","0","2500","60","40"
"071218","15:13:32","787416013","test","2","prime_negative","176","1","6","0","679","60","40"
"071218","15:13:32","787416013","test","2","intention_check","177","1","6","0","2500","60","40"
"071218","15:13:32","787416013","test","2","prime_positive","178","3","104","1","655","61","40"
"071218","15:13:32","787416013","test","2","intention_check","179","3","104","0","2500","61","40"
"071218","15:13:32","787416013","test","2","prime_positive","180","8","10","0","390","60","40"
"071218","15:13:32","787416013","test","2","intention_check","181","8","10","0","2500","60","40"
"071218","15:13:32","787416013","test","2","prime_positive","182","6","23","1","364","60","40"
"071218","15:13:32","787416013","test","2","intention_check","183","6","23","0","2500","60","40"
"071218","15:13:32","787416013","test","2","prime_negative","184","10","199","1","563","60","41"
"071218","15:13:32","787416013","test","2","intention_check","185","10","199","0","2500","60","41"
"071218","15:13:32","787416013","test","2","prime_negative","186","2","93","1","770","60","42"
"071218","15:13:32","787416013","test","2","intention_check","187","2","93","0","2500","60","42"
"071218","15:13:32","787416013","test","2","prime_negative","188","8","171","0","427","60","41"
"071218","15:13:32","787416013","test","2","intention_check","189","8","171","0","2500","60","41"
"071218","15:13:32","787416013","test","2","prime_negative","190","11","111","1","461","60","42"
"071218","15:13:32","787416013","test","2","intention_check","191","11","111","0","2500","60","42"
"071218","15:13:32","787416013","test","2","prime_positive","192","5","40","1","818","61","42"
"071218","15:13:32","787416013","test","2","intention_check","193","5","40","0","2500","61","42"
"071218","15:13:32","787416013","test","2","prime_negative","194","6","9","1","499","61","44"
"071218","15:13:32","787416013","test","2","intention_check","195","6","9","0","2500","61","44"
"071218","15:13:32","787416013","test","2","prime_negative","196","9","86","1","723","61","45"
"071218","15:13:32","787416013","test","2","intention_check","197","9","86","0","2500","61","45"
"071218","15:13:32","787416013","test","2","prime_negative","198","7","160","1","471","61","46"
"071218","15:13:32","787416013","test","2","intention_check","199","7","160","0","2500","61","46"
"071218","15:13:32","787416013","test","2","prime_negative","200","4","113","0","383","61","45"
"071218","15:13:32","787416013","test","2","intention_check","201","4","113","0","2500","61","45"
"071218","15:13:32","787416013","test","2","prime_positive","202","9","115","1","734","62","45"
"071218","15:13:32","787416013","test","2","intention_check","203","9","115","0","2500","62","45"
"071218","15:13:32","787416013","test","2","prime_positive","204","12","57","0","426","61","45"
"071218","15:13:32","787416013","test","2","intention_check","205","12","57","0","2500","61","45"
"071218","15:13:32","787416013","test","2","prime_negative","206","12","165","1","485","61","46"
"071218","15:13:32","787416013","test","2","intention_check","207","12","165","0","2500","61","46"
"071218","15:13:32","787416013","test","2","prime_positive","208","4","157","0","762","60","46"
"071218","15:13:32","787416013","test","2","intention_check","209","4","157","0","2500","60","46"
"071218","15:13:32","787416013","test","2","prime_positive","210","10","123","1","467","60","46"
"071218","15:13:32","787416013","test","2","intention_check","211","10","123","0","2500","60","46"
"071218","15:13:32","787416013","test","2","prime_positive","212","7","73","0","578","59","46"
"071218","15:13:32","787416013","test","2","intention_check","213","7","73","0","2500","59","46"
"071218","15:13:32","787416013","test","2","prime_positive","214","1","110","1","448","60","46"
"071218","15:13:32","787416013","test","2","intention_check","215","1","110","0","2500","60","46"
"071218","15:13:32","787416013","test","2","prime_positive","216","11","22","1","465","61","46"
"071218","15:13:32","787416013","test","2","intention_check","217","11","22","0","2500","61","46"
"071218","15:13:32","787416013","test","2","prime_positive","218","2","189","1","507","61","46"
"071218","15:13:32","787416013","test","2","intention_check","219","2","189","0","2500","61","46"
"071218","15:13:32","787416013","test","2","prime_positive","220","11","147","1","554","62","46"
"071218","15:13:32","787416013","test","2","intention_check","221","11","147","0","2500","62","46"
"071218","15:13:32","787416013","test","2","prime_negative","222","5","106","1","946","62","47"
"071218","15:13:32","787416013","test","2","intention_check","223","5","106","0","2500","62","47"
"071218","15:13:32","787416013","test","2","prime_positive","224","7","63","0","778","61","47"
"071218","15:13:32","787416013","test","2","intention_check","225","7","63","0","2500","61","47"
"071218","15:13:32","787416013","test","2","prime_positive","226","2","128","1","640","62","47"
"071218","15:13:32","787416013","test","2","intention_check","227","2","128","0","2500","62","47"
"071218","15:13:32","787416013","test","2","prime_positive","228","9","137","1","502","62","47"
"071218","15:13:32","787416013","test","2","intention_check","229","9","137","0","2500","62","47"
"071218","15:13:32","787416013","test","2","prime_negative","230","9","145","0","683","62","46"
"071218","15:13:32","787416013","test","2","intention_check","231","9","145","0","2500","62","46"
"071218","15:13:32","787416013","test","2","prime_positive","232","3","173","1","548","63","46"
"071218","15:13:32","787416013","test","2","intention_check","233","3","173","0","2500","63","46"
"071218","15:13:32","787416013","test","2","prime_negative","234","5","35","0","526","63","45"
"071218","15:13:32","787416013","test","2","intention_check","235","5","35","0","2500","63","45"
"071218","15:13:32","787416013","test","2","prime_negative","236","7","48","0","578","63","44"
"071218","15:13:32","787416013","test","2","intention_check","237","7","48","0","2500","63","44"
"071218","15:13:32","787416013","test","2","prime_negative","238","3","46","1","531","63","45"
"071218","15:13:32","787416013","test","2","intention_check","239","3","46","0","2500","63","45"
"071218","15:13:32","787416013","test","2","prime_negative","240","6","125","1","416","63","46"
"071218","15:13:32","787416013","test","2","intention_check","241","6","125","0","2500","63","46"
"071218","15:17:48","493020342","practice","1","prime_positive_practice","5","0","0","0","4658","0","0"
"071218","15:17:48","493020342","practice","1","intention_check_practice","6","0","0","0","2500","0","0"
"071218","15:17:48","493020342","practice","1","prime_negative_practice","7","0","0","0","1809","0","0"
"071218","15:17:48","493020342","practice","1","intention_check_practice","8","0","0","1","596","0","0"
"071218","15:17:48","493020342","practice","1","prime_positive_practice","9","0","0","0","1484","0","0"
"071218","15:17:48","493020342","practice","1","intention_check_practice","10","0","0","0","2500","0","0"
"071218","15:17:48","493020342","practice","1","prime_negative_practice","11","0","0","0","3747","0","0"
"071218","15:17:48","493020342","practice","1","intention_check_practice","12","0","0","0","2500","0","0"
"071218","15:17:48","493020342","practice","1","prime_negative_practice","13","0","0","1","3059","0","0"
"071218","15:17:48","493020342","practice","1","intention_check_practice","14","0","0","0","2500","0","0"
"071218","15:17:48","493020342","practice","1","prime_positive_practice","15","0","0","1","1150","0","0"
"071218","15:17:48","493020342","practice","1","intention_check_practice","16","0","0","0","2500","0","0"
"071218","15:17:48","493020342","practice","1","prime_positive_practice","17","0","0","1","3962","0","0"
"071218","15:17:48","493020342","practice","1","intention_check_practice","18","0","0","1","1671","0","0"
"071218","15:17:48","493020342","practice","1","prime_negative_practice","19","0","0","0","2261","0","0"
"071218","15:17:48","493020342","practice","1","intention_check_practice","20","0","0","0","2500","0","0"
"071218","15:17:48","493020342","practice","1","prime_positive_practice","21","0","0","1","971","0","0"
"071218","15:17:48","493020342","practice","1","intention_check_practice","22","0","0","0","2500","0","0"
"071218","15:17:48","493020342","practice","1","prime_negative_practice","23","0","0","1","1684","0","0"
"071218","15:17:48","493020342","practice","1","intention_check_practice","24","0","0","0","2500","0","0"
"071218","15:17:48","493020342","test","2","prime_positive","2","4","185","1","1062","100","0"
"071218","15:17:48","493020342","test","2","intention_check","3","4","185","0","2500","100","0"
"071218","15:17:48","493020342","test","2","prime_negative","4","9","195","0","493","100","0"
"071218","15:17:48","493020342","test","2","intention_check","5","9","195","0","2500","100","0"
"071218","15:17:48","493020342","test","2","prime_negative","6","11","100","1","454","100","50"
"071218","15:17:48","493020342","test","2","intention_check","7","11","100","0","2500","100","50"
"071218","15:17:48","493020342","test","2","prime_negative","8","4","179","1","450","100","66"
"071218","15:17:48","493020342","test","2","intention_check","9","4","179","0","2500","100","66"
"071218","15:17:48","493020342","test","2","prime_positive","10","11","165","1","485","100","66"
"071218","15:17:48","493020342","test","2","intention_check","11","11","165","0","2500","100","66"
"071218","15:17:48","493020342","test","2","prime_positive","12","7","103","0","359","66","66"
"071218","15:17:48","493020342","test","2","intention_check","13","7","103","0","2500","66","66"
"071218","15:17:48","493020342","test","2","prime_positive","14","1","123","0","963","50","66"
"071218","15:17:48","493020342","test","2","intention_check","15","1","123","0","2500","50","66"
"071218","15:17:48","493020342","test","2","prime_positive","16","9","190","1","736","60","66"
"071218","15:17:48","493020342","test","2","intention_check","17","9","190","0","2500","60","66"
"071218","15:17:48","493020342","test","2","prime_positive","18","8","49","0","233","50","66"
"071218","15:17:48","493020342","test","2","intention_check","19","8","49","0","2500","50","66"
"071218","15:17:48","493020342","test","2","prime_positive","20","5","36","1","1842","57","66"
"071218","15:17:48","493020342","test","2","intention_check","21","5","36","0","2500","57","66"
"071218","15:17:48","493020342","test","2","prime_positive","22","3","89","0","367","50","66"
"071218","15:17:48","493020342","test","2","intention_check","23","3","89","0","2500","50","66"
"071218","15:17:48","493020342","test","2","prime_negative","24","10","168","1","324","50","75"
"071218","15:17:48","493020342","test","2","intention_check","25","10","168","0","2500","50","75"
"071218","15:17:48","493020342","test","2","prime_positive","26","1","44","1","478","55","75"
"071218","15:17:48","493020342","test","2","intention_check","27","1","44","0","2500","55","75"
"071218","15:17:48","493020342","test","2","prime_positive","28","2","142","1","480","60","75"
"071218","15:17:48","493020342","test","2","intention_check","29","2","142","0","2500","60","75"
"071218","15:17:48","493020342","test","2","prime_negative","30","3","12","0","724","60","60"
"071218","15:17:48","493020342","test","2","intention_check","31","3","12","0","2500","60","60"
"071218","15:17:48","493020342","test","2","prime_positive","32","9","157","1","647","63","60"
"071218","15:17:48","493020342","test","2","intention_check","33","9","157","0","2500","63","60"
"071218","15:17:48","493020342","test","2","prime_positive","34","12","107","0","639","58","60"
"071218","15:17:48","493020342","test","2","intention_check","35","12","107","0","2500","58","60"
"071218","15:17:48","493020342","test","2","prime_negative","36","7","106","1","522","58","66"
"071218","15:17:48","493020342","test","2","intention_check","37","7","106","0","2500","58","66"
"071218","15:17:48","493020342","test","2","prime_negative","38","12","85","1","643","58","71"
"071218","15:17:48","493020342","test","2","intention_check","39","12","85","0","2500","58","71"
"071218","15:17:48","493020342","test","2","prime_positive","40","6","84","1","372","61","71"
"071218","15:17:48","493020342","test","2","intention_check","41","6","84","0","2500","61","71"
"071218","15:17:48","493020342","test","2","prime_negative","42","11","82","1","278","61","75"
"071218","15:17:48","493020342","test","2","intention_check","43","11","82","0","2500","61","75"
"071218","15:17:48","493020342","test","2","prime_negative","44","7","125","0","703","61","66"
"071218","15:17:48","493020342","test","2","intention_check","45","7","125","1","906","61","66"
"071218","15:17:48","493020342","test","2","prime_negative","46","8","166","1","851","61","70"
"071218","15:17:48","493020342","test","2","intention_check","47","8","166","0","2500","61","70"
"071218","15:17:48","493020342","test","2","prime_positive","48","7","137","1","408","64","70"
"071218","15:17:48","493020342","test","2","intention_check","49","7","137","0","2500","64","70"
"071218","15:17:48","493020342","test","2","prime_negative","50","12","39","1","688","64","72"
"071218","15:17:48","493020342","test","2","intention_check","51","12","39","0","2500","64","72"
"071218","15:17:48","493020342","test","2","prime_negative","52","5","182","1","515","64","75"
"071218","15:17:48","493020342","test","2","intention_check","53","5","182","0","2500","64","75"
"071218","15:17:48","493020342","test","2","prime_negative","54","2","109","0","471","64","69"
"071218","15:17:48","493020342","test","2","intention_check","55","2","109","1","715","64","69"
"071218","15:17:48","493020342","test","2","prime_negative","56","3","181","1","409","64","71"
"071218","15:17:48","493020342","test","2","intention_check","57","3","181","0","2500","64","71"
"071218","15:17:48","493020342","test","2","prime_negative","58","9","38","1","673","64","73"
"071218","15:17:48","493020342","test","2","intention_check","59","9","38","0","2500","64","73"
"071218","15:17:48","493020342","test","2","prime_negative","60","4","101","1","747","64","75"
"071218","15:17:48","493020342","test","2","intention_check","61","4","101","0","2500","64","75"
"071218","15:17:48","493020342","test","2","prime_positive","62","4","138","1","124","66","75"
"071218","15:17:48","493020342","test","2","intention_check","63","4","138","0","2500","66","75"
"071218","15:17:48","493020342","test","2","prime_positive","64","11","27","1","367","68","75"
"071218","15:17:48","493020342","test","2","intention_check","65","11","27","0","2500","68","75"
"071218","15:17:48","493020342","test","2","prime_negative","66","6","52","1","470","68","76"
"071218","15:17:48","493020342","test","2","intention_check","67","6","52","0","2500","68","76"
"071218","15:17:48","493020342","test","2","prime_positive","68","8","57","1","436","70","76"
"071218","15:17:48","493020342","test","2","intention_check","69","8","57","1","765","70","76"
"071218","15:17:48","493020342","test","2","prime_positive","70","5","72","1","517","72","76"
"071218","15:17:48","493020342","test","2","intention_check","71","5","72","0","2500","72","76"
"071218","15:17:48","493020342","test","2","prime_negative","72","10","193","1","593","72","77"
"071218","15:17:48","493020342","test","2","intention_check","73","10","193","0","2500","72","77"
"071218","15:17:48","493020342","test","2","prime_positive","74","10","184","1","818","73","77"
"071218","15:17:48","493020342","test","2","intention_check","75","10","184","0","2500","73","77"
"071218","15:17:48","493020342","test","2","prime_positive","76","12","11","0","522","70","77"
"071218","15:17:48","493020342","test","2","intention_check","77","12","11","1","322","70","77"
"071218","15:17:48","493020342","test","2","prime_negative","78","1","33","0","939","70","73"
"071218","15:17:48","493020342","test","2","intention_check","79","1","33","1","132","70","73"
"071218","15:17:48","493020342","test","2","prime_negative","80","9","194","1","735","70","75"
"071218","15:17:48","493020342","test","2","intention_check","81","9","194","0","2500","70","75"
"071218","15:17:48","493020342","test","2","prime_negative","82","11","79","1","698","70","76"
"071218","15:17:48","493020342","test","2","intention_check","83","11","79","0","2500","70","76"
"071218","15:17:48","493020342","test","2","prime_negative","84","8","20","1","749","70","77"
"071218","15:17:48","493020342","test","2","intention_check","85","8","20","0","2500","70","77"
"071218","15:17:48","493020342","test","2","prime_negative","86","1","154","1","532","70","78"
"071218","15:17:48","493020342","test","2","intention_check","87","1","154","0","2500","70","78"
"071218","15:17:48","493020342","test","2","prime_positive","88","3","13","1","445","71","78"
"071218","15:17:48","493020342","test","2","intention_check","89","3","13","0","2500","71","78"
"071218","15:17:48","493020342","test","2","prime_negative","90","7","9","1","514","71","79"
"071218","15:17:48","493020342","test","2","intention_check","91","7","9","0","2500","71","79"
"071218","15:17:48","493020342","test","2","prime_positive","92","6","66","1","191","72","79"
"071218","15:17:48","493020342","test","2","intention_check","93","6","66","1","578","72","79"
"071218","15:17:48","493020342","test","2","prime_negative","94","6","169","1","395","72","80"
"071218","15:17:48","493020342","test","2","intention_check","95","6","169","0","2500","72","80"
"071218","15:17:48","493020342","test","2","prime_negative","96","3","97","1","498","72","80"
"071218","15:17:48","493020342","test","2","intention_check","97","3","97","0","2500","72","80"
"071218","15:17:48","493020342","test","2","prime_negative","98","2","192","0","206","72","77"
"071218","15:17:48","493020342","test","2","intention_check","99","2","192","1","406","72","77"
"071218","15:17:48","493020342","test","2","prime_negative","100","4","45","1","535","72","78"
"071218","15:17:48","493020342","test","2","intention_check","101","4","45","0","2500","72","78"
"071218","15:17:48","493020342","test","2","prime_positive","102","9","120","1","457","73","78"
"071218","15:17:48","493020342","test","2","intention_check","103","9","120","0","2500","73","78"
"071218","15:17:48","493020342","test","2","prime_negative","104","12","156","0","266","73","75"
"071218","15:17:48","493020342","test","2","intention_check","105","12","156","1","590","73","75"
"071218","15:17:48","493020342","test","2","prime_positive","106","8","64","1","428","75","75"
"071218","15:17:48","493020342","test","2","intention_check","107","8","64","0","2500","75","75"
"071218","15:17:48","493020342","test","2","prime_positive","108","10","42","1","350","76","75"
"071218","15:17:48","493020342","test","2","intention_check","109","10","42","0","2500","76","75"
"071218","15:17:48","493020342","test","2","prime_negative","110","10","71","1","504","76","76"
"071218","15:17:48","493020342","test","2","intention_check","111","10","71","0","2500","76","76"
"071218","15:17:48","493020342","test","2","prime_negative","112","5","147","1","542","76","77"
"071218","15:17:48","493020342","test","2","intention_check","113","5","147","0","2500","76","77"
"071218","15:17:48","493020342","test","2","prime_negative","114","12","16","0","739","76","75"
"071218","15:17:48","493020342","test","2","intention_check","115","12","16","1","484","76","75"
"071218","15:17:48","493020342","test","2","prime_positive","116","7","200","1","406","76","75"
"071218","15:17:48","493020342","test","2","intention_check","117","7","200","1","643","76","75"
"071218","15:17:48","493020342","test","2","prime_negative","118","10","124","1","412","76","75"
"071218","15:17:48","493020342","test","2","intention_check","119","10","124","0","2500","76","75"
"071218","15:17:48","493020342","test","2","prime_negative","120","1","104","0","262","76","73"
"071218","15:17:48","493020342","test","2","intention_check","121","1","104","1","445","76","73"
"071218","15:17:48","493020342","test","2","prime_positive","122","11","150","1","435","77","73"
"071218","15:17:48","493020342","test","2","intention_check","123","11","150","0","2500","77","73"
"071218","15:17:48","493020342","test","2","prime_negative","124","8","158","1","509","77","74"
"071218","15:17:48","493020342","test","2","intention_check","125","8","158","0","2500","77","74"
"071218","15:17:48","493020342","test","2","prime_positive","126","4","61","1","696","78","74"
"071218","15:17:48","493020342","test","2","intention_check","127","4","61","0","2500","78","74"
"071218","15:17:48","493020342","test","2","prime_positive","128","1","140","1","306","79","74"
"071218","15:17:48","493020342","test","2","intention_check","129","1","140","0","2500","79","74"
"071218","15:17:48","493020342","test","2","prime_positive","130","5","113","1","599","80","74"
"071218","15:17:48","493020342","test","2","intention_check","131","5","113","0","2500","80","74"
"071218","15:17:48","493020342","test","2","prime_positive","132","2","197","1","338","80","74"
"071218","15:17:48","493020342","test","2","intention_check","133","2","197","0","2500","80","74"
"071218","15:17:48","493020342","test","2","prime_negative","134","9","56","1","420","80","75"
"071218","15:17:48","493020342","test","2","intention_check","135","9","56","0","2500","80","75"
"071218","15:17:48","493020342","test","2","prime_positive","136","3","144","1","473","81","75"
"071218","15:17:48","493020342","test","2","intention_check","137","3","144","0","2500","81","75"
"071218","15:17:48","493020342","test","2","prime_positive","138","10","43","1","1945","81","75"
"071218","15:17:48","493020342","test","2","intention_check","139","10","43","0","2500","81","75"
"071218","15:17:48","493020342","test","2","prime_positive","140","5","114","1","405","82","75"
"071218","15:17:48","493020342","test","2","intention_check","141","5","114","0","2500","82","75"
"071218","15:17:48","493020342","test","2","prime_negative","142","2","111","1","1347","82","75"
"071218","15:17:48","493020342","test","2","intention_check","143","2","111","0","2500","82","75"
"071218","15:17:48","493020342","test","2","prime_negative","144","6","139","0","503","82","73"
"071218","15:17:48","493020342","test","2","intention_check","145","6","139","1","610","82","73"
"071218","15:17:48","493020342","test","2","prime_negative","146","3","95","0","813","82","71"
"071218","15:17:48","493020342","test","2","intention_check","147","3","95","0","2500","82","71"
"071218","15:17:48","493020342","test","2","prime_positive","148","1","119","1","187","82","71"
"071218","15:17:48","493020342","test","2","intention_check","149","1","119","0","2500","82","71"
"071218","15:17:48","493020342","test","2","prime_negative","150","7","5","1","1405","82","72"
"071218","15:17:48","493020342","test","2","intention_check","151","7","5","0","2500","82","72"
"071218","15:17:48","493020342","test","2","prime_negative","152","5","146","1","360","82","73"
"071218","15:17:48","493020342","test","2","intention_check","153","5","146","0","2500","82","73"
"071218","15:17:48","493020342","test","2","prime_positive","154","9","65","1","324","83","73"
"071218","15:17:48","493020342","test","2","intention_check","155","9","65","0","2500","83","73"
"071218","15:17:48","493020342","test","2","prime_negative","156","4","108","1","291","83","73"
"071218","15:17:48","493020342","test","2","intention_check","157","4","108","0","2500","83","73"
"071218","15:17:48","493020342","test","2","prime_negative","158","11","199","1","599","83","74"
"071218","15:17:48","493020342","test","2","intention_check","159","11","199","0","2500","83","74"
"071218","15:17:48","493020342","test","2","prime_positive","160","2","155","1","305","83","74"
"071218","15:17:48","493020342","test","2","intention_check","161","2","155","0","2500","83","74"
"071218","15:17:48","493020342","test","2","prime_negative","162","6","134","1","313","83","75"
"071218","15:17:48","493020342","test","2","intention_check","163","6","134","0","2500","83","75"
"071218","15:17:48","493020342","test","2","prime_positive","164","4","8","0","202","81","75"
"071218","15:17:48","493020342","test","2","intention_check","165","4","8","0","2500","81","75"
"071218","15:17:48","493020342","test","2","prime_negative","166","5","175","0","399","81","73"
"071218","15:17:48","493020342","test","2","intention_check","167","5","175","0","2500","81","73"
"071218","15:17:48","493020342","test","2","prime_negative","168","10","77","1","473","81","73"
"071218","15:17:48","493020342","test","2","intention_check","169","10","77","0","2500","81","73"
"071218","15:17:48","493020342","test","2","prime_negative","170","8","118","1","79","81","74"
"071218","15:17:48","493020342","test","2","intention_check","171","8","118","0","2500","81","74"
"071218","15:17:48","493020342","test","2","prime_positive","172","12","80","1","452","82","74"
"071218","15:17:48","493020342","test","2","intention_check","173","12","80","0","2500","82","74"
"071218","15:17:48","493020342","test","2","prime_negative","174","3","128","1","299","82","75"
"071218","15:17:48","493020342","test","2","intention_check","175","3","128","0","2500","82","75"
"071218","15:17:48","493020342","test","2","prime_positive","176","11","50","1","254","82","75"
"071218","15:17:48","493020342","test","2","intention_check","177","11","50","1","463","82","75"
"071218","15:17:48","493020342","test","2","prime_positive","178","6","198","1","444","82","75"
"071218","15:17:48","493020342","test","2","intention_check","179","6","198","0","2500","82","75"
"071218","15:17:48","493020342","test","2","prime_positive","180","7","83","1","254","83","75"
"071218","15:17:48","493020342","test","2","intention_check","181","7","83","0","2500","83","75"
"071218","15:17:48","493020342","test","2","prime_positive","182","8","121","1","325","83","75"
"071218","15:17:48","493020342","test","2","intention_check","183","8","121","0","2500","83","75"
"071218","15:17:48","493020342","test","2","prime_positive","184","10","78","1","324","84","75"
"071218","15:17:48","493020342","test","2","intention_check","185","10","78","0","2500","84","75"
"071218","15:17:48","493020342","test","2","prime_negative","186","9","133","1","433","84","75"
"071218","15:17:48","493020342","test","2","intention_check","187","9","133","0","2500","84","75"
"071218","15:17:48","493020342","test","2","prime_negative","188","1","69","0","703","84","74"
"071218","15:17:48","493020342","test","2","intention_check","189","1","69","1","550","84","74"
"071218","15:17:48","493020342","test","2","prime_negative","190","7","180","1","332","84","74"
"071218","15:17:48","493020342","test","2","intention_check","191","7","180","0","2500","84","74"
"071218","15:17:48","493020342","test","2","prime_positive","192","3","177","1","701","84","74"
"071218","15:17:48","493020342","test","2","intention_check","193","3","177","1","490","84","74"
"071218","15:17:48","493020342","test","2","prime_negative","194","4","23","1","339","84","75"
"071218","15:17:48","493020342","test","2","intention_check","195","4","23","0","2500","84","75"
"071218","15:17:48","493020342","test","2","prime_negative","196","2","41","0","664","84","73"
"071218","15:17:48","493020342","test","2","intention_check","197","2","41","1","596","84","73"
"071218","15:17:48","493020342","test","2","prime_negative","198","12","188","1","375","84","74"
"071218","15:17:48","493020342","test","2","intention_check","199","12","188","0","2500","84","74"
"071218","15:17:48","493020342","test","2","prime_negative","200","11","1","1","498","84","74"
"071218","15:17:48","493020342","test","2","intention_check","201","11","1","0","2500","84","74"
"071218","15:17:48","493020342","test","2","prime_negative","202","6","34","1","360","84","75"
"071218","15:17:48","493020342","test","2","intention_check","203","6","34","0","2500","84","75"
"071218","15:17:48","493020342","test","2","prime_positive","204","1","2","1","292","84","75"
"071218","15:17:48","493020342","test","2","intention_check","205","1","2","0","2500","84","75"
"071218","15:17:48","493020342","test","2","prime_positive","206","9","88","1","276","85","75"
"071218","15:17:48","493020342","test","2","intention_check","207","9","88","0","2500","85","75"
"071218","15:17:48","493020342","test","2","prime_positive","208","4","90","1","883","85","75"
"071218","15:17:48","493020342","test","2","intention_check","209","4","90","0","2500","85","75"
"071218","15:17:48","493020342","test","2","prime_positive","210","8","31","1","644","85","75"
"071218","15:17:48","493020342","test","2","intention_check","211","8","31","0","2500","85","75"
"071218","15:17:48","493020342","test","2","prime_positive","212","5","148","1","164","86","75"
"071218","15:17:48","493020342","test","2","intention_check","213","5","148","0","2500","86","75"
"071218","15:17:48","493020342","test","2","prime_negative","214","4","126","0","3747","86","73"
"071218","15:17:48","493020342","test","2","intention_check","215","4","126","0","2500","86","73"
"071218","15:17:48","493020342","test","2","prime_negative","216","1","7","0","499","86","72"
"071218","15:17:48","493020342","test","2","intention_check","217","1","7","1","808","86","72"
"071218","15:17:48","493020342","test","2","prime_positive","218","7","191","1","248","86","72"
"071218","15:17:48","493020342","test","2","intention_check","219","7","191","0","2500","86","72"
"071218","15:17:48","493020342","test","2","prime_positive","220","11","55","1","332","86","72"
"071218","15:17:48","493020342","test","2","intention_check","221","11","55","0","2500","86","72"
"071218","15:17:48","493020342","test","2","prime_positive","222","2","183","1","315","86","72"
"071218","15:17:48","493020342","test","2","intention_check","223","2","183","0","2500","86","72"
"071218","15:17:48","493020342","test","2","prime_positive","224","6","143","1","297","87","72"
"071218","15:17:48","493020342","test","2","intention_check","225","6","143","0","2500","87","72"
"071218","15:17:48","493020342","test","2","prime_positive","226","12","122","0","511","85","72"
"071218","15:17:48","493020342","test","2","intention_check","227","12","122","0","2500","85","72"
"071218","15:17:48","493020342","test","2","prime_negative","228","9","136","1","318","85","72"
"071218","15:17:48","493020342","test","2","intention_check","229","9","136","0","2500","85","72"
"071218","15:17:48","493020342","test","2","prime_positive","230","1","28","1","255","85","72"
"071218","15:17:48","493020342","test","2","intention_check","231","1","28","0","2500","85","72"
"071218","15:17:48","493020342","test","2","prime_positive","232","6","159","1","411","85","72"
"071218","15:17:48","493020342","test","2","intention_check","233","6","159","0","2500","85","72"
"071218","15:17:48","493020342","test","2","prime_positive","234","8","58","1","475","86","72"
"071218","15:17:48","493020342","test","2","intention_check","235","8","58","0","2500","86","72"
"071218","15:17:48","493020342","test","2","prime_positive","236","10","54","1","4025","86","72"
"071218","15:17:48","493020342","test","2","intention_check","237","10","54","0","2500","86","72"
"071218","15:17:48","493020342","test","2","prime_positive","238","7","22","1","320","86","72"
"071218","15:17:48","493020342","test","2","intention_check","239","7","22","0","2500","86","72"
"071218","15:17:48","493020342","test","2","prime_negative","240","10","117","1","525","86","73"
"071218","15:17:48","493020342","test","2","intention_check","241","10","117","0","2500","86","73"
"071218","15:22:45","883659666","practice","1","prime_positive_practice","5","0","0","0","4350","0","0"
"071218","15:22:45","883659666","practice","1","intention_check_practice","6","0","0","0","2500","0","0"
"071218","15:22:45","883659666","practice","1","prime_negative_practice","7","0","0","0","2645","0","0"
"071218","15:22:45","883659666","practice","1","intention_check_practice","8","0","0","0","2500","0","0"
"071218","15:22:45","883659666","practice","1","prime_negative_practice","9","0","0","0","2544","0","0"
"071218","15:22:45","883659666","practice","1","intention_check_practice","10","0","0","1","1001","0","0"
"071218","15:22:45","883659666","practice","1","prime_negative_practice","11","0","0","1","1096","0","0"
"071218","15:22:45","883659666","practice","1","intention_check_practice","12","0","0","0","2500","0","0"
"071218","15:22:45","883659666","practice","1","prime_negative_practice","13","0","0","1","857","0","0"
"071218","15:22:45","883659666","practice","1","intention_check_practice","14","0","0","0","2500","0","0"
"071218","15:22:45","883659666","practice","1","prime_negative_practice","15","0","0","0","2082","0","0"
"071218","15:22:45","883659666","practice","1","intention_check_practice","16","0","0","1","725","0","0"
"071218","15:22:45","883659666","practice","1","prime_positive_practice","17","0","0","1","1015","0","0"
"071218","15:22:45","883659666","practice","1","intention_check_practice","18","0","0","1","655","0","0"
"071218","15:22:45","883659666","practice","1","prime_positive_practice","19","0","0","0","1777","0","0"
"071218","15:22:45","883659666","practice","1","intention_check_practice","20","0","0","0","2500","0","0"
"071218","15:22:45","883659666","practice","1","prime_positive_practice","21","0","0","0","2290","0","0"
"071218","15:22:45","883659666","practice","1","intention_check_practice","22","0","0","1","1049","0","0"
"071218","15:22:45","883659666","practice","1","prime_positive_practice","23","0","0","1","721","0","0"
"071218","15:22:45","883659666","practice","1","intention_check_practice","24","0","0","1","848","0","0"
"071218","15:22:45","883659666","test","2","prime_negative","2","7","47","1","664","0","100"
"071218","15:22:45","883659666","test","2","intention_check","3","7","47","1","679","0","100"
"071218","15:22:45","883659666","test","2","prime_negative","4","10","107","1","590","0","100"
"071218","15:22:45","883659666","test","2","intention_check","5","10","107","0","2500","0","100"
"071218","15:22:45","883659666","test","2","prime_positive","6","12","91","0","602","0","100"
"071218","15:22:45","883659666","test","2","intention_check","7","12","91","0","2500","0","100"
"071218","15:22:45","883659666","test","2","prime_positive","8","7","20","1","394","50","100"
"071218","15:22:45","883659666","test","2","intention_check","9","7","20","1","772","50","100"
"071218","15:22:45","883659666","test","2","prime_negative","10","1","177","0","859","50","66"
"071218","15:22:45","883659666","test","2","intention_check","11","1","177","1","310","50","66"
"071218","15:22:45","883659666","test","2","prime_positive","12","3","157","1","516","66","66"
"071218","15:22:45","883659666","test","2","intention_check","13","3","157","1","631","66","66"
"071218","15:22:45","883659666","test","2","prime_negative","14","3","102","0","636","66","50"
"071218","15:22:45","883659666","test","2","intention_check","15","3","102","1","451","66","50"
"071218","15:22:45","883659666","test","2","prime_positive","16","6","57","1","619","75","50"
"071218","15:22:45","883659666","test","2","intention_check","17","6","57","0","2500","75","50"
"071218","15:22:45","883659666","test","2","prime_negative","18","6","5","1","652","75","60"
"071218","15:22:45","883659666","test","2","intention_check","19","6","5","0","2500","75","60"
"071218","15:22:45","883659666","test","2","prime_negative","20","4","78","1","765","75","66"
"071218","15:22:45","883659666","test","2","intention_check","21","4","78","0","2500","75","66"
"071218","15:22:45","883659666","test","2","prime_positive","22","2","31","1","472","80","66"
"071218","15:22:45","883659666","test","2","intention_check","23","2","31","1","473","80","66"
"071218","15:22:45","883659666","test","2","prime_positive","24","4","14","1","564","83","66"
"071218","15:22:45","883659666","test","2","intention_check","25","4","14","0","2500","83","66"
"071218","15:22:45","883659666","test","2","prime_positive","26","8","168","1","725","85","66"
"071218","15:22:45","883659666","test","2","intention_check","27","8","168","1","1394","85","66"
"071218","15:22:45","883659666","test","2","prime_negative","28","12","80","0","555","85","57"
"071218","15:22:45","883659666","test","2","intention_check","29","12","80","0","2500","85","57"
"071218","15:22:45","883659666","test","2","prime_negative","30","5","101","1","466","85","62"
"071218","15:22:45","883659666","test","2","intention_check","31","5","101","0","2500","85","62"
"071218","15:22:45","883659666","test","2","prime_negative","32","7","171","1","583","85","66"
"071218","15:22:45","883659666","test","2","intention_check","33","7","171","0","2500","85","66"
"071218","15:22:45","883659666","test","2","prime_negative","34","4","60","1","412","85","70"
"071218","15:22:45","883659666","test","2","intention_check","35","4","60","0","2500","85","70"
"071218","15:22:45","883659666","test","2","prime_negative","36","1","1","0","746","85","63"
"071218","15:22:45","883659666","test","2","intention_check","37","1","1","1","429","85","63"
"071218","15:22:45","883659666","test","2","prime_negative","38","12","95","0","882","85","58"
"071218","15:22:45","883659666","test","2","intention_check","39","12","95","0","2500","85","58"
"071218","15:22:45","883659666","test","2","prime_positive","40","8","181","1","615","87","58"
"071218","15:22:45","883659666","test","2","intention_check","41","8","181","0","2500","87","58"
"071218","15:22:45","883659666","test","2","prime_negative","42","3","114","1","468","87","61"
"071218","15:22:45","883659666","test","2","intention_check","43","3","114","0","2500","87","61"
"071218","15:22:45","883659666","test","2","prime_negative","44","9","154","0","487","87","57"
"071218","15:22:45","883659666","test","2","intention_check","45","9","154","0","2500","87","57"
"071218","15:22:45","883659666","test","2","prime_positive","46","6","11","1","448","88","57"
"071218","15:22:45","883659666","test","2","intention_check","47","6","11","1","834","88","57"
"071218","15:22:45","883659666","test","2","prime_positive","48","3","145","1","368","90","57"
"071218","15:22:45","883659666","test","2","intention_check","49","3","145","1","290","90","57"
"071218","15:22:45","883659666","test","2","prime_positive","50","11","13","1","598","90","57"
"071218","15:22:45","883659666","test","2","intention_check","51","11","13","0","2500","90","57"
"071218","15:22:45","883659666","test","2","prime_negative","52","8","93","0","671","90","53"
"071218","15:22:45","883659666","test","2","intention_check","53","8","93","1","326","90","53"
"071218","15:22:45","883659666","test","2","prime_negative","54","6","26","1","535","90","56"
"071218","15:22:45","883659666","test","2","intention_check","55","6","26","0","2500","90","56"
"071218","15:22:45","883659666","test","2","prime_negative","56","2","90","0","516","90","52"
"071218","15:22:45","883659666","test","2","intention_check","57","2","90","1","337","90","52"
"071218","15:22:45","883659666","test","2","prime_positive","58","7","185","1","375","91","52"
"071218","15:22:45","883659666","test","2","intention_check","59","7","185","1","310","91","52"
"071218","15:22:45","883659666","test","2","prime_positive","60","2","88","1","381","92","52"
"071218","15:22:45","883659666","test","2","intention_check","61","2","88","1","279","92","52"
"071218","15:22:45","883659666","test","2","prime_negative","62","10","133","0","464","92","50"
"071218","15:22:45","883659666","test","2","intention_check","63","10","133","1","584","92","50"
"071218","15:22:45","883659666","test","2","prime_negative","64","11","96","1","508","92","52"
"071218","15:22:45","883659666","test","2","intention_check","65","11","96","0","2500","92","52"
"071218","15:22:45","883659666","test","2","prime_negative","66","7","160","0","665","92","50"
"071218","15:22:45","883659666","test","2","intention_check","67","7","160","0","2500","92","50"
"071218","15:22:45","883659666","test","2","prime_positive","68","10","108","0","517","85","50"
"071218","15:22:45","883659666","test","2","intention_check","69","10","108","0","2500","85","50"
"071218","15:22:45","883659666","test","2","prime_negative","70","9","42","1","706","85","52"
"071218","15:22:45","883659666","test","2","intention_check","71","9","42","0","2500","85","52"
"071218","15:22:45","883659666","test","2","prime_positive","72","1","184","1","369","86","52"
"071218","15:22:45","883659666","test","2","intention_check","73","1","184","0","2500","86","52"
"071218","15:22:45","883659666","test","2","prime_positive","74","9","197","1","676","87","52"
"071218","15:22:45","883659666","test","2","intention_check","75","9","197","0","2500","87","52"
"071218","15:22:45","883659666","test","2","prime_negative","76","12","187","0","429","87","50"
"071218","15:22:45","883659666","test","2","intention_check","77","12","187","1","1395","87","50"
"071218","15:22:45","883659666","test","2","prime_positive","78","4","6","0","654","82","50"
"071218","15:22:45","883659666","test","2","intention_check","79","4","6","0","2500","82","50"
"071218","15:22:45","883659666","test","2","prime_negative","80","4","98","1","379","82","52"
"071218","15:22:45","883659666","test","2","intention_check","81","4","98","0","2500","82","52"
"071218","15:22:45","883659666","test","2","prime_positive","82","5","125","0","433","77","52"
"071218","15:22:45","883659666","test","2","intention_check","83","5","125","0","2500","77","52"
"071218","15:22:45","883659666","test","2","prime_positive","84","12","40","1","502","78","52"
"071218","15:22:45","883659666","test","2","intention_check","85","12","40","1","414","78","52"
"071218","15:22:45","883659666","test","2","prime_negative","86","10","124","0","461","78","50"
"071218","15:22:45","883659666","test","2","intention_check","87","10","124","1","279","78","50"
"071218","15:22:45","883659666","test","2","prime_negative","88","2","34","0","399","78","48"
"071218","15:22:45","883659666","test","2","intention_check","89","2","34","1","308","78","48"
"071218","15:22:45","883659666","test","2","prime_positive","90","5","23","1","416","80","48"
"071218","15:22:45","883659666","test","2","intention_check","91","5","23","1","925","80","48"
"071218","15:22:45","883659666","test","2","prime_positive","92","11","156","0","564","76","48"
"071218","15:22:45","883659666","test","2","intention_check","93","11","156","0","2500","76","48"
"071218","15:22:45","883659666","test","2","prime_positive","94","4","178","1","474","77","48"
"071218","15:22:45","883659666","test","2","intention_check","95","4","178","0","2500","77","48"
"071218","15:22:45","883659666","test","2","prime_positive","96","10","55","1","408","78","48"
"071218","15:22:45","883659666","test","2","intention_check","97","10","55","1","252","78","48"
"071218","15:22:45","883659666","test","2","prime_negative","98","5","193","1","534","78","50"
"071218","15:22:45","883659666","test","2","intention_check","99","5","193","0","2500","78","50"
"071218","15:22:45","883659666","test","2","prime_negative","100","3","66","0","520","78","48"
"071218","15:22:45","883659666","test","2","intention_check","101","3","66","1","280","78","48"
"071218","15:22:45","883659666","test","2","prime_negative","102","1","118","0","502","78","46"
"071218","15:22:45","883659666","test","2","intention_check","103","1","118","1","242","78","46"
"071218","15:22:45","883659666","test","2","prime_positive","104","2","121","1","394","79","46"
"071218","15:22:45","883659666","test","2","intention_check","105","2","121","1","223","79","46"
"071218","15:22:45","883659666","test","2","prime_positive","106","6","24","1","547","80","46"
"071218","15:22:45","883659666","test","2","intention_check","107","6","24","1","926","80","46"
"071218","15:22:45","883659666","test","2","prime_positive","108","3","192","1","398","80","46"
"071218","15:22:45","883659666","test","2","intention_check","109","3","192","1","174","80","46"
"071218","15:22:45","883659666","test","2","prime_negative","110","6","146","1","522","80","48"
"071218","15:22:45","883659666","test","2","intention_check","111","6","146","0","2500","80","48"
"071218","15:22:45","883659666","test","2","prime_positive","112","9","135","1","637","81","48"
"071218","15:22:45","883659666","test","2","intention_check","113","9","135","0","2500","81","48"
"071218","15:22:45","883659666","test","2","prime_positive","114","12","36","1","453","82","48"
"071218","15:22:45","883659666","test","2","intention_check","115","12","36","1","309","82","48"
"071218","15:22:45","883659666","test","2","prime_positive","116","7","94","1","363","82","48"
"071218","15:22:45","883659666","test","2","intention_check","117","7","94","1","257","82","48"
"071218","15:22:45","883659666","test","2","prime_negative","118","11","170","1","1951","82","50"
"071218","15:22:45","883659666","test","2","intention_check","119","11","170","0","2500","82","50"
"071218","15:22:45","883659666","test","2","prime_positive","120","1","54","1","580","83","50"
"071218","15:22:45","883659666","test","2","intention_check","121","1","54","1","617","83","50"
"071218","15:22:45","883659666","test","2","prime_positive","122","8","110","1","451","83","50"
"071218","15:22:45","883659666","test","2","intention_check","123","8","110","1","275","83","50"
"071218","15:22:45","883659666","test","2","prime_negative","124","8","138","0","476","83","48"
"071218","15:22:45","883659666","test","2","intention_check","125","8","138","1","274","83","48"
"071218","15:22:45","883659666","test","2","prime_positive","126","3","163","1","316","84","48"
"071218","15:22:45","883659666","test","2","intention_check","127","3","163","1","190","84","48"
"071218","15:22:45","883659666","test","2","prime_negative","128","9","61","0","450","84","46"
"071218","15:22:45","883659666","test","2","intention_check","129","9","61","1","610","84","46"
"071218","15:22:45","883659666","test","2","prime_negative","130","8","128","0","509","84","45"
"071218","15:22:45","883659666","test","2","intention_check","131","8","128","1","498","84","45"
"071218","15:22:45","883659666","test","2","prime_positive","132","7","53","1","463","84","45"
"071218","15:22:45","883659666","test","2","intention_check","133","7","53","1","621","84","45"
"071218","15:22:45","883659666","test","2","prime_negative","134","6","9","1","562","84","47"
"071218","15:22:45","883659666","test","2","intention_check","135","6","9","0","2500","84","47"
"071218","15:22:45","883659666","test","2","prime_positive","136","6","155","0","811","82","47"
"071218","15:22:45","883659666","test","2","intention_check","137","6","155","0","2500","82","47"
"071218","15:22:45","883659666","test","2","prime_negative","138","2","112","0","562","82","45"
"071218","15:22:45","883659666","test","2","intention_check","139","2","112","1","472","82","45"
"071218","15:22:45","883659666","test","2","prime_positive","140","5","18","1","527","82","45"
"071218","15:22:45","883659666","test","2","intention_check","141","5","18","1","259","82","45"
"071218","15:22:45","883659666","test","2","prime_positive","142","10","71","0","510","80","45"
"071218","15:22:45","883659666","test","2","intention_check","143","10","71","1","299","80","45"
"071218","15:22:45","883659666","test","2","prime_negative","144","5","56","1","310","80","47"
"071218","15:22:45","883659666","test","2","intention_check","145","5","56","1","396","80","47"
"071218","15:22:45","883659666","test","2","prime_negative","146","4","131","1","128","80","48"
"071218","15:22:45","883659666","test","2","intention_check","147","4","131","0","2500","80","48"
"071218","15:22:45","883659666","test","2","prime_positive","148","8","43","0","364","78","48"
"071218","15:22:45","883659666","test","2","intention_check","149","8","43","0","2500","78","48"
"071218","15:22:45","883659666","test","2","prime_negative","150","3","70","0","405","78","47"
"071218","15:22:45","883659666","test","2","intention_check","151","3","70","1","251","78","47"
"071218","15:22:45","883659666","test","2","prime_negative","152","10","167","1","745","78","48"
"071218","15:22:45","883659666","test","2","intention_check","153","10","167","0","2500","78","48"
"071218","15:22:45","883659666","test","2","prime_positive","154","12","130","0","930","76","48"
"071218","15:22:45","883659666","test","2","intention_check","155","12","130","0","2500","76","48"
"071218","15:22:45","883659666","test","2","prime_positive","156","9","21","1","621","76","48"
"071218","15:22:45","883659666","test","2","intention_check","157","9","21","0","2500","76","48"
"071218","15:22:45","883659666","test","2","prime_negative","158","11","85","0","424","76","47"
"071218","15:22:45","883659666","test","2","intention_check","159","11","85","0","2500","76","47"
"071218","15:22:45","883659666","test","2","prime_negative","160","1","148","1","330","76","48"
"071218","15:22:45","883659666","test","2","intention_check","161","1","148","0","2500","76","48"
"071218","15:22:45","883659666","test","2","prime_negative","162","12","162","1","751","76","50"
"071218","15:22:45","883659666","test","2","intention_check","163","12","162","0","2500","76","50"
"071218","15:22:45","883659666","test","2","prime_positive","164","2","142","0","365","75","50"
"071218","15:22:45","883659666","test","2","intention_check","165","2","142","0","2500","75","50"
"071218","15:22:45","883659666","test","2","prime_negative","166","7","169","1","615","75","51"
"071218","15:22:45","883659666","test","2","intention_check","167","7","169","0","2500","75","51"
"071218","15:22:45","883659666","test","2","prime_negative","168","4","106","1","737","75","52"
"071218","15:22:45","883659666","test","2","intention_check","169","4","106","0","2500","75","52"
"071218","15:22:45","883659666","test","2","prime_positive","170","4","117","1","1757","75","52"
"071218","15:22:45","883659666","test","2","intention_check","171","4","117","0","2500","75","52"
"071218","15:22:45","883659666","test","2","prime_positive","172","11","4","1","527","76","52"
"071218","15:22:45","883659666","test","2","intention_check","173","11","4","0","2500","76","52"
"071218","15:22:45","883659666","test","2","prime_positive","174","1","75","1","703","76","52"
"071218","15:22:45","883659666","test","2","intention_check","175","1","75","1","1157","76","52"
"071218","15:22:45","883659666","test","2","prime_positive","176","6","152","0","469","75","52"
"071218","15:22:45","883659666","test","2","intention_check","177","6","152","0","2500","75","52"
"071218","15:22:45","883659666","test","2","prime_positive","178","12","92","0","640","73","52"
"071218","15:22:45","883659666","test","2","intention_check","179","12","92","0","2500","73","52"
"071218","15:22:45","883659666","test","2","prime_negative","180","6","188","1","491","73","53"
"071218","15:22:45","883659666","test","2","intention_check","181","6","188","0","2500","73","53"
"071218","15:22:45","883659666","test","2","prime_negative","182","9","33","1","739","73","54"
"071218","15:22:45","883659666","test","2","intention_check","183","9","33","0","2500","73","54"
"071218","15:22:45","883659666","test","2","prime_negative","184","10","164","1","1062","73","55"
"071218","15:22:45","883659666","test","2","intention_check","185","10","164","0","2500","73","55"
"071218","15:22:45","883659666","test","2","prime_negative","186","1","79","0","490","73","54"
"071218","15:22:45","883659666","test","2","intention_check","187","1","79","1","332","73","54"
"071218","15:22:45","883659666","test","2","prime_negative","188","3","99","0","404","73","53"
"071218","15:22:45","883659666","test","2","intention_check","189","3","99","1","378","73","53"
"071218","15:22:45","883659666","test","2","prime_positive","190","3","65","1","775","73","53"
"071218","15:22:45","883659666","test","2","intention_check","191","3","65","0","2500","73","53"
"071218","15:22:45","883659666","test","2","prime_positive","192","1","173","0","584","72","53"
"071218","15:22:45","883659666","test","2","intention_check","193","1","173","0","2500","72","53"
"071218","15:22:45","883659666","test","2","prime_negative","194","11","37","1","646","72","54"
"071218","15:22:45","883659666","test","2","intention_check","195","11","37","0","2500","72","54"
"071218","15:22:45","883659666","test","2","prime_positive","196","9","116","0","571","70","54"
"071218","15:22:45","883659666","test","2","intention_check","197","9","116","0","2500","70","54"
"071218","15:22:45","883659666","test","2","prime_negative","198","5","7","0","487","70","52"
"071218","15:22:45","883659666","test","2","intention_check","199","5","7","0","2500","70","52"
"071218","15:22:45","883659666","test","2","prime_negative","200","7","22","1","2324","70","53"
"071218","15:22:45","883659666","test","2","intention_check","201","7","22","0","2500","70","53"
"071218","15:22:45","883659666","test","2","prime_positive","202","8","100","0","563","69","53"
"071218","15:22:45","883659666","test","2","intention_check","203","8","100","0","2500","69","53"
"071218","15:22:45","883659666","test","2","prime_positive","204","10","52","1","511","70","53"
"071218","15:22:45","883659666","test","2","intention_check","205","10","52","0","2500","70","53"
"071218","15:22:45","883659666","test","2","prime_positive","206","5","103","0","607","68","53"
"071218","15:22:45","883659666","test","2","intention_check","207","5","103","0","2500","68","53"
"071218","15:22:45","883659666","test","2","prime_negative","208","8","144","0","594","68","52"
"071218","15:22:45","883659666","test","2","intention_check","209","8","144","0","2500","68","52"
"071218","15:22:45","883659666","test","2","prime_negative","210","2","74","0","443","68","51"
"071218","15:22:45","883659666","test","2","intention_check","211","2","74","1","251","68","51"
"071218","15:22:45","883659666","test","2","prime_negative","212","12","198","0","517","68","50"
"071218","15:22:45","883659666","test","2","intention_check","213","12","198","0","2500","68","50"
"071218","15:22:45","883659666","test","2","prime_negative","214","2","39","0","597","68","50"
"071218","15:22:45","883659666","test","2","intention_check","215","2","39","1","246","68","50"
"071218","15:22:45","883659666","test","2","prime_positive","216","4","143","1","293","69","50"
"071218","15:22:45","883659666","test","2","intention_check","217","4","143","0","2500","69","50"
"071218","15:22:45","883659666","test","2","prime_positive","218","7","69","1","458","69","50"
"071218","15:22:45","883659666","test","2","intention_check","219","7","69","1","297","69","50"
"071218","15:22:45","883659666","test","2","prime_negative","220","10","166","0","474","69","49"
"071218","15:22:45","883659666","test","2","intention_check","221","10","166","0","2500","69","49"
"071218","15:22:45","883659666","test","2","prime_positive","222","11","81","0","517","68","49"
"071218","15:22:45","883659666","test","2","intention_check","223","11","81","0","2500","68","49"
"071218","15:22:45","883659666","test","2","prime_positive","224","2","49","1","633","69","49"
"071218","15:22:45","883659666","test","2","intention_check","225","2","49","0","2500","69","49"
"071218","15:22:45","883659666","test","2","prime_negative","226","5","72","0","498","69","48"
"071218","15:22:45","883659666","test","2","intention_check","227","5","72","0","2500","69","48"
"071218","15:22:45","883659666","test","2","prime_positive","228","10","136","0","631","67","48"
"071218","15:22:45","883659666","test","2","intention_check","229","10","136","0","2500","67","48"
"071218","15:22:45","883659666","test","2","prime_positive","230","2","104","1","611","68","48"
"071218","15:22:45","883659666","test","2","intention_check","231","2","104","1","635","68","48"
"071218","15:22:45","883659666","test","2","prime_negative","232","12","83","0","530","68","47"
