"","V1","date","time","group","subject","build","blocknum","trialnum","blockcode","trialcode","pretrialpause","posttrialpause","windowcenter","trialduration","trialtimeout","blocktimeout","response","correct","latency","inwindow"
"1",1,100918,"12:35:48",607010530,896525387,"4.0.10.0",1,2,"demographics","age",0,0,0,0,0,0,"38",1,4485,0
"2",2,100918,"12:35:48",607010530,896525387,"4.0.10.0",1,3,"demographics","gender",0,0,0,0,0,0,"male",1,5045,0
"3",3,100918,"11:36:06",967070383,548346706,"4.0.10.0",1,2,"demographics","age",0,0,0,0,0,0,"47",1,3339,0
"4",4,100918,"11:36:06",967070383,548346706,"4.0.10.0",1,3,"demographics","gender",0,0,0,0,0,0,"Female",1,5652,0
"5",5,100918,"12:45:59",403116376,232565411,"4.0.10.0",1,2,"demographics","age",0,0,0,0,0,0,"54",1,3725,0
"6",6,100918,"12:45:59",403116376,232565411,"4.0.10.0",1,3,"demographics","gender",0,0,0,0,0,0,"Male",1,7624,0
"7",7,100918,"12:52:03",624935418,844835660,"4.0.10.0",1,2,"demographics","age",0,0,0,0,0,0,"33",1,2427,0
"8",8,100918,"12:52:03",624935418,844835660,"4.0.10.0",1,3,"demographics","gender",0,0,0,0,0,0,"male",1,5134,0
"9",9,100918,"09:46:24",544055788,313716435,"4.0.10.0",1,2,"demographics","age",0,0,0,0,0,0,"31",1,3701,0
"10",10,100918,"09:46:24",544055788,313716435,"4.0.10.0",1,3,"demographics","gender",0,0,0,0,0,0,"Male",1,2991,0
"11",11,100918,"12:53:29",52747213,295994828,"4.0.10.0",1,2,"demographics","age",0,0,0,0,0,0,"31",1,3554,0
"12",12,100918,"12:53:29",52747213,295994828,"4.0.10.0",1,3,"demographics","gender",0,0,0,0,0,0,"FEMALE",1,6474,0
"13",13,100918,"12:57:36",484393856,12844131,"4.0.10.0",1,2,"demographics","age",0,0,0,0,0,0,"35",1,2074,0
"14",14,100918,"12:57:36",484393856,12844131,"4.0.10.0",1,3,"demographics","gender",0,0,0,0,0,0,"male",1,1743,0
"15",15,100918,"12:01:27",283091169,964904693,"4.0.10.0",1,2,"demographics","age",0,0,0,0,0,0,"39",1,3284,0
"16",16,100918,"12:01:27",283091169,964904693,"4.0.10.0",1,3,"demographics","gender",0,0,0,0,0,0,"male",1,5752,0
"17",17,100918,"13:01:48",888504421,54344053,"4.0.10.0",1,2,"demographics","age",0,0,0,0,0,0,"22",1,3757,0
"18",18,100918,"13:01:48",888504421,54344053,"4.0.10.0",1,3,"demographics","gender",0,0,0,0,0,0,"male",1,4240,0
"19",19,100918,"13:02:15",250984694,568558267,"4.0.10.0",1,2,"demographics","age",0,0,0,0,0,0,"49",1,3545,0
"20",20,100918,"13:02:15",250984694,568558267,"4.0.10.0",1,3,"demographics","gender",0,0,0,0,0,0,"Male",1,4698,0
"21",21,100918,"10:03:25",35761142,733556163,"4.0.10.0",1,2,"demographics","age",0,0,0,0,0,0,"39",1,4472,0
"22",22,100918,"10:03:25",35761142,733556163,"4.0.10.0",1,3,"demographics","gender",0,0,0,0,0,0,"female",1,4366,0
"23",23,100918,"10:06:57",220583496,602656804,"4.0.10.0",1,2,"demographics","age",0,0,0,0,0,0,"26",1,4474,0
"24",24,100918,"10:06:57",220583496,602656804,"4.0.10.0",1,3,"demographics","gender",0,0,0,0,0,0,"Female",1,10515,0
"25",25,100918,"12:08:03",470849782,993168739,"4.0.10.0",1,2,"demographics","age",0,0,0,0,0,0,"60",1,3575,0
"26",26,100918,"12:08:03",470849782,993168739,"4.0.10.0",1,3,"demographics","gender",0,0,0,0,0,0,"Male",1,4524,0
"27",27,100918,"10:15:29",891819350,250117793,"4.0.10.0",1,2,"demographics","age",0,0,0,0,0,0,"30",1,3981,0
"28",28,100918,"10:15:29",891819350,250117793,"4.0.10.0",1,3,"demographics","gender",0,0,0,0,0,0,"Male",1,6269,0
"29",29,100918,"13:16:08",609735899,71968352,"4.0.10.0",1,2,"demographics","age",0,0,0,0,0,0,"39",1,3992,0
"30",30,100918,"13:16:08",609735899,71968352,"4.0.10.0",1,3,"demographics","gender",0,0,0,0,0,0,"Female",1,6181,0
"31",31,100918,"13:17:19",609735899,71968352,"4.0.10.0",1,2,"demographics","age",0,0,0,0,0,0,"39",1,4367,0
"32",32,100918,"13:17:19",609735899,71968352,"4.0.10.0",1,3,"demographics","gender",0,0,0,0,0,0,"Female",1,6003,0
"33",33,100918,"13:17:25",587935353,703603455,"4.0.10.0",1,2,"demographics","age",0,0,0,0,0,0,"63",1,7705,0
"34",34,100918,"13:17:25",587935353,703603455,"4.0.10.0",1,3,"demographics","gender",0,0,0,0,0,0,"Male",1,5307,0
"35",35,100918,"10:19:17",850817502,466283845,"4.0.10.0",1,2,"demographics","age",0,0,0,0,0,0,"42",1,2783,0
"36",36,100918,"10:19:17",850817502,466283845,"4.0.10.0",1,3,"demographics","gender",0,0,0,0,0,0,"Male",1,3423,0
"37",37,100918,"12:22:47",573144487,503719655,"4.0.10.0",1,2,"demographics","age",0,0,0,0,0,0,"27",1,2031,0
"38",38,100918,"12:22:47",573144487,503719655,"4.0.10.0",1,3,"demographics","gender",0,0,0,0,0,0,"female",1,2618,0
"39",39,100918,"10:22:47",311418879,406014575,"4.0.10.0",1,2,"demographics","age",0,0,0,0,0,0,"37",1,5781,0
"40",40,100918,"10:22:47",311418879,406014575,"4.0.10.0",1,3,"demographics","gender",0,0,0,0,0,0,"Male",1,8124,0
"41",41,100918,"13:24:33",844217914,844835202,"4.0.10.0",1,2,"demographics","age",0,0,0,0,0,0,"25",1,3947,0
"42",42,100918,"13:24:33",844217914,844835202,"4.0.10.0",1,3,"demographics","gender",0,0,0,0,0,0,"male",1,6010,0
"43",43,100918,"13:29:41",562679605,850346999,"4.0.10.0",1,2,"demographics","age",0,0,0,0,0,0,"37",1,3080,0
"44",44,100918,"13:29:41",562679605,850346999,"4.0.10.0",1,3,"demographics","gender",0,0,0,0,0,0,"female",1,3936,0
"45",45,100918,"13:30:26",220050994,234778349,"4.0.10.0",1,2,"demographics","age",0,0,0,0,0,0,"28",1,2869,0
"46",46,100918,"13:30:26",220050994,234778349,"4.0.10.0",1,3,"demographics","gender",0,0,0,0,0,0,"F",1,2926,0
"47",47,100918,"13:31:20",569536690,805394460,"4.0.10.0",1,2,"demographics","age",0,0,0,0,0,0,"40",1,13168,0
"48",48,100918,"13:31:20",569536690,805394460,"4.0.10.0",1,3,"demographics","gender",0,0,0,0,0,0,"female",1,9305,0
"49",49,100918,"10:31:45",891819350,250117793,"4.0.10.0",1,2,"demographics","age",0,0,0,0,0,0,"30",1,9567,0
"50",50,100918,"10:31:45",891819350,250117793,"4.0.10.0",1,3,"demographics","gender",0,0,0,0,0,0,"Male",1,6374,0
"51",51,100918,"10:33:14",325170286,843794323,"4.0.10.0",1,2,"demographics","age",0,0,0,0,0,0,"45",1,3255,0
"52",52,100918,"10:33:14",325170286,843794323,"4.0.10.0",1,3,"demographics","gender",0,0,0,0,0,0,"Female",1,4079,0
"53",53,100918,"10:37:08",467446487,60396497,"4.0.10.0",1,2,"demographics","age",0,0,0,0,0,0,"30",1,4170,0
"54",54,100918,"10:37:08",467446487,60396497,"4.0.10.0",1,3,"demographics","gender",0,0,0,0,0,0,"Male",1,20591,0
"55",55,100918,"13:38:23",662046693,435991174,"4.0.10.0",1,2,"demographics","age",0,0,0,0,0,0,"42",1,2619,0
"56",56,100918,"13:38:23",662046693,435991174,"4.0.10.0",1,3,"demographics","gender",0,0,0,0,0,0,"female",1,2791,0
"57",57,100918,"13:38:30",190570929,48667600,"4.0.10.0",1,2,"demographics","age",0,0,0,0,0,0,"40",1,4335,0
"58",58,100918,"13:38:30",190570929,48667600,"4.0.10.0",1,3,"demographics","gender",0,0,0,0,0,0,"female",1,7085,0
"59",59,100918,"10:43:17",417052816,473763569,"4.0.10.0",1,2,"demographics","age",0,0,0,0,0,0,"28",1,31380,0
"60",60,100918,"10:43:17",417052816,473763569,"4.0.10.0",1,3,"demographics","gender",0,0,0,0,0,0,"Male",1,4605,0
"61",61,100918,"11:47:34",962919174,178108084,"4.0.10.0",1,2,"demographics","age",0,0,0,0,0,0,"18",1,2515,0
"62",62,100918,"11:47:34",962919174,178108084,"4.0.10.0",1,3,"demographics","gender",0,0,0,0,0,0,"male",1,3480,0
"63",63,100918,"13:54:00",220221688,54382068,"4.0.10.0",1,2,"demographics","age",0,0,0,0,0,0,"35",1,2705,0
"64",64,100918,"13:54:00",220221688,54382068,"4.0.10.0",1,3,"demographics","gender",0,0,0,0,0,0,"Male",1,3804,0
"65",65,100918,"13:55:16",74246284,506870675,"4.0.10.0",1,2,"demographics","age",0,0,0,0,0,0,"",1,10473,0
"66",66,100918,"13:59:09",648134634,84752084,"4.0.10.0",1,2,"demographics","age",0,0,0,0,0,0,"23",1,2086,0
"67",67,100918,"13:59:09",648134634,84752084,"4.0.10.0",1,3,"demographics","gender",0,0,0,0,0,0,"female",1,3128,0
"68",68,100918,"14:03:33",47602434,577900158,"4.0.10.0",1,2,"demographics","age",0,0,0,0,0,0,"42",1,2400,0
"69",69,100918,"14:03:33",47602434,577900158,"4.0.10.0",1,3,"demographics","gender",0,0,0,0,0,0,"female",1,4776,0
"70",70,100918,"13:05:32",144475281,588773360,"4.0.10.0",1,2,"demographics","age",0,0,0,0,0,0,"24",1,6885,0
"71",71,100918,"13:05:32",144475281,588773360,"4.0.10.0",1,3,"demographics","gender",0,0,0,0,0,0,"male",1,4602,0
"72",72,100918,"11:06:38",672512767,735354817,"4.0.10.0",1,2,"demographics","age",0,0,0,0,0,0,"30",1,4699,0
"73",73,100918,"11:06:38",672512767,735354817,"4.0.10.0",1,3,"demographics","gender",0,0,0,0,0,0,"Male",1,4584,0
"74",74,100918,"13:12:02",957315112,92046762,"4.0.10.0",1,2,"demographics","age",0,0,0,0,0,0,"33",1,2715,0
"75",75,100918,"13:12:02",957315112,92046762,"4.0.10.0",1,3,"demographics","gender",0,0,0,0,0,0,"female",1,12641,0
"76",76,100918,"13:14:33",957315112,92046762,"4.0.10.0",1,2,"demographics","age",0,0,0,0,0,0,"33",1,2287,0
"77",77,100918,"13:14:33",957315112,92046762,"4.0.10.0",1,3,"demographics","gender",0,0,0,0,0,0,"female",1,4742,0
"78",78,100918,"14:16:11",100030999,19446760,"4.0.10.0",1,2,"demographics","age",0,0,0,0,0,0,"29",1,2483,0
"79",79,100918,"14:16:11",100030999,19446760,"4.0.10.0",1,3,"demographics","gender",0,0,0,0,0,0,"Female",1,3280,0
"80",80,100918,"11:26:25",508497263,905721027,"4.0.10.0",1,2,"demographics","age",0,0,0,0,0,0,"30",1,4467,0
"81",81,100918,"11:26:25",508497263,905721027,"4.0.10.0",1,3,"demographics","gender",0,0,0,0,0,0,"Male",1,6928,0
"82",82,100918,"14:28:29",599086507,894732663,"4.0.10.0",1,2,"demographics","age",0,0,0,0,0,0,"24",1,3894,0
"83",83,100918,"14:28:29",599086507,894732663,"4.0.10.0",1,3,"demographics","gender",0,0,0,0,0,0,"Male",1,4301,0
"84",84,100918,"14:29:46",268661851,462350836,"4.0.10.0",1,2,"demographics","age",0,0,0,0,0,0,"36",1,2182,0
"85",85,100918,"14:29:46",268661851,462350836,"4.0.10.0",1,3,"demographics","gender",0,0,0,0,0,0,"Female",1,7196,0
"86",86,100918,"11:32:00",980917464,413541867,"4.0.10.0",1,2,"demographics","age",0,0,0,0,0,0,"28",1,1845,0
"87",87,100918,"11:32:00",980917464,413541867,"4.0.10.0",1,3,"demographics","gender",0,0,0,0,0,0,"male",1,4755,0
"88",88,100918,"14:35:58",905334963,562784706,"4.0.10.0",1,2,"demographics","age",0,0,0,0,0,0,"34",1,3261,0
"89",89,100918,"14:35:58",905334963,562784706,"4.0.10.0",1,3,"demographics","gender",0,0,0,0,0,0,"Male",1,3273,0
"90",90,100918,"14:37:42",550287683,174773181,"4.0.10.0",1,2,"demographics","age",0,0,0,0,0,0,"22",1,3352,0
"91",91,100918,"14:37:42",550287683,174773181,"4.0.10.0",1,3,"demographics","gender",0,0,0,0,0,0,"female",1,3430,0
"92",92,100918,"11:50:48",612765311,225367765,"4.0.10.0",1,2,"demographics","age",0,0,0,0,0,0,"",1,9463,0
"93",93,100918,"11:51:12",612765311,225367765,"4.0.10.0",1,2,"demographics","age",0,0,0,0,0,0,"33",1,2746,0
"94",94,100918,"11:51:12",612765311,225367765,"4.0.10.0",1,3,"demographics","gender",0,0,0,0,0,0,"Female",1,5126,0
"95",95,100918,"13:53:06",73827850,167200951,"4.0.10.0",1,2,"demographics","age",0,0,0,0,0,0,"38",1,3982,0
"96",96,100918,"13:53:06",73827850,167200951,"4.0.10.0",1,3,"demographics","gender",0,0,0,0,0,0,"male",1,3891,0
"97",97,100918,"14:59:30",90759216,134166050,"4.0.10.0",1,2,"demographics","age",0,0,0,0,0,0,"32",1,3131,0
"98",98,100918,"14:59:30",90759216,134166050,"4.0.10.0",1,3,"demographics","gender",0,0,0,0,0,0,"Female",1,3909,0
"99",99,100918,"12:01:23",345873910,981379283,"4.0.10.0",1,2,"demographics","age",0,0,0,0,0,0,"38",1,4074,0
"100",100,100918,"12:01:23",345873910,981379283,"4.0.10.0",1,3,"demographics","gender",0,0,0,0,0,0,"Female",1,6392,0
"101",101,100918,"15:13:36",88069358,590792396,"4.0.10.0",1,2,"demographics","age",0,0,0,0,0,0,"29",1,4068,0
"102",102,100918,"15:13:36",88069358,590792396,"4.0.10.0",1,3,"demographics","gender",0,0,0,0,0,0,"female",1,6198,0
"103",103,100918,"13:10:09",572625464,495671078,"4.0.10.0",1,2,"demographics","age",0,0,0,0,0,0,"27",1,3043,0
"104",104,100918,"13:10:09",572625464,495671078,"4.0.10.0",1,3,"demographics","gender",0,0,0,0,0,0,"Male",1,2912,0
"105",105,100918,"15:19:27",65297956,637314706,"4.0.10.0",1,2,"demographics","age",0,0,0,0,0,0,"28",1,3856,0
"106",106,100918,"15:19:27",65297956,637314706,"4.0.10.0",1,3,"demographics","gender",0,0,0,0,0,0,"Male",1,1969,0
"107",107,100918,"15:19:37",498785242,552537347,"4.0.10.0",1,2,"demographics","age",0,0,0,0,0,0,"29",1,6339,0
"108",108,100918,"15:19:37",498785242,552537347,"4.0.10.0",1,3,"demographics","gender",0,0,0,0,0,0,"female",1,4749,0
"109",109,100918,"15:22:32",358265830,295215708,"4.0.10.0",1,2,"demographics","age",0,0,0,0,0,0,"45",1,2827,0
"110",110,100918,"15:22:32",358265830,295215708,"4.0.10.0",1,3,"demographics","gender",0,0,0,0,0,0,"Female",1,4056,0
"111",111,100918,"15:30:52",849392372,471175339,"4.0.10.0",1,2,"demographics","age",0,0,0,0,0,0,"20",1,3030,0
"112",112,100918,"15:30:52",849392372,471175339,"4.0.10.0",1,3,"demographics","gender",0,0,0,0,0,0,"Male",1,4062,0
"113",113,100918,"14:33:02",112753385,862395786,"4.0.10.0",1,2,"demographics","age",0,0,0,0,0,0,"34",1,70952,0
"114",114,100918,"14:33:02",112753385,862395786,"4.0.10.0",1,3,"demographics","gender",0,0,0,0,0,0,"female",1,30885,0
"115",115,100918,"12:33:42",882751122,924093666,"4.0.10.0",1,2,"demographics","age",0,0,0,0,0,0,"28",1,3381,0
"116",116,100918,"12:33:42",882751122,924093666,"4.0.10.0",1,3,"demographics","gender",0,0,0,0,0,0,"female",1,5231,0
"117",117,100918,"21:41:21",556422066,20886049,"4.0.10.0",1,2,"demographics","age",0,0,0,0,0,0,"33",1,5669,0
"118",118,100918,"21:41:21",556422066,20886049,"4.0.10.0",1,3,"demographics","gender",0,0,0,0,0,0,"male",1,8851,0
"119",119,100918,"16:12:05",375625432,57742112,"4.0.10.0",1,2,"demographics","age",0,0,0,0,0,0,"31",1,3491,0
"120",120,100918,"16:12:05",375625432,57742112,"4.0.10.0",1,3,"demographics","gender",0,0,0,0,0,0,"female",1,1848,0
"121",121,100918,"16:12:05",284550005,769193797,"4.0.10.0",1,2,"demographics","age",0,0,0,0,0,0,"21",1,2857,0
"122",122,100918,"16:12:05",284550005,769193797,"4.0.10.0",1,3,"demographics","gender",0,0,0,0,0,0,"female",1,5364,0
"123",123,100918,"13:21:51",334721734,106439191,"4.0.10.0",1,2,"demographics","age",0,0,0,0,0,0,"26",1,5506,0
"124",124,100918,"13:21:51",334721734,106439191,"4.0.10.0",1,3,"demographics","gender",0,0,0,0,0,0,"female",1,5035,0
"125",125,100918,"16:37:43",36774421,865896248,"4.0.10.0",1,2,"demographics","age",0,0,0,0,0,0,"36",1,3391,0
"126",126,100918,"16:37:43",36774421,865896248,"4.0.10.0",1,3,"demographics","gender",0,0,0,0,0,0,"female",1,4129,0
"127",127,100918,"13:39:13",193212325,918487572,"4.0.10.0",1,2,"demographics","age",0,0,0,0,0,0,"22",1,2981,0
"128",128,100918,"13:39:13",193212325,918487572,"4.0.10.0",1,3,"demographics","gender",0,0,0,0,0,0,"female",1,5303,0
"129",129,100918,"15:38:07",669158841,454642253,"4.0.10.0",1,2,"demographics","age",0,0,0,0,0,0,"32",1,3949,0
"130",130,100918,"15:38:07",669158841,454642253,"4.0.10.0",1,3,"demographics","gender",0,0,0,0,0,0,"Female",1,3163,0
"131",131,100918,"16:41:52",915323896,469316046,"4.0.10.0",1,2,"demographics","age",0,0,0,0,0,0,"26",1,2907,0
"132",132,100918,"16:41:52",915323896,469316046,"4.0.10.0",1,3,"demographics","gender",0,0,0,0,0,0,"agender",1,3475,0
"133",133,100918,"16:47:11",621597287,671822725,"4.0.10.0",1,2,"demographics","age",0,0,0,0,0,0,"",1,4306,0
"134",134,100918,"16:47:43",211656567,787243510,"4.0.10.0",1,2,"demographics","age",0,0,0,0,0,0,"24",1,1286,0
"135",135,100918,"16:47:43",211656567,787243510,"4.0.10.0",1,3,"demographics","gender",0,0,0,0,0,0,"Male",1,3241,0
"136",136,100918,"15:47:54",27608756,270612844,"4.0.10.0",1,2,"demographics","age",0,0,0,0,0,0,"22",1,3083,0
"137",137,100918,"15:47:54",27608756,270612844,"4.0.10.0",1,3,"demographics","gender",0,0,0,0,0,0,"Male",1,2917,0
"138",138,100918,"15:51:56",305288824,914741672,"4.0.10.0",1,2,"demographics","age",0,0,0,0,0,0,"31",1,5220,0
"139",139,100918,"15:51:56",305288824,914741672,"4.0.10.0",1,3,"demographics","gender",0,0,0,0,0,0,"male",1,5477,0
"140",140,100918,"15:53:43",54059156,960798448,"4.0.10.0",1,2,"demographics","age",0,0,0,0,0,0,"36",1,3479,0
"141",141,100918,"15:53:43",54059156,960798448,"4.0.10.0",1,3,"demographics","gender",0,0,0,0,0,0,"Male",1,3960,0
"142",142,100918,"16:53:19",905672979,940880246,"4.0.10.0",1,2,"demographics","age",0,0,0,0,0,0,"40",1,3694,0
"143",143,100918,"16:53:19",905672979,940880246,"4.0.10.0",1,3,"demographics","gender",0,0,0,0,0,0,"male",1,3623,0
"144",144,100918,"16:55:18",548574621,297978615,"4.0.10.0",1,2,"demographics","age",0,0,0,0,0,0,"30",1,3176,0
"145",145,100918,"16:55:18",548574621,297978615,"4.0.10.0",1,3,"demographics","gender",0,0,0,0,0,0,"female",1,4477,0
"146",146,100918,"16:56:15",641973428,642742190,"4.0.10.0",1,2,"demographics","age",0,0,0,0,0,0,"20",1,3013,0
"147",147,100918,"16:56:15",641973428,642742190,"4.0.10.0",1,3,"demographics","gender",0,0,0,0,0,0,"Male",1,4984,0
"148",148,100918,"16:55:49",290158792,146903677,"4.0.10.0",1,2,"demographics","age",0,0,0,0,0,0,"39",1,6495,0
"149",149,100918,"16:55:49",290158792,146903677,"4.0.10.0",1,3,"demographics","gender",0,0,0,0,0,0,"male",1,13338,0
"150",150,100918,"16:58:55",372284233,681459573,"4.0.10.0",1,2,"demographics","age",0,0,0,0,0,0,"52",1,14773,0
"151",151,100918,"16:58:55",372284233,681459573,"4.0.10.0",1,3,"demographics","gender",0,0,0,0,0,0,"female",1,4928,0
"152",152,100918,"15:01:21",726971892,422597787,"4.0.10.0",1,2,"demographics","age",0,0,0,0,0,0,"24",1,2306,0
"153",153,100918,"15:01:21",726971892,422597787,"4.0.10.0",1,3,"demographics","gender",0,0,0,0,0,0,"Female",1,4329,0
"154",154,100918,"14:03:16",118519473,473311049,"4.0.10.0",1,2,"demographics","age",0,0,0,0,0,0,"26",1,2810,0
"155",155,100918,"14:03:16",118519473,473311049,"4.0.10.0",1,3,"demographics","gender",0,0,0,0,0,0,"Male",1,7192,0
"156",156,100918,"15:04:36",999595350,830596810,"4.0.10.0",1,2,"demographics","age",0,0,0,0,0,0,"48",1,3426,0
"157",157,100918,"15:04:36",999595350,830596810,"4.0.10.0",1,3,"demographics","gender",0,0,0,0,0,0,"male",1,2976,0
"158",158,100918,"17:03:46",264570814,229012624,"4.0.10.0",1,2,"demographics","age",0,0,0,0,0,0,"30",1,8284,0
"159",159,100918,"17:03:46",264570814,229012624,"4.0.10.0",1,3,"demographics","gender",0,0,0,0,0,0,"Female",1,47717,0
"160",160,100918,"16:05:22",232011066,112920454,"4.0.10.0",1,2,"demographics","age",0,0,0,0,0,0,"44",1,3545,0
"161",161,100918,"16:05:22",232011066,112920454,"4.0.10.0",1,3,"demographics","gender",0,0,0,0,0,0,"male",1,6587,0
"162",162,100918,"16:05:49",804340583,432260325,"4.0.10.0",1,2,"demographics","age",0,0,0,0,0,0,"32",1,3109,0
"163",163,100918,"16:05:49",804340583,432260325,"4.0.10.0",1,3,"demographics","gender",0,0,0,0,0,0,"female",1,5651,0
"164",164,100918,"17:11:21",896610811,484334206,"4.0.10.0",1,2,"demographics","age",0,0,0,0,0,0,"26",1,5571,0
"165",165,100918,"17:11:21",896610811,484334206,"4.0.10.0",1,3,"demographics","gender",0,0,0,0,0,0,"Male",1,6619,0
"166",166,100918,"14:11:37",722343561,572183112,"4.0.10.0",1,2,"demographics","age",0,0,0,0,0,0,"34",1,5633,0
"167",167,100918,"14:11:37",722343561,572183112,"4.0.10.0",1,3,"demographics","gender",0,0,0,0,0,0,"male",1,2036,0
"168",168,100918,"15:13:14",689905363,64516932,"4.0.10.0",1,2,"demographics","age",0,0,0,0,0,0,"20",1,2964,0
"169",169,100918,"15:13:14",689905363,64516932,"4.0.10.0",1,3,"demographics","gender",0,0,0,0,0,0,"Male",1,3401,0
"170",170,100918,"14:13:21",973029853,955409388,"4.0.10.0",1,2,"demographics","age",0,0,0,0,0,0,"23",1,5348,0
"171",171,100918,"14:13:21",973029853,955409388,"4.0.10.0",1,3,"demographics","gender",0,0,0,0,0,0,"Female",1,4862,0
"172",172,100918,"23:13:18",492605840,623805405,"4.0.10.0",1,2,"demographics","age",0,0,0,0,0,0,"18",1,4229,0
"173",173,100918,"23:13:18",492605840,623805405,"4.0.10.0",1,3,"demographics","gender",0,0,0,0,0,0,"Male",1,2737,0
"174",174,100918,"14:14:12",153270653,798531147,"4.0.10.0",1,2,"demographics","age",0,0,0,0,0,0,"27",1,2679,0
"175",175,100918,"14:14:12",153270653,798531147,"4.0.10.0",1,3,"demographics","gender",0,0,0,0,0,0,"male",1,3387,0
"176",176,100918,"17:10:47",905672979,940880246,"4.0.10.0",1,2,"demographics","age",0,0,0,0,0,0,"40",1,3885,0
"177",177,100918,"17:10:47",905672979,940880246,"4.0.10.0",1,3,"demographics","gender",0,0,0,0,0,0,"male",1,4374,0
"178",178,100918,"23:17:12",492605840,623805405,"4.0.10.0",1,2,"demographics","age",0,0,0,0,0,0,"18",1,3403,0
"179",179,100918,"23:17:12",492605840,623805405,"4.0.10.0",1,3,"demographics","gender",0,0,0,0,0,0,"Male",1,2189,0
"180",180,100918,"16:18:46",350134657,476470542,"4.0.10.0",1,2,"demographics","age",0,0,0,0,0,0,"41",1,2712,0
"181",181,100918,"16:18:46",350134657,476470542,"4.0.10.0",1,3,"demographics","gender",0,0,0,0,0,0,"Female",1,3617,0
"182",182,100918,"17:18:48",377158153,338170943,"4.0.10.0",1,2,"demographics","age",0,0,0,0,0,0,"33",1,3034,0
"183",183,100918,"17:18:48",377158153,338170943,"4.0.10.0",1,3,"demographics","gender",0,0,0,0,0,0,"Female",1,3792,0
"184",184,100918,"17:20:26",377158153,338170943,"4.0.10.0",1,2,"demographics","age",0,0,0,0,0,0,"33",1,3527,0
"185",185,100918,"17:20:26",377158153,338170943,"4.0.10.0",1,3,"demographics","gender",0,0,0,0,0,0,"Female",1,5363,0
"186",186,100918,"14:21:22",114577535,537794402,"4.0.10.0",1,2,"demographics","age",0,0,0,0,0,0,"61",1,3679,0
"187",187,100918,"14:21:22",114577535,537794402,"4.0.10.0",1,3,"demographics","gender",0,0,0,0,0,0,"female",1,4415,0
"188",188,100918,"17:22:37",898732236,860827723,"4.0.10.0",1,2,"demographics","age",0,0,0,0,0,0,"31",1,3133,0
"189",189,100918,"17:22:37",898732236,860827723,"4.0.10.0",1,3,"demographics","gender",0,0,0,0,0,0,"Male",1,3238,0
"190",190,100918,"14:23:56",7867303,542557941,"4.0.10.0",1,2,"demographics","age",0,0,0,0,0,0,"47",1,4892,0
"191",191,100918,"14:23:56",7867303,542557941,"4.0.10.0",1,3,"demographics","gender",0,0,0,0,0,0,"male",1,6181,0
"192",192,100918,"23:24:28",360357892,362224917,"4.0.10.0",1,2,"demographics","age",0,0,0,0,0,0,"21",1,3663,0
"193",193,100918,"23:24:28",360357892,362224917,"4.0.10.0",1,3,"demographics","gender",0,0,0,0,0,0,"Male",1,4372,0
"194",194,100918,"16:24:53",744886522,136188342,"4.0.10.0",1,2,"demographics","age",0,0,0,0,0,0,"33",1,2707,0
"195",195,100918,"16:24:53",744886522,136188342,"4.0.10.0",1,3,"demographics","gender",0,0,0,0,0,0,"female",1,3073,0
"196",196,100918,"23:26:02",360357892,362224917,"4.0.10.0",1,2,"demographics","age",0,0,0,0,0,0,"21",1,2546,0
"197",197,100918,"23:26:02",360357892,362224917,"4.0.10.0",1,3,"demographics","gender",0,0,0,0,0,0,"Male",1,5734,0
"198",198,100918,"14:26:09",316413047,857747596,"4.0.10.0",1,2,"demographics","age",0,0,0,0,0,0,"37",1,2081,0
"199",199,100918,"14:26:09",316413047,857747596,"4.0.10.0",1,3,"demographics","gender",0,0,0,0,0,0,"female",1,3343,0
"200",200,100918,"15:26:11",453772235,44704565,"4.0.10.0",1,2,"demographics","age",0,0,0,0,0,0,"29",1,1932,0
"201",201,100918,"15:26:11",453772235,44704565,"4.0.10.0",1,3,"demographics","gender",0,0,0,0,0,0,"male",1,3427,0
"202",202,100918,"17:26:14",904877707,224206107,"4.0.10.0",1,2,"demographics","age",0,0,0,0,0,0,"35",1,2833,0
"203",203,100918,"17:26:14",904877707,224206107,"4.0.10.0",1,3,"demographics","gender",0,0,0,0,0,0,"female",1,3600,0
"204",204,100918,"17:26:33",278446127,324693797,"4.0.10.0",1,2,"demographics","age",0,0,0,0,0,0,"29",1,5616,0
"205",205,100918,"17:26:33",278446127,324693797,"4.0.10.0",1,3,"demographics","gender",0,0,0,0,0,0,"Male",1,5972,0
"206",206,100918,"16:27:45",459665071,389845502,"4.0.10.0",1,2,"demographics","age",0,0,0,0,0,0,"21",1,4524,0
"207",207,100918,"16:27:45",459665071,389845502,"4.0.10.0",1,3,"demographics","gender",0,0,0,0,0,0,"Male",1,4413,0
"208",208,100918,"16:28:27",348356299,855136432,"4.0.10.0",1,2,"demographics","age",0,0,0,0,0,0,"24",1,2802,0
"209",209,100918,"16:28:27",348356299,855136432,"4.0.10.0",1,3,"demographics","gender",0,0,0,0,0,0,"male",1,2492,0
"210",210,100918,"22:28:31",964803176,285007326,"4.0.10.0",1,2,"demographics","age",0,0,0,0,0,0,"31",1,3641,0
"211",211,100918,"22:28:31",964803176,285007326,"4.0.10.0",1,3,"demographics","gender",0,0,0,0,0,0,"Female",1,4704,0
"212",212,100918,"17:29:46",650471296,546686226,"4.0.10.0",1,2,"demographics","age",0,0,0,0,0,0,"32",1,1753,0
"213",213,100918,"17:29:46",650471296,546686226,"4.0.10.0",1,3,"demographics","gender",0,0,0,0,0,0,"female",1,4346,0
"214",214,100918,"17:30:37",503793204,434562554,"4.0.10.0",1,2,"demographics","age",0,0,0,0,0,0,"18",1,2926,0
"215",215,100918,"17:30:37",503793204,434562554,"4.0.10.0",1,3,"demographics","gender",0,0,0,0,0,0,"female",1,3272,0
"216",216,100918,"17:31:13",187034342,201955878,"4.0.10.0",1,2,"demographics","age",0,0,0,0,0,0,"36",1,1934,0
"217",217,100918,"17:31:13",187034342,201955878,"4.0.10.0",1,3,"demographics","gender",0,0,0,0,0,0,"Male",1,2384,0
"218",218,100918,"14:33:12",809611696,401924849,"4.0.10.0",1,2,"demographics","age",0,0,0,0,0,0,"31",1,2816,0
"219",219,100918,"14:33:12",809611696,401924849,"4.0.10.0",1,3,"demographics","gender",0,0,0,0,0,0,"Male",1,4030,0
"220",220,100918,"17:33:23",529681218,532340149,"4.0.10.0",1,2,"demographics","age",0,0,0,0,0,0,"22",1,2541,0
"221",221,100918,"17:33:23",529681218,532340149,"4.0.10.0",1,3,"demographics","gender",0,0,0,0,0,0,"male",1,3265,0
"222",222,100918,"14:33:13",119243026,470773296,"4.0.10.0",1,2,"demographics","age",0,0,0,0,0,0,"28",1,4553,0
"223",223,100918,"14:33:13",119243026,470773296,"4.0.10.0",1,3,"demographics","gender",0,0,0,0,0,0,"female",1,5989,0
"224",224,100918,"17:32:23",158927509,361805861,"4.0.10.0",1,2,"demographics","age",0,0,0,0,0,0,"34",1,3844,0
"225",225,100918,"17:32:23",158927509,361805861,"4.0.10.0",1,3,"demographics","gender",0,0,0,0,0,0,"female",1,7313,0
"226",226,100918,"16:33:12",837907920,841155768,"4.0.10.0",1,2,"demographics","age",0,0,0,0,0,0,"35",1,3083,0
"227",227,100918,"16:33:12",837907920,841155768,"4.0.10.0",1,3,"demographics","gender",0,0,0,0,0,0,"female",1,5876,0
"228",228,100918,"17:34:46",106718457,719942589,"4.0.10.0",1,2,"demographics","age",0,0,0,0,0,0,"36",1,3826,0
"229",229,100918,"17:34:46",106718457,719942589,"4.0.10.0",1,3,"demographics","gender",0,0,0,0,0,0,"male",1,7176,0
"230",230,100918,"17:35:53",259126714,651809349,"4.0.10.0",1,2,"demographics","age",0,0,0,0,0,0,"28",1,2611,0
"231",231,100918,"17:35:53",259126714,651809349,"4.0.10.0",1,3,"demographics","gender",0,0,0,0,0,0,"female",1,3592,0
"232",232,100918,"16:37:18",624781797,911020428,"4.0.10.0",1,2,"demographics","age",0,0,0,0,0,0,"36",1,3290,0
"233",233,100918,"16:37:18",624781797,911020428,"4.0.10.0",1,3,"demographics","gender",0,0,0,0,0,0,"male",1,8343,0
"234",234,100918,"17:38:30",378285797,970010010,"4.0.10.0",1,2,"demographics","age",0,0,0,0,0,0,"25",1,3842,0
"235",235,100918,"17:38:30",378285797,970010010,"4.0.10.0",1,3,"demographics","gender",0,0,0,0,0,0,"Male",1,4301,0
"236",236,100918,"17:37:31",488619837,185996165,"4.0.10.0",1,2,"demographics","age",0,0,0,0,0,0,"28",1,16755,0
"237",237,100918,"17:37:31",488619837,185996165,"4.0.10.0",1,3,"demographics","gender",0,0,0,0,0,0,"Male",1,22881,0
"238",238,100918,"16:41:53",129999586,366051534,"4.0.10.0",1,2,"demographics","age",0,0,0,0,0,0,"42",1,2714,0
"239",239,100918,"16:41:53",129999586,366051534,"4.0.10.0",1,3,"demographics","gender",0,0,0,0,0,0,"f",1,3383,0
"240",240,100918,"14:42:31",507792021,743843968,"4.0.10.0",1,2,"demographics","age",0,0,0,0,0,0,"31",1,2215,0
"241",241,100918,"14:42:31",507792021,743843968,"4.0.10.0",1,3,"demographics","gender",0,0,0,0,0,0,"Female",1,2895,0
"242",242,100918,"17:42:48",651430022,497458263,"4.0.10.0",1,2,"demographics","age",0,0,0,0,0,0,"29",1,3882,0
"243",243,100918,"17:42:48",651430022,497458263,"4.0.10.0",1,3,"demographics","gender",0,0,0,0,0,0,"male",1,3597,0
"244",244,100918,"14:43:35",507792021,743843968,"4.0.10.0",1,2,"demographics","age",0,0,0,0,0,0,"31",1,2142,0
"245",245,100918,"14:43:35",507792021,743843968,"4.0.10.0",1,3,"demographics","gender",0,0,0,0,0,0,"Female",1,2913,0
"246",246,100918,"14:43:41",180377876,182244905,"4.0.10.0",1,2,"demographics","age",0,0,0,0,0,0,"18",1,3620,0
"247",247,100918,"14:43:41",180377876,182244905,"4.0.10.0",1,3,"demographics","gender",0,0,0,0,0,0,"Female",1,4462,0
"248",248,100918,"14:44:34",180377876,182244905,"4.0.10.0",1,2,"demographics","age",0,0,0,0,0,0,"18",1,3101,0
"249",249,100918,"14:44:34",180377876,182244905,"4.0.10.0",1,3,"demographics","gender",0,0,0,0,0,0,"Female",1,4829,0
"250",250,100918,"17:44:31",827645968,368391615,"4.0.10.0",1,2,"demographics","age",0,0,0,0,0,0,"39",1,2622,0
"251",251,100918,"17:44:31",827645968,368391615,"4.0.10.0",1,3,"demographics","gender",0,0,0,0,0,0,"male",1,3140,0
"252",252,100918,"17:46:00",161050462,290861396,"4.0.10.0",1,2,"demographics","age",0,0,0,0,0,0,"26",1,3891,0
"253",253,100918,"17:46:00",161050462,290861396,"4.0.10.0",1,3,"demographics","gender",0,0,0,0,0,0,"male",1,3582,0
"254",254,100918,"16:46:38",941296634,448076782,"4.0.10.0",1,2,"demographics","age",0,0,0,0,0,0,"28",1,5128,0
"255",255,100918,"16:46:38",941296634,448076782,"4.0.10.0",1,3,"demographics","gender",0,0,0,0,0,0,"Female",1,3134,0
"256",256,100918,"22:49:32",693685491,929148515,"4.0.10.0",1,2,"demographics","age",0,0,0,0,0,0,"20",1,3929,0
"257",257,100918,"22:49:32",693685491,929148515,"4.0.10.0",1,3,"demographics","gender",0,0,0,0,0,0,"female",1,3666,0
"258",258,100918,"17:47:37",43761587,173572528,"4.0.10.0",1,2,"demographics","age",0,0,0,0,0,0,"29",1,4392,0
"259",259,100918,"17:47:37",43761587,173572528,"4.0.10.0",1,3,"demographics","gender",0,0,0,0,0,0,"Male",1,3635,0
"260",260,100918,"16:44:00",72365783,649148901,"4.0.10.0",1,2,"demographics","age",0,0,0,0,0,0,"57",1,6511,0
"261",261,100918,"16:44:00",72365783,649148901,"4.0.10.0",1,3,"demographics","gender",0,0,0,0,0,0,"Female",1,5559,0
"262",262,100918,"17:49:17",253959344,561900876,"4.0.10.0",1,2,"demographics","age",0,0,0,0,0,0,"31",1,2749,0
"263",263,100918,"17:49:17",253959344,561900876,"4.0.10.0",1,3,"demographics","gender",0,0,0,0,0,0,"Male",1,3152,0
"264",264,100918,"17:49:18",219849024,371476633,"4.0.10.0",1,2,"demographics","age",0,0,0,0,0,0,"22",1,5834,0
"265",265,100918,"17:49:18",219849024,371476633,"4.0.10.0",1,3,"demographics","gender",0,0,0,0,0,0,"male",1,3113,0
"266",266,100918,"16:50:57",50426155,948338657,"4.0.10.0",1,2,"demographics","age",0,0,0,0,0,0,"28",1,4040,0
"267",267,100918,"16:50:57",50426155,948338657,"4.0.10.0",1,3,"demographics","gender",0,0,0,0,0,0,"female",1,2956,0
"268",268,100918,"16:53:14",73618643,754206392,"4.0.10.0",1,2,"demographics","age",0,0,0,0,0,0,"44",1,5142,0
"269",269,100918,"16:53:14",73618643,754206392,"4.0.10.0",1,3,"demographics","gender",0,0,0,0,0,0,"female",1,6892,0
"270",270,100918,"14:52:57",608787542,1470182,"4.0.10.0",1,2,"demographics","age",0,0,0,0,0,0,"55",1,4129,0
"271",271,100918,"14:52:57",608787542,1470182,"4.0.10.0",1,3,"demographics","gender",0,0,0,0,0,0,"female",1,5174,0
"272",272,100918,"16:54:14",318328182,447347208,"4.0.10.0",1,2,"demographics","age",0,0,0,0,0,0,"21",1,3420,0
"273",273,100918,"16:54:14",318328182,447347208,"4.0.10.0",1,3,"demographics","gender",0,0,0,0,0,0,"female",1,5965,0
"274",274,100918,"17:54:12",178714917,522693926,"4.0.10.0",1,2,"demographics","age",0,0,0,0,0,0,"56",1,3538,0
"275",275,100918,"17:54:12",178714917,522693926,"4.0.10.0",1,3,"demographics","gender",0,0,0,0,0,0,"female",1,7750,0
"276",276,100918,"16:56:28",699523722,628606780,"4.0.10.0",1,2,"demographics","age",0,0,0,0,0,0,"31",1,3416,0
"277",277,100918,"16:56:28",699523722,628606780,"4.0.10.0",1,3,"demographics","gender",0,0,0,0,0,0,"female",1,4855,0
"278",278,100918,"17:56:49",440136775,628074016,"4.0.10.0",1,2,"demographics","age",0,0,0,0,0,0,"30",1,4076,0
"279",279,100918,"17:56:49",440136775,628074016,"4.0.10.0",1,3,"demographics","gender",0,0,0,0,0,0,"Male",1,4358,0
"280",280,100918,"16:57:08",277713639,770933480,"4.0.10.0",1,2,"demographics","age",0,0,0,0,0,0,"37",1,6079,0
"281",281,100918,"16:57:08",277713639,770933480,"4.0.10.0",1,3,"demographics","gender",0,0,0,0,0,0,"Male",1,8398,0
"282",282,100918,"14:59:13",379849936,61026600,"4.0.10.0",1,2,"demographics","age",0,0,0,0,0,0,"20",1,3102,0
"283",283,100918,"14:59:13",379849936,61026600,"4.0.10.0",1,3,"demographics","gender",0,0,0,0,0,0,"Female",1,3276,0
"284",284,100918,"16:57:02",639251855,757389099,"4.0.10.0",1,2,"demographics","age",0,0,0,0,0,0,"50",1,5288,0
"285",285,100918,"16:57:02",639251855,757389099,"4.0.10.0",1,3,"demographics","gender",0,0,0,0,0,0,"Male",1,4204,0
"286",286,100918,"16:58:01",993350279,123750149,"4.0.10.0",1,2,"demographics","age",0,0,0,0,0,0,"37",1,2656,0
"287",287,100918,"16:58:01",993350279,123750149,"4.0.10.0",1,3,"demographics","gender",0,0,0,0,0,0,"female",1,5236,0
"288",288,100918,"17:58:10",60115423,319942253,"4.0.10.0",1,2,"demographics","age",0,0,0,0,0,0,"55",1,4045,0
"289",289,100918,"17:58:10",60115423,319942253,"4.0.10.0",1,3,"demographics","gender",0,0,0,0,0,0,"female",1,4477,0
"290",290,100918,"17:58:19",111161897,519640641,"4.0.10.0",1,2,"demographics","age",0,0,0,0,0,0,"21",1,3526,0
"291",291,100918,"17:58:19",111161897,519640641,"4.0.10.0",1,3,"demographics","gender",0,0,0,0,0,0,"male",1,4854,0
"292",292,100918,"18:02:22",422652434,336044289,"4.0.10.0",1,2,"demographics","age",0,0,0,0,0,0,"28",1,7799,0
"293",293,100918,"18:02:22",422652434,336044289,"4.0.10.0",1,3,"demographics","gender",0,0,0,0,0,0,"Female",1,7028,0
"294",294,100918,"18:02:36",974158334,739487200,"4.0.10.0",1,2,"demographics","age",0,0,0,0,0,0,"36",1,2406,0
"295",295,100918,"18:02:36",974158334,739487200,"4.0.10.0",1,3,"demographics","gender",0,0,0,0,0,0,"Male",1,3048,0
"296",296,100918,"18:01:29",625497271,202280389,"4.0.10.0",1,2,"demographics","age",0,0,0,0,0,0,"29",1,3004,0
"297",297,100918,"18:01:29",625497271,202280389,"4.0.10.0",1,3,"demographics","gender",0,0,0,0,0,0,"female",1,2978,0
"298",298,100918,"18:02:38",918836292,815051225,"4.0.10.0",1,2,"demographics","age",0,0,0,0,0,0,"19",1,2302,0
"299",299,100918,"18:02:38",918836292,815051225,"4.0.10.0",1,3,"demographics","gender",0,0,0,0,0,0,"female",1,2662,0
"300",300,100918,"18:01:33",923031405,266712301,"4.0.10.0",1,2,"demographics","age",0,0,0,0,0,0,"34",1,3228,0
"301",301,100918,"18:01:33",923031405,266712301,"4.0.10.0",1,3,"demographics","gender",0,0,0,0,0,0,"female",1,16074,0
"302",302,100918,"18:03:50",382203361,123168415,"4.0.10.0",1,2,"demographics","age",0,0,0,0,0,0,"22",1,2166,0
"303",303,100918,"18:03:50",382203361,123168415,"4.0.10.0",1,3,"demographics","gender",0,0,0,0,0,0,"Female",1,38702,0
"304",304,100918,"18:03:21",796283302,373066428,"4.0.10.0",1,2,"demographics","age",0,0,0,0,0,0,"21",1,2461,0
"305",305,100918,"18:03:21",796283302,373066428,"4.0.10.0",1,3,"demographics","gender",0,0,0,0,0,0,"female",1,6334,0
"306",306,100918,"18:03:56",24981829,11441115,"4.0.10.0",1,2,"demographics","age",0,0,0,0,0,0,"26",1,3482,0
"307",307,100918,"18:03:56",24981829,11441115,"4.0.10.0",1,3,"demographics","gender",0,0,0,0,0,0,"Male",1,3396,0
"308",308,100918,"18:04:47",461366135,563686524,"4.0.10.0",1,2,"demographics","age",0,0,0,0,0,0,"29",1,3124,0
"309",309,100918,"18:04:47",461366135,563686524,"4.0.10.0",1,3,"demographics","gender",0,0,0,0,0,0,"Male",1,3560,0
"310",310,100918,"18:06:03",712726557,338213294,"4.0.10.0",1,2,"demographics","age",0,0,0,0,0,0,"27",1,4746,0
"311",311,100918,"18:06:03",712726557,338213294,"4.0.10.0",1,3,"demographics","gender",0,0,0,0,0,0,"female",1,2748,0
"312",312,100918,"17:06:29",261606451,2571515,"4.0.10.0",1,2,"demographics","age",0,0,0,0,0,0,"37",1,4188,0
"313",313,100918,"17:06:29",261606451,2571515,"4.0.10.0",1,3,"demographics","gender",0,0,0,0,0,0,"female",1,7568,0
"314",314,100918,"15:07:25",662373677,391076134,"4.0.10.0",1,2,"demographics","age",0,0,0,0,0,0,"31",1,4522,0
"315",315,100918,"15:07:25",662373677,391076134,"4.0.10.0",1,3,"demographics","gender",0,0,0,0,0,0,"female",1,5649,0
"316",316,100918,"15:06:57",921911485,687240349,"4.0.10.0",1,2,"demographics","age",0,0,0,0,0,0,"32",1,2159,0
"317",317,100918,"15:06:57",921911485,687240349,"4.0.10.0",1,3,"demographics","gender",0,0,0,0,0,0,"male",1,3310,0
"318",318,100918,"15:06:37",465743600,202833004,"4.0.10.0",1,2,"demographics","age",0,0,0,0,0,0,"21",1,3884,0
"319",319,100918,"15:06:37",465743600,202833004,"4.0.10.0",1,3,"demographics","gender",0,0,0,0,0,0,"Male",1,46811,0
"320",320,100918,"18:10:38",818704358,816837326,"4.0.10.0",1,2,"demographics","age",0,0,0,0,0,0,"27",1,2914,0
"321",321,100918,"18:10:38",818704358,816837326,"4.0.10.0",1,3,"demographics","gender",0,0,0,0,0,0,"Female",1,5379,0
"322",322,100918,"17:12:07",186994347,274394374,"4.0.10.0",1,2,"demographics","age",0,0,0,0,0,0,"28",1,5451,0
"323",323,100918,"17:12:07",186994347,274394374,"4.0.10.0",1,3,"demographics","gender",0,0,0,0,0,0,"Male",1,4015,0
"324",324,100918,"18:11:50",694474957,764497494,"4.0.10.0",1,2,"demographics","age",0,0,0,0,0,0,"29",1,3382,0
"325",325,100918,"18:11:50",694474957,764497494,"4.0.10.0",1,3,"demographics","gender",0,0,0,0,0,0,"Male",1,3156,0
"326",326,100918,"17:11:37",693801828,655105403,"4.0.10.0",1,2,"demographics","age",0,0,0,0,0,0,"38",1,2914,0
"327",327,100918,"17:11:37",693801828,655105403,"4.0.10.0",1,3,"demographics","gender",0,0,0,0,0,0,"Male",1,4957,0
"328",328,100918,"15:13:25",831714713,481863384,"4.0.10.0",1,2,"demographics","age",0,0,0,0,0,0,"21",1,1605,0
"329",329,100918,"15:13:25",831714713,481863384,"4.0.10.0",1,3,"demographics","gender",0,0,0,0,0,0,"Male",1,3346,0
"330",330,100918,"17:11:53",283340280,269210633,"4.0.10.0",1,2,"demographics","age",0,0,0,0,0,0,"41",1,3074,0
"331",331,100918,"17:11:53",283340280,269210633,"4.0.10.0",1,3,"demographics","gender",0,0,0,0,0,0,"Female",1,4625,0
"332",332,100918,"18:13:56",940130463,505239906,"4.0.10.0",1,2,"demographics","age",0,0,0,0,0,0,"25",1,4584,0
"333",333,100918,"18:13:56",940130463,505239906,"4.0.10.0",1,3,"demographics","gender",0,0,0,0,0,0,"Female",1,15072,0
"334",334,100918,"17:14:28",133361916,87906137,"4.0.10.0",1,2,"demographics","age",0,0,0,0,0,0,"32",1,4225,0
"335",335,100918,"17:14:28",133361916,87906137,"4.0.10.0",1,3,"demographics","gender",0,0,0,0,0,0,"Female",1,6021,0
"336",336,100918,"18:15:13",961584530,221411376,"4.0.10.0",1,2,"demographics","age",0,0,0,0,0,0,"30",1,2608,0
"337",337,100918,"18:15:13",961584530,221411376,"4.0.10.0",1,3,"demographics","gender",0,0,0,0,0,0,"female",1,3292,0
"338",338,100918,"18:16:39",273629701,55747125,"4.0.10.0",1,2,"demographics","age",0,0,0,0,0,0,"35",1,7892,0
"339",339,100918,"18:16:39",273629701,55747125,"4.0.10.0",1,3,"demographics","gender",0,0,0,0,0,0,"female",1,14243,0
"340",340,100918,"17:17:25",296503381,450678103,"4.0.10.0",1,2,"demographics","age",0,0,0,0,0,0,"18",1,3384,0
"341",341,100918,"17:17:25",296503381,450678103,"4.0.10.0",1,3,"demographics","gender",0,0,0,0,0,0,"Female",1,3563,0
"342",342,100918,"15:17:42",812930274,320001213,"4.0.10.0",1,2,"demographics","age",0,0,0,0,0,0,"28",1,3049,0
"343",343,100918,"15:17:42",812930274,320001213,"4.0.10.0",1,3,"demographics","gender",0,0,0,0,0,0,"female",1,6854,0
"344",344,100918,"18:18:22",13165882,488929305,"4.0.10.0",1,2,"demographics","age",0,0,0,0,0,0,"26",1,3541,0
"345",345,100918,"18:18:22",13165882,488929305,"4.0.10.0",1,3,"demographics","gender",0,0,0,0,0,0,"Male",1,3993,0
"346",346,100918,"15:19:14",142944793,955596441,"4.0.10.0",1,2,"demographics","age",0,0,0,0,0,0,"26",1,5161,0
"347",347,100918,"15:19:14",142944793,955596441,"4.0.10.0",1,3,"demographics","gender",0,0,0,0,0,0,"Female",1,4248,0
"348",348,100918,"18:23:31",248317290,466991751,"4.0.10.0",1,2,"demographics","age",0,0,0,0,0,0,"31",1,2557,0
"349",349,100918,"18:23:31",248317290,466991751,"4.0.10.0",1,3,"demographics","gender",0,0,0,0,0,0,"Female",1,4100,0
"350",350,100918,"18:23:51",330228713,705533846,"4.0.10.0",1,2,"demographics","age",0,0,0,0,0,0,"24",1,6239,0
"351",351,100918,"18:23:51",330228713,705533846,"4.0.10.0",1,3,"demographics","gender",0,0,0,0,0,0,"trans male",1,3034,0
"352",352,100918,"18:24:42",113476054,27456834,"4.0.10.0",1,2,"demographics","age",0,0,0,0,0,0,"31",1,3411,0
"353",353,100918,"18:24:42",113476054,27456834,"4.0.10.0",1,3,"demographics","gender",0,0,0,0,0,0,"FEMALE",1,4962,0
"354",354,100918,"15:28:40",788095217,601538785,"4.0.10.0",1,2,"demographics","age",0,0,0,0,0,0,"20",1,6710,0
"355",355,100918,"15:28:40",788095217,601538785,"4.0.10.0",1,3,"demographics","gender",0,0,0,0,0,0,"Male",1,4523,0
"356",356,100918,"18:28:53",996806030,388899760,"4.0.10.0",1,2,"demographics","age",0,0,0,0,0,0,"19",1,2737,0
"357",357,100918,"18:28:53",996806030,388899760,"4.0.10.0",1,3,"demographics","gender",0,0,0,0,0,0,"female",1,4181,0
"358",358,100918,"18:28:53",996806030,388899760,"4.0.10.0",1,2,"demographics","age",0,0,0,0,0,0,"19",1,2737,0
"359",359,100918,"18:28:53",996806030,388899760,"4.0.10.0",1,3,"demographics","gender",0,0,0,0,0,0,"female",1,4181,0
"360",360,100918,"18:29:22",873879581,382040549,"4.0.10.0",1,2,"demographics","age",0,0,0,0,0,0,"57",1,3219,0
"361",361,100918,"18:29:22",873879581,382040549,"4.0.10.0",1,3,"demographics","gender",0,0,0,0,0,0,"female",1,12766,0
"362",362,100918,"18:28:22",179483701,266294809,"4.0.10.0",1,2,"demographics","age",0,0,0,0,0,0,"37",1,4077,0
"363",363,100918,"18:28:22",179483701,266294809,"4.0.10.0",1,3,"demographics","gender",0,0,0,0,0,0,"female",1,4471,0
"364",364,100918,"15:31:48",751654470,854850605,"4.0.10.0",1,2,"demographics","age",0,0,0,0,0,0,"35",1,10608,0
"365",365,100918,"15:31:48",751654470,854850605,"4.0.10.0",1,3,"demographics","gender",0,0,0,0,0,0,"female",1,7472,0
"366",366,100918,"18:31:40",870698219,395244218,"4.0.10.0",1,2,"demographics","age",0,0,0,0,0,0,"36",1,3052,0
"367",367,100918,"18:31:40",870698219,395244218,"4.0.10.0",1,3,"demographics","gender",0,0,0,0,0,0,"Female",1,3581,0
"368",368,100918,"15:33:08",751654470,854850605,"4.0.10.0",1,2,"demographics","age",0,0,0,0,0,0,"35",1,3524,0
"369",369,100918,"15:33:08",751654470,854850605,"4.0.10.0",1,3,"demographics","gender",0,0,0,0,0,0,"female",1,5001,0
"370",370,100918,"18:31:09",192054646,890019872,"4.0.10.0",1,2,"demographics","age",0,0,0,0,0,0,"59",1,3313,0
"371",371,100918,"18:31:09",192054646,890019872,"4.0.10.0",1,3,"demographics","gender",0,0,0,0,0,0,"female",1,6338,0
"372",372,100918,"17:33:22",923896880,464439543,"4.0.10.0",1,2,"demographics","age",0,0,0,0,0,0,"23",1,3029,0
"373",373,100918,"17:33:22",923896880,464439543,"4.0.10.0",1,3,"demographics","gender",0,0,0,0,0,0,"Male",1,5202,0
"374",374,100918,"15:35:00",751654470,854850605,"4.0.10.0",1,2,"demographics","age",0,0,0,0,0,0,"35",1,3456,0
"375",375,100918,"15:35:00",751654470,854850605,"4.0.10.0",1,3,"demographics","gender",0,0,0,0,0,0,"female",1,5339,0
"376",376,100918,"15:37:04",161541971,43607692,"4.0.10.0",1,2,"demographics","age",0,0,0,0,0,0,"35",1,3613,0
"377",377,100918,"15:37:04",161541971,43607692,"4.0.10.0",1,3,"demographics","gender",0,0,0,0,0,0,"female",1,4938,0
"378",378,100918,"18:38:30",902803439,247371384,"4.0.10.0",1,2,"demographics","age",0,0,0,0,0,0,"22",1,3223,0
"379",379,100918,"18:38:30",902803439,247371384,"4.0.10.0",1,3,"demographics","gender",0,0,0,0,0,0,"female",1,3793,0
"380",380,100918,"15:39:38",751654470,854850605,"4.0.10.0",1,2,"demographics","age",0,0,0,0,0,0,"35",1,3346,0
"381",381,100918,"15:39:38",751654470,854850605,"4.0.10.0",1,3,"demographics","gender",0,0,0,0,0,0,"female",1,5424,0
"382",382,100918,"15:43:23",751654470,854850605,"4.0.10.0",1,2,"demographics","age",0,0,0,0,0,0,"35",1,3489,0
"383",383,100918,"15:43:23",751654470,854850605,"4.0.10.0",1,3,"demographics","gender",0,0,0,0,0,0,"female",1,5743,0
"384",384,100918,"17:49:10",991377885,921355337,"4.0.10.0",1,2,"demographics","age",0,0,0,0,0,0,"37",1,3749,0
"385",385,100918,"17:49:10",991377885,921355337,"4.0.10.0",1,3,"demographics","gender",0,0,0,0,0,0,"male",1,4549,0
"386",386,100918,"17:53:12",751965033,564616694,"4.0.10.0",1,2,"demographics","age",0,0,0,0,0,0,"33",1,3991,0
"387",387,100918,"17:53:12",751965033,564616694,"4.0.10.0",1,3,"demographics","gender",0,0,0,0,0,0,"male",1,5413,0
"388",388,100918,"17:59:39",107042905,309129355,"4.0.10.0",1,2,"demographics","age",0,0,0,0,0,0,"26",1,5270,0
"389",389,100918,"17:59:39",107042905,309129355,"4.0.10.0",1,3,"demographics","gender",0,0,0,0,0,0,"26",1,17744,0
"390",390,100918,"19:02:48",213960704,259416466,"4.0.10.0",1,2,"demographics","age",0,0,0,0,0,0,"41",1,3362,0
"391",391,100918,"19:02:48",213960704,259416466,"4.0.10.0",1,3,"demographics","gender",0,0,0,0,0,0,"M",1,3051,0
"392",392,100918,"19:12:20",537965084,930058795,"4.0.10.0",1,2,"demographics","age",0,0,0,0,0,0,"25",1,2491,0
"393",393,100918,"19:12:20",537965084,930058795,"4.0.10.0",1,3,"demographics","gender",0,0,0,0,0,0,"Female",1,3274,0
"394",394,100918,"19:19:11",146987016,771092928,"4.0.10.0",1,2,"demographics","age",0,0,0,0,0,0,"26",1,2667,0
"395",395,100918,"19:19:11",146987016,771092928,"4.0.10.0",1,3,"demographics","gender",0,0,0,0,0,0,"26",1,97227,0
"396",396,100918,"19:21:57",663367244,428696104,"4.0.10.0",1,2,"demographics","age",0,0,0,0,0,0,"26",1,4221,0
"397",397,100918,"19:21:57",663367244,428696104,"4.0.10.0",1,3,"demographics","gender",0,0,0,0,0,0,"male",1,4818,0
"398",398,100918,"19:29:50",85498909,235719729,"4.0.10.0",1,2,"demographics","age",0,0,0,0,0,0,"63",1,3434,0
"399",399,100918,"19:29:50",85498909,235719729,"4.0.10.0",1,3,"demographics","gender",0,0,0,0,0,0,"Male",1,3798,0
"400",400,100918,"19:29:04",262443930,522859665,"4.0.10.0",1,2,"demographics","age",0,0,0,0,0,0,"18",1,3805,0
"401",401,100918,"19:29:04",262443930,522859665,"4.0.10.0",1,3,"demographics","gender",0,0,0,0,0,0,"male",1,3716,0
"402",402,100918,"19:44:26",733213438,84154794,"4.0.10.0",1,2,"demographics","age",0,0,0,0,0,0,"54",1,3275,0
"403",403,100918,"19:44:26",733213438,84154794,"4.0.10.0",1,3,"demographics","gender",0,0,0,0,0,0,"female",1,3879,0
"404",404,100918,"17:56:06",668651898,234350255,"4.0.10.0",1,2,"demographics","age",0,0,0,0,0,0,"42",1,2841,0
"405",405,100918,"17:56:06",668651898,234350255,"4.0.10.0",1,3,"demographics","gender",0,0,0,0,0,0,"Female",1,4275,0
"406",406,100918,"17:03:55",135415577,370878605,"4.0.10.0",1,2,"demographics","age",0,0,0,0,0,0,"54",1,6516,0
"407",407,100918,"17:03:55",135415577,370878605,"4.0.10.0",1,3,"demographics","gender",0,0,0,0,0,0,"male",1,6120,0
"408",408,100918,"20:09:19",915779311,728633961,"4.0.10.0",1,2,"demographics","age",0,0,0,0,0,0,"27",1,3220,0
"409",409,100918,"20:09:19",915779311,728633961,"4.0.10.0",1,3,"demographics","gender",0,0,0,0,0,0,"Male",1,2077,0
"410",410,100918,"20:10:49",842608001,640812335,"4.0.10.0",1,2,"demographics","age",0,0,0,0,0,0,"30",1,4041,0
"411",411,100918,"20:10:49",842608001,640812335,"4.0.10.0",1,3,"demographics","gender",0,0,0,0,0,0,"male",1,3890,0
"412",412,100918,"20:29:02",738048608,999377362,"4.0.10.0",1,2,"demographics","age",0,0,0,0,0,0,"23",1,2827,0
"413",413,100918,"20:29:02",738048608,999377362,"4.0.10.0",1,3,"demographics","gender",0,0,0,0,0,0,"Male",1,5275,0
"414",414,100918,"20:46:42",339944375,880487010,"4.0.10.0",1,2,"demographics","age",0,0,0,0,0,0,"61",1,4679,0
"415",415,100918,"20:46:42",339944375,880487010,"4.0.10.0",1,3,"demographics","gender",0,0,0,0,0,0,"female",1,5737,0
"416",416,100918,"20:54:39",22922020,331573587,"4.0.10.0",1,2,"demographics","age",0,0,0,0,0,0,"37",1,6810,0
"417",417,100918,"20:54:39",22922020,331573587,"4.0.10.0",1,3,"demographics","gender",0,0,0,0,0,0,"Male",1,4392,0
"418",418,100918,"21:16:43",117665661,115209706,"4.0.10.0",1,2,"demographics","age",0,0,0,0,0,0,"29",1,3186,0
"419",419,100918,"21:16:43",117665661,115209706,"4.0.10.0",1,3,"demographics","gender",0,0,0,0,0,0,"male",1,3762,0
"420",420,100918,"21:29:08",818659662,532421025,"4.0.10.0",1,2,"demographics","age",0,0,0,0,0,0,"28",1,3727,0
"421",421,100918,"21:29:08",818659662,532421025,"4.0.10.0",1,3,"demographics","gender",0,0,0,0,0,0,"male",1,4901,0
"422",422,100918,"21:29:49",160550588,858515813,"4.0.10.0",1,2,"demographics","age",0,0,0,0,0,0,"23",1,4140,0
"423",423,100918,"21:29:49",160550588,858515813,"4.0.10.0",1,3,"demographics","gender",0,0,0,0,0,0,"female",1,3366,0
"424",424,100918,"20:49:17",999368850,38065277,"4.0.10.0",1,2,"demographics","age",0,0,0,0,0,0,"40",1,5391,0
"425",425,100918,"20:49:17",999368850,38065277,"4.0.10.0",1,3,"demographics","gender",0,0,0,0,0,0,"Male",1,14318,0
"426",426,100918,"21:56:47",571459831,352988338,"4.0.10.0",1,2,"demographics","age",0,0,0,0,0,0,"25",1,2357,0
"427",427,100918,"21:56:47",571459831,352988338,"4.0.10.0",1,3,"demographics","gender",0,0,0,0,0,0,"Male",1,2747,0
"428",428,100918,"22:42:08",330544635,376203370,"4.0.10.0",1,2,"demographics","age",0,0,0,0,0,0,"37",1,5407,0
"429",429,100918,"22:42:08",330544635,376203370,"4.0.10.0",1,3,"demographics","gender",0,0,0,0,0,0,"Male",1,9401,0
"430",430,100918,"21:24:06",324426982,443153134,"4.0.10.0",1,2,"demographics","age",0,0,0,0,0,0,"38",1,6506,0
"431",431,100918,"21:24:06",324426982,443153134,"4.0.10.0",1,3,"demographics","gender",0,0,0,0,0,0,"male",1,55601,0
"432",432,100918,"22:05:05",467282190,975443134,"4.0.10.0",1,2,"demographics","age",0,0,0,0,0,0,"23",1,2725,0
"433",433,100918,"22:05:05",467282190,975443134,"4.0.10.0",1,3,"demographics","gender",0,0,0,0,0,0,"Female",1,5638,0
"434",434,101018,"00:23:56",94365838,518374607,"4.0.10.0",1,2,"demographics","age",0,0,0,0,0,0,"61",1,4253,0
"435",435,101018,"00:23:56",94365838,518374607,"4.0.10.0",1,3,"demographics","gender",0,0,0,0,0,0,"Female",1,9107,0
"436",436,101018,"00:56:06",353898703,225203743,"4.0.10.0",1,2,"demographics","age",0,0,0,0,0,0,"41",1,5105,0
"437",437,101018,"00:56:06",353898703,225203743,"4.0.10.0",1,3,"demographics","gender",0,0,0,0,0,0,"female",1,9142,0
"438",438,101018,"01:18:51",856955447,200731487,"4.0.10.0",1,2,"demographics","age",0,0,0,0,0,0,"18",1,3335,0
"439",439,101018,"01:18:51",856955447,200731487,"4.0.10.0",1,3,"demographics","gender",0,0,0,0,0,0,"male",1,5603,0
"440",440,101018,"04:53:50",599337889,261484005,"4.0.10.0",1,2,"demographics","age",0,0,0,0,0,0,"47",1,4908,0
"441",441,101018,"04:53:50",599337889,261484005,"4.0.10.0",1,3,"demographics","gender",0,0,0,0,0,0,"female",1,7255,0
"442",442,101018,"05:46:06",89200712,662792716,"4.0.10.0",1,2,"demographics","age",0,0,0,0,0,0,"31",1,3256,0
"443",443,101018,"05:46:06",89200712,662792716,"4.0.10.0",1,3,"demographics","gender",0,0,0,0,0,0,"male",1,4348,0
"444",444,101018,"06:02:54",56595153,55231197,"4.0.10.0",1,2,"demographics","age",0,0,0,0,0,0,"33",1,2074,0
"445",445,101018,"06:02:54",56595153,55231197,"4.0.10.0",1,3,"demographics","gender",0,0,0,0,0,0,"Male",1,3002,0
"446",446,101018,"05:06:47",95388636,374851831,"4.0.10.0",1,2,"demographics","age",0,0,0,0,0,0,"32",1,4274,0
"447",447,101018,"05:06:47",95388636,374851831,"4.0.10.0",1,3,"demographics","gender",0,0,0,0,0,0,"male",1,3756,0
"448",448,101018,"05:06:52",770467356,839994781,"4.0.10.0",1,2,"demographics","age",0,0,0,0,0,0,"22",1,2983,0
"449",449,101018,"05:06:52",770467356,839994781,"4.0.10.0",1,3,"demographics","gender",0,0,0,0,0,0,"Transgender Male",1,16794,0
"450",450,101018,"16:08:37",724657234,135018023,"4.0.10.0",1,2,"demographics","age",0,0,0,0,0,0,"30",1,4080,0
"451",451,101018,"16:08:37",724657234,135018023,"4.0.10.0",1,3,"demographics","gender",0,0,0,0,0,0,"male",1,5555,0
"452",452,101018,"06:16:22",315430989,387613597,"4.0.10.0",1,2,"demographics","age",0,0,0,0,0,0,"25",1,3649,0
"453",453,101018,"06:16:22",315430989,387613597,"4.0.10.0",1,3,"demographics","gender",0,0,0,0,0,0,"Male",1,4700,0
"454",454,101018,"06:18:20",26329808,142176969,"4.0.10.0",1,2,"demographics","age",0,0,0,0,0,0,"33",1,3054,0
"455",455,101018,"06:18:20",26329808,142176969,"4.0.10.0",1,3,"demographics","gender",0,0,0,0,0,0,"female",1,3720,0
"456",456,101018,"06:23:49",678290097,27409009,"4.0.10.0",1,2,"demographics","age",0,0,0,0,0,0,"44",1,4139,0
"457",457,101018,"06:23:49",678290097,27409009,"4.0.10.0",1,3,"demographics","gender",0,0,0,0,0,0,"female",1,3943,0
"458",458,101018,"06:31:16",83660364,498363500,"4.0.10.0",1,2,"demographics","age",0,0,0,0,0,0,"42",1,8089,0
"459",459,101018,"06:31:16",83660364,498363500,"4.0.10.0",1,3,"demographics","gender",0,0,0,0,0,0,"male",1,5110,0
"460",460,101018,"06:42:57",267866835,714006972,"4.0.10.0",1,2,"demographics","age",0,0,0,0,0,0,"23",1,5345,0
"461",461,101018,"06:42:57",267866835,714006972,"4.0.10.0",1,3,"demographics","gender",0,0,0,0,0,0,"female",1,6549,0
"462",462,101018,"06:45:41",267866835,714006972,"4.0.10.0",1,2,"demographics","age",0,0,0,0,0,0,"23",1,3234,0
"463",463,101018,"06:45:41",267866835,714006972,"4.0.10.0",1,3,"demographics","gender",0,0,0,0,0,0,"female",1,6657,0
"464",464,101018,"06:51:10",994264976,388717284,"4.0.10.0",1,2,"demographics","age",0,0,0,0,0,0,"33",1,4045,0
"465",465,101018,"06:51:10",994264976,388717284,"4.0.10.0",1,3,"demographics","gender",0,0,0,0,0,0,"male",1,6609,0
"466",466,101018,"04:21:58",126679510,395174438,"4.0.10.0",1,2,"demographics","age",0,0,0,0,0,0,"33",1,4386,0
"467",467,101018,"04:21:58",126679510,395174438,"4.0.10.0",1,3,"demographics","gender",0,0,0,0,0,0,"male",1,7477,0
"468",468,101018,"08:21:02",943471208,774586818,"4.0.10.0",1,2,"demographics","age",0,0,0,0,0,0,"39",1,4171,0
"469",469,101018,"08:21:02",943471208,774586818,"4.0.10.0",1,3,"demographics","gender",0,0,0,0,0,0,"male",1,3930,0
"470",470,101018,"09:28:34",506749105,486159796,"4.0.10.0",1,2,"demographics","age",0,0,0,0,0,0,"43",1,5051,0
"471",471,101018,"09:28:34",506749105,486159796,"4.0.10.0",1,3,"demographics","gender",0,0,0,0,0,0,"female",1,5476,0
"472",472,101018,"09:58:16",6488104,990708992,"4.0.10.0",1,2,"demographics","age",0,0,0,0,0,0,"35",1,3202,0
"473",473,101018,"09:58:16",6488104,990708992,"4.0.10.0",1,3,"demographics","gender",0,0,0,0,0,0,"female",1,6327,0
"474",474,101018,"10:06:35",788364373,322773009,"4.0.10.0",1,2,"demographics","age",0,0,0,0,0,0,"25",1,5037,0
"475",475,101018,"10:06:35",788364373,322773009,"4.0.10.0",1,3,"demographics","gender",0,0,0,0,0,0,"Female",1,4672,0
"476",476,101018,"10:37:38",913676882,293737842,"4.0.10.0",1,2,"demographics","age",0,0,0,0,0,0,"62",1,4493,0
"477",477,101018,"10:37:38",913676882,293737842,"4.0.10.0",1,3,"demographics","gender",0,0,0,0,0,0,"Female",1,10192,0
"478",478,101018,"09:45:29",350913908,944542861,"4.0.10.0",1,2,"demographics","age",0,0,0,0,0,0,"18",1,4048,0
"479",479,101018,"09:45:29",350913908,944542861,"4.0.10.0",1,3,"demographics","gender",0,0,0,0,0,0,"Male",1,6108,0
"480",480,101018,"08:20:58",709037476,873396017,"4.0.10.0",1,2,"demographics","age",0,0,0,0,0,0,"35",1,3223,0
"481",481,101018,"08:20:58",709037476,873396017,"4.0.10.0",1,3,"demographics","gender",0,0,0,0,0,0,"Male",1,3081,0
"482",482,101018,"10:28:08",285470780,211391325,"4.0.10.0",1,2,"demographics","age",0,0,0,0,0,0,"46",1,3429,0
"483",483,101018,"10:28:08",285470780,211391325,"4.0.10.0",1,3,"demographics","gender",0,0,0,0,0,0,"female",1,6036,0
"484",484,101018,"11:54:39",500070494,656051625,"4.0.10.0",1,2,"demographics","age",0,0,0,0,0,0,"33",1,3569,0
"485",485,101018,"11:54:39",500070494,656051625,"4.0.10.0",1,3,"demographics","gender",0,0,0,0,0,0,"Female",1,5116,0
"486",486,101018,"11:36:03",758330182,538995601,"4.0.10.0",1,2,"demographics","age",0,0,0,0,0,0,"65",1,5597,0
"487",487,101018,"11:36:03",758330182,538995601,"4.0.10.0",1,3,"demographics","gender",0,0,0,0,0,0,"female",1,9113,0
"488",488,101018,"14:02:37",466896302,57801962,"4.0.10.0",1,2,"demographics","age",0,0,0,0,0,0,"24",1,2751,0
"489",489,101018,"14:02:37",466896302,57801962,"4.0.10.0",1,3,"demographics","gender",0,0,0,0,0,0,"male",1,2746,0
"490",490,101018,"14:03:50",466896302,57801962,"4.0.10.0",1,2,"demographics","age",0,0,0,0,0,0,"24",1,3053,0
"491",491,101018,"14:03:50",466896302,57801962,"4.0.10.0",1,3,"demographics","gender",0,0,0,0,0,0,"Male",1,3366,0
"492",492,101018,"12:30:46",436667648,527935779,"4.0.10.0",1,2,"demographics","age",0,0,0,0,0,0,"39",1,3557,0
"493",493,101018,"12:30:46",436667648,527935779,"4.0.10.0",1,3,"demographics","gender",0,0,0,0,0,0,"female",1,4385,0
"494",494,101018,"14:37:04",631499995,127422324,"4.0.10.0",1,2,"demographics","age",0,0,0,0,0,0,"34",1,3861,0
"495",495,101018,"14:37:04",631499995,127422324,"4.0.10.0",1,3,"demographics","gender",0,0,0,0,0,0,"Female",1,5441,0
"496",496,101018,"14:17:23",771471942,807472305,"4.0.10.0",1,2,"demographics","age",0,0,0,0,0,0,"18",1,5295,0
"497",497,101018,"14:17:23",771471942,807472305,"4.0.10.0",1,3,"demographics","gender",0,0,0,0,0,0,"Male",1,3162,0
"498",498,101018,"13:20:56",941011753,250345166,"4.0.10.0",1,2,"demographics","age",0,0,0,0,0,0,"36",1,3722,0
"499",499,101018,"13:20:56",941011753,250345166,"4.0.10.0",1,3,"demographics","gender",0,0,0,0,0,0,"female",1,4248,0
"500",500,101018,"15:45:55",281548973,518965,"4.0.10.0",1,2,"demographics","age",0,0,0,0,0,0,"21",1,5777,0
"501",501,101018,"15:45:55",281548973,518965,"4.0.10.0",1,3,"demographics","gender",0,0,0,0,0,0,"Female",1,6643,0
"502",502,101018,"16:53:03",766853301,252085627,"4.0.10.0",1,2,"demographics","age",0,0,0,0,0,0,"41",1,5086,0
"503",503,101018,"16:53:03",766853301,252085627,"4.0.10.0",1,3,"demographics","gender",0,0,0,0,0,0,"female",1,7582,0
"504",504,101018,"15:26:07",310944530,39398776,"4.0.10.0",1,2,"demographics","age",0,0,0,0,0,0,"30",1,3913,0
"505",505,101018,"15:26:07",310944530,39398776,"4.0.10.0",1,3,"demographics","gender",0,0,0,0,0,0,"female",1,8225,0
"506",506,101018,"21:14:37",6672372,429670563,"4.0.10.0",1,2,"demographics","age",0,0,0,0,0,0,"29",1,3777,0
"507",507,101018,"21:14:37",6672372,429670563,"4.0.10.0",1,3,"demographics","gender",0,0,0,0,0,0,"Male",1,2962,0
"508",508,101018,"20:54:10",109050085,84123013,"4.0.10.0",1,2,"demographics","age",0,0,0,0,0,0,"50",1,4019,0
"509",509,101018,"20:54:10",109050085,84123013,"4.0.10.0",1,3,"demographics","gender",0,0,0,0,0,0,"female",1,7048,0
"510",510,101018,"20:32:25",311636077,680612020,"4.0.10.0",1,2,"demographics","age",0,0,0,0,0,0,"30",1,5228,0
"511",511,101018,"20:32:25",311636077,680612020,"4.0.10.0",1,3,"demographics","gender",0,0,0,0,0,0,"male",1,3585,0
"512",512,101018,"22:15:21",905820661,405217715,"4.0.10.0",1,2,"demographics","age",0,0,0,0,0,0,"40",1,3873,0
"513",513,101018,"22:15:21",905820661,405217715,"4.0.10.0",1,3,"demographics","gender",0,0,0,0,0,0,"male",1,5656,0
"514",514,101118,"01:13:59",863379124,796181107,"4.0.10.0",1,2,"demographics","age",0,0,0,0,0,0,"54",1,2459,0
"515",515,101118,"01:13:59",863379124,796181107,"4.0.10.0",1,3,"demographics","gender",0,0,0,0,0,0,"f",1,2880,0
"516",516,101118,"14:54:54",388813071,88069365,"4.0.10.0",1,2,"demographics","age",0,0,0,0,0,0,"48",1,4383,0
"517",517,101118,"14:54:54",388813071,88069365,"4.0.10.0",1,3,"demographics","gender",0,0,0,0,0,0,"mail",1,5535,0
"518",518,101118,"14:57:11",388813071,88069365,"4.0.10.0",1,2,"demographics","age",0,0,0,0,0,0,"48",1,2691,0
"519",519,101118,"14:57:11",388813071,88069365,"4.0.10.0",1,3,"demographics","gender",0,0,0,0,0,0,"male",1,52168,0
"520",520,101118,"15:14:50",388813071,88069365,"4.0.10.0",1,2,"demographics","age",0,0,0,0,0,0,"48",1,2594,0
"521",521,101118,"15:14:50",388813071,88069365,"4.0.10.0",1,3,"demographics","gender",0,0,0,0,0,0,"male",1,5321,0
"522",522,101118,"06:04:44",527354111,608536026,"4.0.10.0",1,2,"demographics","age",0,0,0,0,0,0,"37",1,9827,0
"523",523,101118,"06:04:44",527354111,608536026,"4.0.10.0",1,3,"demographics","gender",0,0,0,0,0,0,"female",1,4540,0
"524",524,101118,"08:17:08",672601150,915512731,"4.0.10.0",1,2,"demographics","age",0,0,0,0,0,0,"61",1,6167,0
"525",525,101118,"08:17:08",672601150,915512731,"4.0.10.0",1,3,"demographics","gender",0,0,0,0,0,0,"female",1,7721,0
"526",526,101118,"14:35:09",466467083,914332662,"4.0.10.0",1,2,"demographics","age",0,0,0,0,0,0,"35",1,2834,0
"527",527,101118,"14:35:09",466467083,914332662,"4.0.10.0",1,3,"demographics","gender",0,0,0,0,0,0,"maschio",1,5591,0
"528",528,101118,"14:37:39",107138787,112147283,"4.0.10.0",1,2,"demographics","age",0,0,0,0,0,0,"35",1,2574,0
"529",529,101118,"14:37:39",107138787,112147283,"4.0.10.0",1,3,"demographics","gender",0,0,0,0,0,0,"male",1,4045,0
"530",530,101118,"09:08:30",153151730,569691904,"4.0.10.0",1,2,"demographics","age",0,0,0,0,0,0,"26",1,5193,0
"531",531,101118,"09:08:30",153151730,569691904,"4.0.10.0",1,3,"demographics","gender",0,0,0,0,0,0,"Male",1,3791,0
"532",532,101118,"10:13:03",760028438,283769328,"4.0.10.0",1,2,"demographics","age",0,0,0,0,0,0,"34",1,10451,0
"533",533,101118,"10:13:03",760028438,283769328,"4.0.10.0",1,3,"demographics","gender",0,0,0,0,0,0,"female",1,3418,0
"534",534,101118,"10:43:00",325960475,68476092,"4.0.10.0",1,2,"demographics","age",0,0,0,0,0,0,"18",1,3700,0
"535",535,101118,"10:43:00",325960475,68476092,"4.0.10.0",1,3,"demographics","gender",0,0,0,0,0,0,"Male",1,6372,0
"536",536,101118,"11:38:11",83153639,825669265,"4.0.10.0",1,2,"demographics","age",0,0,0,0,0,0,"41",1,3144,0
"537",537,101118,"11:38:11",83153639,825669265,"4.0.10.0",1,3,"demographics","gender",0,0,0,0,0,0,"Female",1,5969,0
"538",538,101118,"17:41:41",183895322,189201940,"4.0.10.0",1,2,"demographics","age",0,0,0,0,0,0,"36",1,4789,0
"539",539,101118,"17:41:41",183895322,189201940,"4.0.10.0",1,3,"demographics","gender",0,0,0,0,0,0,"female",1,3821,0
"540",540,101118,"12:49:43",33243460,699585665,"4.0.10.0",1,2,"demographics","age",0,0,0,0,0,0,"26",1,3160,0
"541",541,101118,"12:49:43",33243460,699585665,"4.0.10.0",1,3,"demographics","gender",0,0,0,0,0,0,"female",1,4550,0
"542",542,101118,"11:18:49",204092884,959597467,"4.0.10.0",1,2,"demographics","age",0,0,0,0,0,0,"23",1,2110,0
"543",543,101118,"11:18:49",204092884,959597467,"4.0.10.0",1,3,"demographics","gender",0,0,0,0,0,0,"Male",1,3175,0
"544",544,101118,"11:23:07",466706940,972409495,"4.0.10.0",1,2,"demographics","age",0,0,0,0,0,0,"23",1,2792,0
"545",545,101118,"11:23:07",466706940,972409495,"4.0.10.0",1,3,"demographics","gender",0,0,0,0,0,0,"Male",1,2503,0
"546",546,101118,"11:29:29",466866413,972568968,"4.0.10.0",1,2,"demographics","age",0,0,0,0,0,0,"34",1,22811,0
"547",547,101118,"11:29:29",466866413,972568968,"4.0.10.0",1,3,"demographics","gender",0,0,0,0,0,0,"female",1,4292,0
"548",548,101118,"12:30:53",767094600,991175967,"4.0.10.0",1,2,"demographics","age",0,0,0,0,0,0,"22",1,6807,0
"549",549,101118,"12:30:53",767094600,991175967,"4.0.10.0",1,3,"demographics","gender",0,0,0,0,0,0,"female",1,10667,0
"550",550,101118,"13:41:41",537042925,368720941,"4.0.10.0",1,2,"demographics","age",0,0,0,0,0,0,"41",1,4859,0
"551",551,101118,"13:41:41",537042925,368720941,"4.0.10.0",1,3,"demographics","gender",0,0,0,0,0,0,"Male",1,3831,0
"552",552,101118,"14:43:35",952486173,784462333,"4.0.10.0",1,2,"demographics","age",0,0,0,0,0,0,"62",1,4582,0
"553",553,101118,"14:43:35",952486173,784462333,"4.0.10.0",1,3,"demographics","gender",0,0,0,0,0,0,"male",1,5103,0
"554",554,121518,"07:40:10",90419612,207481595,"4.0.10.0",1,2,"demographics","age",0,0,0,0,0,0,"44",1,13619,0
"555",555,121518,"07:40:10",90419612,207481595,"4.0.10.0",1,3,"demographics","gender",0,0,0,0,0,0,"male",1,15147,0
"556",556,121518,"06:53:24",477552927,460762924,"4.0.10.0",1,2,"demographics","age",0,0,0,0,0,0,"58",1,8734,0
"557",557,121518,"06:53:24",477552927,460762924,"4.0.10.0",1,3,"demographics","gender",0,0,0,0,0,0,"female",1,12237,0
"558",558,121518,"06:58:38",815475495,787119381,"4.0.10.0",1,2,"demographics","age",0,0,0,0,0,0,"40",1,3835,0
"559",559,121518,"06:58:38",815475495,787119381,"4.0.10.0",1,3,"demographics","gender",0,0,0,0,0,0,"female",1,4015,0
"560",560,121518,"19:00:56",242816560,475546711,"4.0.10.0",1,2,"demographics","age",0,0,0,0,0,0,"43",1,5003,0
"561",561,121518,"19:00:56",242816560,475546711,"4.0.10.0",1,3,"demographics","gender",0,0,0,0,0,0,"Male",1,10034,0
"562",562,121518,"08:04:04",353333634,482654277,"4.0.10.0",1,2,"demographics","age",0,0,0,0,0,0,"30",1,4214,0
"563",563,121518,"08:04:04",353333634,482654277,"4.0.10.0",1,3,"demographics","gender",0,0,0,0,0,0,"Female",1,4234,0
"564",564,121518,"07:06:36",243642448,318679059,"4.0.10.0",1,2,"demographics","age",0,0,0,0,0,0,"28",1,11803,0
"565",565,121518,"07:06:36",243642448,318679059,"4.0.10.0",1,3,"demographics","gender",0,0,0,0,0,0,"MALE",1,11376,0
"566",566,121518,"08:05:53",265643172,601372018,"4.0.10.0",1,2,"demographics","age",0,0,0,0,0,0,"42",1,6458,0
"567",567,121518,"08:05:53",265643172,601372018,"4.0.10.0",1,3,"demographics","gender",0,0,0,0,0,0,"Male",1,12265,0
"568",568,121518,"08:15:43",144470255,417851252,"4.0.10.0",1,2,"demographics","age",0,0,0,0,0,0,"51",1,3423,0
"569",569,121518,"08:15:43",144470255,417851252,"4.0.10.0",1,3,"demographics","gender",0,0,0,0,0,0,"Female",1,4533,0
"570",570,121518,"06:22:33",687350906,538071791,"4.0.10.0",1,2,"demographics","age",0,0,0,0,0,0,"35",1,4164,0
"571",571,121518,"06:22:33",687350906,538071791,"4.0.10.0",1,3,"demographics","gender",0,0,0,0,0,0,"m",1,3346,0
"572",572,121518,"06:26:36",334316937,213703054,"4.0.10.0",1,2,"demographics","age",0,0,0,0,0,0,"36",1,2888,0
"573",573,121518,"06:26:36",334316937,213703054,"4.0.10.0",1,3,"demographics","gender",0,0,0,0,0,0,"Female",1,3923,0
"574",574,121518,"08:26:16",46108097,819729254,"4.0.10.0",1,2,"demographics","age",0,0,0,0,0,0,"33",1,3988,0
"575",575,121518,"08:26:16",46108097,819729254,"4.0.10.0",1,3,"demographics","gender",0,0,0,0,0,0,"female",1,8130,0
"576",576,121518,"08:28:29",581452439,747476034,"4.0.10.0",1,2,"demographics","age",0,0,0,0,0,0,"19",1,4373,0
"577",577,121518,"08:28:29",581452439,747476034,"4.0.10.0",1,3,"demographics","gender",0,0,0,0,0,0,"Male",1,4157,0
"578",578,121518,"08:29:26",233049840,852740093,"4.0.10.0",1,2,"demographics","age",0,0,0,0,0,0,"24",1,3193,0
"579",579,121518,"08:29:26",233049840,852740093,"4.0.10.0",1,3,"demographics","gender",0,0,0,0,0,0,"female",1,3438,0
"580",580,121518,"08:31:54",907409413,810953844,"4.0.10.0",1,2,"demographics","age",0,0,0,0,0,0,"32",1,1809,0
"581",581,121518,"08:31:54",907409413,810953844,"4.0.10.0",1,3,"demographics","gender",0,0,0,0,0,0,"male",1,1909,0
"582",582,121518,"09:38:34",528095512,104348820,"4.0.10.0",1,2,"demographics","age",0,0,0,0,0,0,"36",1,4371,0
"583",583,121518,"09:38:34",528095512,104348820,"4.0.10.0",1,3,"demographics","gender",0,0,0,0,0,0,"male",1,4681,0
"584",584,121518,"07:39:02",565957710,66207128,"4.0.10.0",1,2,"demographics","age",0,0,0,0,0,0,"56",1,3079,0
"585",585,121518,"07:39:02",565957710,66207128,"4.0.10.0",1,3,"demographics","gender",0,0,0,0,0,0,"female",1,3633,0
"586",586,121518,"09:40:33",528095512,104348820,"4.0.10.0",1,2,"demographics","age",0,0,0,0,0,0,"36",1,3068,0
"587",587,121518,"09:40:33",528095512,104348820,"4.0.10.0",1,3,"demographics","gender",0,0,0,0,0,0,"male",1,4406,0
"588",588,121518,"08:42:49",619981435,318334417,"4.0.10.0",1,2,"demographics","age",0,0,0,0,0,0,"30",1,3677,0
"589",589,121518,"08:42:49",619981435,318334417,"4.0.10.0",1,3,"demographics","gender",0,0,0,0,0,0,"FEMALE",1,8063,0
"590",590,121518,"05:44:22",965599109,262492060,"4.0.10.0",1,2,"demographics","age",0,0,0,0,0,0,"38",1,2370,0
"591",591,121518,"05:44:22",965599109,262492060,"4.0.10.0",1,3,"demographics","gender",0,0,0,0,0,0,"female",1,5240,0
"592",592,121518,"08:44:37",619981435,318334417,"4.0.10.0",1,2,"demographics","age",0,0,0,0,0,0,"FEMALE",1,8670,0
"593",593,121518,"08:44:37",619981435,318334417,"4.0.10.0",1,3,"demographics","gender",0,0,0,0,0,0,"FEMALE",1,9763,0
"594",594,121518,"08:45:02",304661069,773287545,"4.0.10.0",1,2,"demographics","age",0,0,0,0,0,0,"34",1,2408,0
"595",595,121518,"08:45:02",304661069,773287545,"4.0.10.0",1,3,"demographics","gender",0,0,0,0,0,0,"Male",1,3289,0
"596",596,121518,"08:50:38",404950799,516076344,"4.0.10.0",1,2,"demographics","age",0,0,0,0,0,0,"28",1,4689,0
"597",597,121518,"08:50:38",404950799,516076344,"4.0.10.0",1,3,"demographics","gender",0,0,0,0,0,0,"male",1,4756,0
"598",598,121518,"13:50:53",745170740,246858936,"4.0.10.0",1,2,"demographics","age",0,0,0,0,0,0,"38",1,4100,0
"599",599,121518,"13:50:53",745170740,246858936,"4.0.10.0",1,3,"demographics","gender",0,0,0,0,0,0,"Male",1,6455,0
"600",600,121518,"07:51:19",115418010,111182536,"4.0.10.0",1,2,"demographics","age",0,0,0,0,0,0,"48",1,5212,0
"601",601,121518,"07:51:19",115418010,111182536,"4.0.10.0",1,3,"demographics","gender",0,0,0,0,0,0,"female",1,5958,0
"602",602,121518,"07:52:06",520826403,704596294,"4.0.10.0",1,2,"demographics","age",0,0,0,0,0,0,"30",1,3003,0
"603",603,121518,"07:52:06",520826403,704596294,"4.0.10.0",1,3,"demographics","gender",0,0,0,0,0,0,"male",1,29227,0
"604",604,121518,"08:53:38",804089997,189117514,"4.0.10.0",1,2,"demographics","age",0,0,0,0,0,0,"20",1,2790,0
"605",605,121518,"08:53:38",804089997,189117514,"4.0.10.0",1,3,"demographics","gender",0,0,0,0,0,0,"female",1,3603,0
"606",606,121518,"08:54:23",941283570,980623265,"4.0.10.0",1,2,"demographics","age",0,0,0,0,0,0,"38",1,7368,0
"607",607,121518,"08:54:23",941283570,980623265,"4.0.10.0",1,3,"demographics","gender",0,0,0,0,0,0,"female",1,6951,0
"608",608,121518,"08:54:20",151146740,160194908,"4.0.10.0",1,2,"demographics","age",0,0,0,0,0,0,"33",1,3845,0
"609",609,121518,"08:54:20",151146740,160194908,"4.0.10.0",1,3,"demographics","gender",0,0,0,0,0,0,"female",1,8584,0
"610",610,121518,"08:56:01",466106014,222407816,"4.0.10.0",1,2,"demographics","age",0,0,0,0,0,0,"30",1,3511,0
"611",611,121518,"08:56:01",466106014,222407816,"4.0.10.0",1,3,"demographics","gender",0,0,0,0,0,0,"female",1,4902,0
"612",612,121518,"13:56:34",745170740,246858936,"4.0.10.0",1,2,"demographics","age",0,0,0,0,0,0,"38",1,3321,0
"613",613,121518,"13:56:34",745170740,246858936,"4.0.10.0",1,3,"demographics","gender",0,0,0,0,0,0,"Male",1,4989,0
"614",614,121518,"19:57:00",602080083,781740051,"4.0.10.0",1,2,"demographics","age",0,0,0,0,0,0,"39",1,4440,0
"615",615,121518,"19:57:00",602080083,781740051,"4.0.10.0",1,3,"demographics","gender",0,0,0,0,0,0,"male",1,5974,0
"616",616,121518,"08:59:11",606833538,619766994,"4.0.10.0",1,2,"demographics","age",0,0,0,0,0,0,"28",1,2637,0
"617",617,121518,"08:59:11",606833538,619766994,"4.0.10.0",1,3,"demographics","gender",0,0,0,0,0,0,"male",1,3588,0
"618",618,121518,"09:00:30",170621311,736667260,"4.0.10.0",1,2,"demographics","age",0,0,0,0,0,0,"34",1,2814,0
"619",619,121518,"09:00:30",170621311,736667260,"4.0.10.0",1,3,"demographics","gender",0,0,0,0,0,0,"Male",1,3518,0
"620",620,121518,"08:00:39",519031553,472998122,"4.0.10.0",1,2,"demographics","age",0,0,0,0,0,0,"62",1,4575,0
"621",621,121518,"08:00:39",519031553,472998122,"4.0.10.0",1,3,"demographics","gender",0,0,0,0,0,0,"Female",1,5533,0
"622",622,121518,"09:04:54",381648745,696597996,"4.0.10.0",1,2,"demographics","age",0,0,0,0,0,0,"28",1,4248,0
"623",623,121518,"09:04:54",381648745,696597996,"4.0.10.0",1,3,"demographics","gender",0,0,0,0,0,0,"male",1,3746,0
"624",624,121518,"09:02:50",544027815,58567075,"4.0.10.0",1,2,"demographics","age",0,0,0,0,0,0,"51",1,3133,0
"625",625,121518,"09:02:50",544027815,58567075,"4.0.10.0",1,3,"demographics","gender",0,0,0,0,0,0,"male",1,4074,0
"626",626,121518,"06:02:41",861024884,216923730,"4.0.10.0",1,2,"demographics","age",0,0,0,0,0,0,"30",1,8303,0
"627",627,121518,"06:02:41",861024884,216923730,"4.0.10.0",1,3,"demographics","gender",0,0,0,0,0,0,"male",1,6068,0
"628",628,121518,"09:04:48",919377647,683217229,"4.0.10.0",1,2,"demographics","age",0,0,0,0,0,0,"39",1,3667,0
"629",629,121518,"09:04:48",919377647,683217229,"4.0.10.0",1,3,"demographics","gender",0,0,0,0,0,0,"male",1,6689,0
"630",630,121518,"09:04:56",183731861,894216751,"4.0.10.0",1,2,"demographics","age",0,0,0,0,0,0,"31",1,3268,0
"631",631,121518,"09:04:56",183731861,894216751,"4.0.10.0",1,3,"demographics","gender",0,0,0,0,0,0,"female",1,4994,0
"632",632,121518,"09:07:14",183731861,894216751,"4.0.10.0",1,2,"demographics","age",0,0,0,0,0,0,"31",1,3539,0
"633",633,121518,"09:07:14",183731861,894216751,"4.0.10.0",1,3,"demographics","gender",0,0,0,0,0,0,"female",1,5511,0
"634",634,121518,"14:07:41",745170740,246858936,"4.0.10.0",1,2,"demographics","age",0,0,0,0,0,0,"Male",1,4798,0
"635",635,121518,"14:07:41",745170740,246858936,"4.0.10.0",1,3,"demographics","gender",0,0,0,0,0,0,"",1,12106,0
"636",636,121518,"08:07:55",865625866,665668349,"4.0.10.0",1,2,"demographics","age",0,0,0,0,0,0,"36",1,6683,0
"637",637,121518,"08:07:55",865625866,665668349,"4.0.10.0",1,3,"demographics","gender",0,0,0,0,0,0,"female",1,7291,0
"638",638,121518,"14:08:20",745170740,246858936,"4.0.10.0",1,2,"demographics","age",0,0,0,0,0,0,"38",1,3602,0
"639",639,121518,"14:08:20",745170740,246858936,"4.0.10.0",1,3,"demographics","gender",0,0,0,0,0,0,"Male",1,4232,0
"640",640,121518,"09:11:01",725337614,657304682,"4.0.10.0",1,2,"demographics","age",0,0,0,0,0,0,"28",1,4888,0
"641",641,121518,"09:11:01",725337614,657304682,"4.0.10.0",1,3,"demographics","gender",0,0,0,0,0,0,"male",1,3744,0
"642",642,121518,"09:11:22",789315396,740800982,"4.0.10.0",1,2,"demographics","age",0,0,0,0,0,0,"18",1,4212,0
"643",643,121518,"09:11:22",789315396,740800982,"4.0.10.0",1,3,"demographics","gender",0,0,0,0,0,0,"Male",1,6957,0
"644",644,121518,"09:16:14",763200804,766915573,"4.0.10.0",1,2,"demographics","age",0,0,0,0,0,0,"22",1,2364,0
"645",645,121518,"09:16:14",763200804,766915573,"4.0.10.0",1,3,"demographics","gender",0,0,0,0,0,0,"Female",1,3384,0
"646",646,121518,"06:16:47",690681280,839435097,"4.0.10.0",1,2,"demographics","age",0,0,0,0,0,0,"36",1,5449,0
"647",647,121518,"06:16:47",690681280,839435097,"4.0.10.0",1,3,"demographics","gender",0,0,0,0,0,0,"Male",1,5382,0
"648",648,121518,"06:18:03",339867306,190249080,"4.0.10.0",1,2,"demographics","age",0,0,0,0,0,0,"36",1,3131,0
"649",649,121518,"06:18:03",339867306,190249080,"4.0.10.0",1,3,"demographics","gender",0,0,0,0,0,0,"Male",1,4340,0
"650",650,121518,"07:18:26",691821530,840944689,"4.0.10.0",1,2,"demographics","age",0,0,0,0,0,0,"61",1,4052,0
"651",651,121518,"07:18:26",691821530,840944689,"4.0.10.0",1,3,"demographics","gender",0,0,0,0,0,0,"Female",1,7704,0
"652",652,121518,"06:18:57",339867306,190249080,"4.0.10.0",1,2,"demographics","age",0,0,0,0,0,0,"36",1,4000,0
"653",653,121518,"06:18:57",339867306,190249080,"4.0.10.0",1,3,"demographics","gender",0,0,0,0,0,0,"Male",1,4695,0
"654",654,121518,"06:22:02",690681280,839435097,"4.0.10.0",1,2,"demographics","age",0,0,0,0,0,0,"36",1,2605,0
"655",655,121518,"06:22:02",690681280,839435097,"4.0.10.0",1,3,"demographics","gender",0,0,0,0,0,0,"Male",1,4483,0
"656",656,121518,"06:23:29",690681280,839435097,"4.0.10.0",1,2,"demographics","age",0,0,0,0,0,0,"36",1,2802,0
"657",657,121518,"06:23:29",690681280,839435097,"4.0.10.0",1,3,"demographics","gender",0,0,0,0,0,0,"Male",1,3464,0
"658",658,121518,"06:24:45",339867306,190249080,"4.0.10.0",1,2,"demographics","age",0,0,0,0,0,0,"36",1,2553,0
"659",659,121518,"06:24:45",339867306,190249080,"4.0.10.0",1,3,"demographics","gender",0,0,0,0,0,0,"Male",1,3841,0
"660",660,121518,"06:25:56",339867306,190249080,"4.0.10.0",1,2,"demographics","age",0,0,0,0,0,0,"36",1,2467,0
"661",661,121518,"06:25:56",339867306,190249080,"4.0.10.0",1,3,"demographics","gender",0,0,0,0,0,0,"Male",1,4462,0
"662",662,121518,"06:32:23",710004160,283203349,"4.0.10.0",1,2,"demographics","age",0,0,0,0,0,0,"36",1,2463,0
"663",663,121518,"06:32:23",710004160,283203349,"4.0.10.0",1,3,"demographics","gender",0,0,0,0,0,0,"Male",1,3747,0
"664",664,121518,"07:35:03",557877290,364029556,"4.0.10.0",1,2,"demographics","age",0,0,0,0,0,0,"59",1,5420,0
"665",665,121518,"07:35:03",557877290,364029556,"4.0.10.0",1,3,"demographics","gender",0,0,0,0,0,0,"male",1,6353,0
"666",666,121518,"06:35:57",195071466,493442358,"4.0.10.0",1,2,"demographics","age",0,0,0,0,0,0,"40",1,3597,0
"667",667,121518,"06:35:57",195071466,493442358,"4.0.10.0",1,3,"demographics","gender",0,0,0,0,0,0,"Male",1,4472,0
"668",668,121518,"06:36:14",140530282,304845003,"4.0.10.0",1,2,"demographics","age",0,0,0,0,0,0,"36",1,2806,0
"669",669,121518,"06:36:14",140530282,304845003,"4.0.10.0",1,3,"demographics","gender",0,0,0,0,0,0,"Male",1,3932,0
"670",670,121518,"06:42:38",450443644,323705666,"4.0.10.0",1,2,"demographics","age",0,0,0,0,0,0,"32",1,6865,0
"671",671,121518,"06:42:38",450443644,323705666,"4.0.10.0",1,3,"demographics","gender",0,0,0,0,0,0,"male",1,5499,0
"672",672,121518,"06:45:03",658509506,263397341,"4.0.10.0",1,2,"demographics","age",0,0,0,0,0,0,"36",1,3085,0
"673",673,121518,"06:45:03",658509506,263397341,"4.0.10.0",1,3,"demographics","gender",0,0,0,0,0,0,"Male",1,6359,0
"674",674,121518,"09:45:25",559641598,518307012,"4.0.10.0",1,2,"demographics","age",0,0,0,0,0,0,"23",1,2299,0
"675",675,121518,"09:45:25",559641598,518307012,"4.0.10.0",1,3,"demographics","gender",0,0,0,0,0,0,"female",1,2574,0
"676",676,121518,"10:29:48",841554545,993255517,"4.0.10.0",1,2,"demographics","age",0,0,0,0,0,0,"58",1,3199,0
"677",677,121518,"10:29:48",841554545,993255517,"4.0.10.0",1,3,"demographics","gender",0,0,0,0,0,0,"female",1,5348,0
"678",678,121518,"09:00:10",868453486,69862366,"4.0.10.0",1,2,"demographics","age",0,0,0,0,0,0,"30",1,4410,0
"679",679,121518,"09:00:10",868453486,69862366,"4.0.10.0",1,3,"demographics","gender",0,0,0,0,0,0,"male",1,5247,0
"680",680,121518,"08:02:59",112317841,270026338,"4.0.10.0",1,2,"demographics","age",0,0,0,0,0,0,"42",1,6385,0
"681",681,121518,"08:02:59",112317841,270026338,"4.0.10.0",1,3,"demographics","gender",0,0,0,0,0,0,"Male",1,7933,0
"682",682,121518,"09:03:59",577322545,806497583,"4.0.10.0",1,2,"demographics","age",0,0,0,0,0,0,"65",1,2955,0
"683",683,121518,"09:03:59",577322545,806497583,"4.0.10.0",1,3,"demographics","gender",0,0,0,0,0,0,"male",1,4403,0
"684",684,121518,"07:05:00",744992891,785123486,"4.0.10.0",1,2,"demographics","age",0,0,0,0,0,0,"40",1,3699,0
"685",685,121518,"07:05:00",744992891,785123486,"4.0.10.0",1,3,"demographics","gender",0,0,0,0,0,0,"Male",1,5481,0
"686",686,121518,"09:05:40",868453486,69862366,"4.0.10.0",1,2,"demographics","age",0,0,0,0,0,0,"30",1,6039,0
"687",687,121518,"09:05:40",868453486,69862366,"4.0.10.0",1,3,"demographics","gender",0,0,0,0,0,0,"male",1,3335,0
"688",688,121518,"10:05:10",492585033,585363575,"4.0.10.0",1,2,"demographics","age",0,0,0,0,0,0,"26",1,12563,0
"689",689,121518,"10:05:10",492585033,585363575,"4.0.10.0",1,3,"demographics","gender",0,0,0,0,0,0,"Male",1,6282,0
"690",690,121518,"11:07:17",347109035,36711105,"4.0.10.0",1,2,"demographics","age",0,0,0,0,0,0,"42",1,4674,0
"691",691,121518,"11:07:17",347109035,36711105,"4.0.10.0",1,3,"demographics","gender",0,0,0,0,0,0,"Male",1,8034,0
"692",692,121518,"07:09:33",212773646,927907945,"4.0.10.0",1,2,"demographics","age",0,0,0,0,0,0,"45",1,4067,0
"693",693,121518,"07:09:33",212773646,927907945,"4.0.10.0",1,3,"demographics","gender",0,0,0,0,0,0,"male",1,4017,0
"694",694,121518,"07:33:41",925176233,68031280,"4.0.10.0",1,2,"demographics","age",0,0,0,0,0,0,"45",1,3621,0
"695",695,121518,"07:33:41",925176233,68031280,"4.0.10.0",1,3,"demographics","gender",0,0,0,0,0,0,"MALE",1,438582,0
"696",696,121518,"09:57:59",812504356,663898196,"4.0.10.0",1,2,"demographics","age",0,0,0,0,0,0,"32",1,3170,0
"697",697,121518,"09:57:59",812504356,663898196,"4.0.10.0",1,3,"demographics","gender",0,0,0,0,0,0,"female",1,4576,0
"698",698,121518,"11:08:57",593219278,852435484,"4.0.10.0",1,2,"demographics","age",0,0,0,0,0,0,"40",1,4110,0
"699",699,121518,"11:08:57",593219278,852435484,"4.0.10.0",1,3,"demographics","gender",0,0,0,0,0,0,"male",1,3453,0
"700",700,121518,"11:22:50",201196700,111322780,"4.0.10.0",1,2,"demographics","age",0,0,0,0,0,0,"38",1,3088,0
"701",701,121518,"11:22:50",201196700,111322780,"4.0.10.0",1,3,"demographics","gender",0,0,0,0,0,0,"female",1,5937,0
"702",702,121518,"11:26:58",421641774,876259412,"4.0.10.0",1,2,"demographics","age",0,0,0,0,0,0,"40",1,3113,0
"703",703,121518,"11:26:58",421641774,876259412,"4.0.10.0",1,3,"demographics","gender",0,0,0,0,0,0,"male",1,3257,0
"704",704,121518,"11:07:11",851141416,617419821,"4.0.10.0",1,2,"demographics","age",0,0,0,0,0,0,"25",1,4947,0
"705",705,121518,"11:07:11",851141416,617419821,"4.0.10.0",1,3,"demographics","gender",0,0,0,0,0,0,"Male",1,7490,0
"706",706,121518,"11:09:16",934069739,511305539,"4.0.10.0",1,2,"demographics","age",0,0,0,0,0,0,"20",1,4149,0
"707",707,121518,"11:09:16",934069739,511305539,"4.0.10.0",1,3,"demographics","gender",0,0,0,0,0,0,"Male",1,2988,0
"708",708,121518,"12:12:15",358674301,343279962,"4.0.10.0",1,2,"demographics","age",0,0,0,0,0,0,"28",1,4034,0
"709",709,121518,"12:12:15",358674301,343279962,"4.0.10.0",1,3,"demographics","gender",0,0,0,0,0,0,"Female",1,6490,0
"710",710,121518,"23:12:19",83973055,518621831,"4.0.10.0",1,2,"demographics","age",0,0,0,0,0,0,"42",1,4431,0
"711",711,121518,"23:12:19",83973055,518621831,"4.0.10.0",1,3,"demographics","gender",0,0,0,0,0,0,"Male",1,6225,0
"712",712,121518,"23:15:28",519296640,315513426,"4.0.10.0",1,2,"demographics","age",0,0,0,0,0,0,"40",1,6984,0
"713",713,121518,"23:15:28",519296640,315513426,"4.0.10.0",1,3,"demographics","gender",0,0,0,0,0,0,"male",1,5606,0
"714",714,121518,"12:15:48",843849212,454051982,"4.0.10.0",1,2,"demographics","age",0,0,0,0,0,0,"27",1,3418,0
"715",715,121518,"12:15:48",843849212,454051982,"4.0.10.0",1,3,"demographics","gender",0,0,0,0,0,0,"Male",1,4167,0
"716",716,121518,"12:17:37",409626442,277709542,"4.0.10.0",1,2,"demographics","age",0,0,0,0,0,0,"41",1,3245,0
"717",717,121518,"12:17:37",409626442,277709542,"4.0.10.0",1,3,"demographics","gender",0,0,0,0,0,0,"Female",1,4859,0
"718",718,121518,"11:20:18",173252333,124648870,"4.0.10.0",1,2,"demographics","age",0,0,0,0,0,0,"40",1,3634,0
"719",719,121518,"11:20:18",173252333,124648870,"4.0.10.0",1,3,"demographics","gender",0,0,0,0,0,0,"Female",1,6216,0
"720",720,121518,"23:20:55",519296640,315513426,"4.0.10.0",1,2,"demographics","age",0,0,0,0,0,0,"40",1,8201,0
"721",721,121518,"23:20:55",519296640,315513426,"4.0.10.0",1,3,"demographics","gender",0,0,0,0,0,0,"male",1,6221,0
"722",722,121518,"12:23:32",462567086,373420818,"4.0.10.0",1,2,"demographics","age",0,0,0,0,0,0,"27",1,3026,0
"723",723,121518,"12:23:32",462567086,373420818,"4.0.10.0",1,3,"demographics","gender",0,0,0,0,0,0,"Female",1,3984,0
"724",724,121518,"10:30:39",604669371,302619196,"4.0.10.0",1,2,"demographics","age",0,0,0,0,0,0,"26",1,3270,0
"725",725,121518,"10:30:39",604669371,302619196,"4.0.10.0",1,3,"demographics","gender",0,0,0,0,0,0,"female",1,6235,0
"726",726,121518,"23:45:39",519296640,315513426,"4.0.10.0",1,2,"demographics","age",0,0,0,0,0,0,"40",1,6734,0
"727",727,121518,"23:45:39",519296640,315513426,"4.0.10.0",1,3,"demographics","gender",0,0,0,0,0,0,"Male",1,8856,0
"728",728,121618,"00:00:28",519296640,315513426,"4.0.10.0",1,2,"demographics","age",0,0,0,0,0,0,"40",1,3426,0
"729",729,121618,"00:00:28",519296640,315513426,"4.0.10.0",1,3,"demographics","gender",0,0,0,0,0,0,"male",1,5549,0
"730",730,121518,"12:11:31",16940446,451620800,"4.0.10.0",1,2,"demographics","age",0,0,0,0,0,0,"48",1,3398,0
"731",731,121518,"12:11:31",16940446,451620800,"4.0.10.0",1,3,"demographics","gender",0,0,0,0,0,0,"female",1,5489,0
"732",732,121618,"00:20:53",933556926,72792898,"4.0.10.0",1,2,"demographics","age",0,0,0,0,0,0,"40",1,2951,0
"733",733,121618,"00:20:53",933556926,72792898,"4.0.10.0",1,3,"demographics","gender",0,0,0,0,0,0,"Male",1,4188,0
