"date","time","group","subject","build","blocknum","trialnum","blockcode","trialcode","pretrialpause","posttrialpause","windowcenter","trialduration","trialtimeout","blocktimeout","response","correct","latency","inwindow"
"100918","12:35:48","607010530","896525387","4.0.10.0","1","1","demographics","ProlificCode","0","0","0","0","0","0","5b0967ff1c95000001fcb6ce","1","10795","0"
"100918","12:35:48","607010530","896525387","4.0.10.0","1","2","demographics","age","0","0","0","0","0","0","38","1","4485","0"
"100918","12:35:48","607010530","896525387","4.0.10.0","1","3","demographics","gender","0","0","0","0","0","0","male","1","5045","0"
"100918","11:36:06","967070383","548346706","4.0.10.0","1","1","demographics","ProlificCode","0","0","0","0","0","0","5b137177bd9c31000156d6ef","1","5338","0"
"100918","11:36:06","967070383","548346706","4.0.10.0","1","2","demographics","age","0","0","0","0","0","0","47","1","3339","0"
"100918","11:36:06","967070383","548346706","4.0.10.0","1","3","demographics","gender","0","0","0","0","0","0","Female","1","5652","0"
"100918","12:45:59","403116376","232565411","4.0.10.0","1","1","demographics","ProlificCode","0","0","0","0","0","0","5b77150a87d85f0001b9914f","1","9339","0"
"100918","12:45:59","403116376","232565411","4.0.10.0","1","2","demographics","age","0","0","0","0","0","0","54","1","3725","0"
"100918","12:45:59","403116376","232565411","4.0.10.0","1","3","demographics","gender","0","0","0","0","0","0","Male","1","7624","0"
"100918","12:52:03","624935418","844835660","4.0.10.0","1","1","demographics","ProlificCode","0","0","0","0","0","0","5b90b9031bfa0e000164da8d","1","7988","0"
"100918","12:52:03","624935418","844835660","4.0.10.0","1","2","demographics","age","0","0","0","0","0","0","33","1","2427","0"
"100918","12:52:03","624935418","844835660","4.0.10.0","1","3","demographics","gender","0","0","0","0","0","0","male","1","5134","0"
"100918","09:46:24","544055788","313716435","4.0.10.0","1","1","demographics","ProlificCode","0","0","0","0","0","0","5637ca16dc62e5000bcb4589","1","3551","0"
"100918","09:46:24","544055788","313716435","4.0.10.0","1","2","demographics","age","0","0","0","0","0","0","31","1","3701","0"
"100918","09:46:24","544055788","313716435","4.0.10.0","1","3","demographics","gender","0","0","0","0","0","0","Male","1","2991","0"
"100918","12:53:29","52747213","295994828","4.0.10.0","1","1","demographics","ProlificCode","0","0","0","0","0","0","5b5b72a8810deb0001fcca93","1","7780","0"
"100918","12:53:29","52747213","295994828","4.0.10.0","1","2","demographics","age","0","0","0","0","0","0","31","1","3554","0"
"100918","12:53:29","52747213","295994828","4.0.10.0","1","3","demographics","gender","0","0","0","0","0","0","FEMALE","1","6474","0"
"100918","12:57:36","484393856","12844131","4.0.10.0","1","1","demographics","ProlificCode","0","0","0","0","0","0","5a6a84559d65ec00017e691f","1","12697","0"
"100918","12:57:36","484393856","12844131","4.0.10.0","1","2","demographics","age","0","0","0","0","0","0","35","1","2074","0"
"100918","12:57:36","484393856","12844131","4.0.10.0","1","3","demographics","gender","0","0","0","0","0","0","male","1","1743","0"
"100918","12:01:27","283091169","964904693","4.0.10.0","1","1","demographics","ProlificCode","0","0","0","0","0","0","5bb23c4aa2fec100011ce3ef","1","4768","0"
"100918","12:01:27","283091169","964904693","4.0.10.0","1","2","demographics","age","0","0","0","0","0","0","39","1","3284","0"
"100918","12:01:27","283091169","964904693","4.0.10.0","1","3","demographics","gender","0","0","0","0","0","0","male","1","5752","0"
"100918","13:01:48","888504421","54344053","4.0.10.0","1","1","demographics","ProlificCode","0","0","0","0","0","0","5ba845a63e64da0001ad1655","1","13032","0"
"100918","13:01:48","888504421","54344053","4.0.10.0","1","2","demographics","age","0","0","0","0","0","0","22","1","3757","0"
"100918","13:01:48","888504421","54344053","4.0.10.0","1","3","demographics","gender","0","0","0","0","0","0","male","1","4240","0"
"100918","13:02:15","250984694","568558267","4.0.10.0","1","1","demographics","ProlificCode","0","0","0","0","0","0","57dd766bbcd7150001ded5de","1","10838","0"
"100918","13:02:15","250984694","568558267","4.0.10.0","1","2","demographics","age","0","0","0","0","0","0","49","1","3545","0"
"100918","13:02:15","250984694","568558267","4.0.10.0","1","3","demographics","gender","0","0","0","0","0","0","Male","1","4698","0"
"100918","10:03:25","35761142","733556163","4.0.10.0","1","1","demographics","ProlificCode","0","0","0","0","0","0","5ba5b97e38803d0001265b23","1","17763","0"
"100918","10:03:25","35761142","733556163","4.0.10.0","1","2","demographics","age","0","0","0","0","0","0","39","1","4472","0"
"100918","10:03:25","35761142","733556163","4.0.10.0","1","3","demographics","gender","0","0","0","0","0","0","female","1","4366","0"
"100918","10:06:57","220583496","602656804","4.0.10.0","1","1","demographics","ProlificCode","0","0","0","0","0","0","5ba3e39d984ec30001c5f2aa","1","7431","0"
"100918","10:06:57","220583496","602656804","4.0.10.0","1","2","demographics","age","0","0","0","0","0","0","26","1","4474","0"
"100918","10:06:57","220583496","602656804","4.0.10.0","1","3","demographics","gender","0","0","0","0","0","0","Female","1","10515","0"
"100918","12:08:03","470849782","993168739","4.0.10.0","1","1","demographics","ProlificCode","0","0","0","0","0","0","56802e5fc5767f00121cc6a0","1","17780","0"
"100918","12:08:03","470849782","993168739","4.0.10.0","1","2","demographics","age","0","0","0","0","0","0","60","1","3575","0"
"100918","12:08:03","470849782","993168739","4.0.10.0","1","3","demographics","gender","0","0","0","0","0","0","Male","1","4524","0"
"100918","10:15:29","891819350","250117793","4.0.10.0","1","1","demographics","ProlificCode","0","0","0","0","0","0","5b938bae0a98ac0001b0fee1","1","18516","0"
"100918","10:15:29","891819350","250117793","4.0.10.0","1","2","demographics","age","0","0","0","0","0","0","30","1","3981","0"
"100918","10:15:29","891819350","250117793","4.0.10.0","1","3","demographics","gender","0","0","0","0","0","0","Male","1","6269","0"
"100918","13:16:08","609735899","71968352","4.0.10.0","1","1","demographics","ProlificCode","0","0","0","0","0","0","59764fb5435a750001158fd1","1","7011","0"
"100918","13:16:08","609735899","71968352","4.0.10.0","1","2","demographics","age","0","0","0","0","0","0","39","1","3992","0"
"100918","13:16:08","609735899","71968352","4.0.10.0","1","3","demographics","gender","0","0","0","0","0","0","Female","1","6181","0"
"100918","13:17:19","609735899","71968352","4.0.10.0","1","1","demographics","ProlificCode","0","0","0","0","0","0","59764fb5435a750001158fd1","1","4749","0"
"100918","13:17:19","609735899","71968352","4.0.10.0","1","2","demographics","age","0","0","0","0","0","0","39","1","4367","0"
"100918","13:17:19","609735899","71968352","4.0.10.0","1","3","demographics","gender","0","0","0","0","0","0","Female","1","6003","0"
"100918","13:17:25","587935353","703603455","4.0.10.0","1","1","demographics","ProlificCode","0","0","0","0","0","0","55b9a9b0fdf99b6906d2aba4","1","14429","0"
"100918","13:17:25","587935353","703603455","4.0.10.0","1","2","demographics","age","0","0","0","0","0","0","63","1","7705","0"
"100918","13:17:25","587935353","703603455","4.0.10.0","1","3","demographics","gender","0","0","0","0","0","0","Male","1","5307","0"
"100918","10:19:17","850817502","466283845","4.0.10.0","1","1","demographics","ProlificCode","0","0","0","0","0","0","5b745fb794c93d00010fc4c6","1","20108","0"
"100918","10:19:17","850817502","466283845","4.0.10.0","1","2","demographics","age","0","0","0","0","0","0","42","1","2783","0"
"100918","10:19:17","850817502","466283845","4.0.10.0","1","3","demographics","gender","0","0","0","0","0","0","Male","1","3423","0"
"100918","12:22:47","573144487","503719655","4.0.10.0","1","1","demographics","ProlificCode","0","0","0","0","0","0","5ba3f1f8f94d410001fac15a","1","34134","0"
"100918","12:22:47","573144487","503719655","4.0.10.0","1","2","demographics","age","0","0","0","0","0","0","27","1","2031","0"
"100918","12:22:47","573144487","503719655","4.0.10.0","1","3","demographics","gender","0","0","0","0","0","0","female","1","2618","0"
"100918","10:22:47","311418879","406014575","4.0.10.0","1","1","demographics","ProlificCode","0","0","0","0","0","0","5b9e6bff9624180001130843","1","114174","0"
"100918","10:22:47","311418879","406014575","4.0.10.0","1","2","demographics","age","0","0","0","0","0","0","37","1","5781","0"
"100918","10:22:47","311418879","406014575","4.0.10.0","1","3","demographics","gender","0","0","0","0","0","0","Male","1","8124","0"
"100918","13:24:33","844217914","844835202","4.0.10.0","1","1","demographics","ProlificCode","0","0","0","0","0","0","597ce9658a05ba00010a57b8","1","6915","0"
"100918","13:24:33","844217914","844835202","4.0.10.0","1","2","demographics","age","0","0","0","0","0","0","25","1","3947","0"
"100918","13:24:33","844217914","844835202","4.0.10.0","1","3","demographics","gender","0","0","0","0","0","0","male","1","6010","0"
"100918","13:29:41","562679605","850346999","4.0.10.0","1","1","demographics","ProlificCode","0","0","0","0","0","0","5ba3b4b2509a380001bee71d","1","33791","0"
"100918","13:29:41","562679605","850346999","4.0.10.0","1","2","demographics","age","0","0","0","0","0","0","37","1","3080","0"
"100918","13:29:41","562679605","850346999","4.0.10.0","1","3","demographics","gender","0","0","0","0","0","0","female","1","3936","0"
"100918","13:30:26","220050994","234778349","4.0.10.0","1","1","demographics","ProlificCode","0","0","0","0","0","0","5b7f65af338a93000155b0b0","1","5169","0"
"100918","13:30:26","220050994","234778349","4.0.10.0","1","2","demographics","age","0","0","0","0","0","0","28","1","2869","0"
"100918","13:30:26","220050994","234778349","4.0.10.0","1","3","demographics","gender","0","0","0","0","0","0","F","1","2926","0"
"100918","13:31:20","569536690","805394460","4.0.10.0","1","1","demographics","ProlificCode","0","0","0","0","0","0","55bfa394fdf99b38606a5176","1","27596","0"
"100918","13:31:20","569536690","805394460","4.0.10.0","1","2","demographics","age","0","0","0","0","0","0","40","1","13168","0"
"100918","13:31:20","569536690","805394460","4.0.10.0","1","3","demographics","gender","0","0","0","0","0","0","female","1","9305","0"
"100918","10:31:45","891819350","250117793","4.0.10.0","1","1","demographics","ProlificCode","0","0","0","0","0","0","5b938bae0a98ac0001b0fee1","1","39210","0"
"100918","10:31:45","891819350","250117793","4.0.10.0","1","2","demographics","age","0","0","0","0","0","0","30","1","9567","0"
"100918","10:31:45","891819350","250117793","4.0.10.0","1","3","demographics","gender","0","0","0","0","0","0","Male","1","6374","0"
"100918","10:32:17","325170286","843794323","4.0.10.0","1","1","demographics","ProlificCode","0","0","0","0","0","0","","1","30644","0"
"100918","10:33:14","325170286","843794323","4.0.10.0","1","1","demographics","ProlificCode","0","0","0","0","0","0","55b6ed4afdf99b437183fa6f","1","6874","0"
"100918","10:33:14","325170286","843794323","4.0.10.0","1","2","demographics","age","0","0","0","0","0","0","45","1","3255","0"
"100918","10:33:14","325170286","843794323","4.0.10.0","1","3","demographics","gender","0","0","0","0","0","0","Female","1","4079","0"
"100918","10:37:08","467446487","60396497","4.0.10.0","1","1","demographics","ProlificCode","0","0","0","0","0","0","5b938bae0a98ac0001b0fee1","1","2899","0"
"100918","10:37:08","467446487","60396497","4.0.10.0","1","2","demographics","age","0","0","0","0","0","0","30","1","4170","0"
"100918","10:37:08","467446487","60396497","4.0.10.0","1","3","demographics","gender","0","0","0","0","0","0","Male","1","20591","0"
"100918","13:38:23","662046693","435991174","4.0.10.0","1","1","demographics","ProlificCode","0","0","0","0","0","0","5a135875074b1900012527a9","1","9548","0"
"100918","13:38:23","662046693","435991174","4.0.10.0","1","2","demographics","age","0","0","0","0","0","0","42","1","2619","0"
"100918","13:38:23","662046693","435991174","4.0.10.0","1","3","demographics","gender","0","0","0","0","0","0","female","1","2791","0"
"100918","13:38:30","190570929","48667600","4.0.10.0","1","1","demographics","ProlificCode","0","0","0","0","0","0","5783027f913c71000197300d ","1","14254","0"
"100918","13:38:30","190570929","48667600","4.0.10.0","1","2","demographics","age","0","0","0","0","0","0","40","1","4335","0"
"100918","13:38:30","190570929","48667600","4.0.10.0","1","3","demographics","gender","0","0","0","0","0","0","female","1","7085","0"
"100918","10:43:17","417052816","473763569","4.0.10.0","1","1","demographics","ProlificCode","0","0","0","0","0","0","5b9f8e482af8ec00017ac431","1","17414","0"
"100918","10:43:17","417052816","473763569","4.0.10.0","1","2","demographics","age","0","0","0","0","0","0","28","1","31380","0"
"100918","10:43:17","417052816","473763569","4.0.10.0","1","3","demographics","gender","0","0","0","0","0","0","Male","1","4605","0"
"100918","11:47:34","962919174","178108084","4.0.10.0","1","1","demographics","ProlificCode","0","0","0","0","0","0","5ad87d6fa77e0e0001c43295","1","6347","0"
"100918","11:47:34","962919174","178108084","4.0.10.0","1","2","demographics","age","0","0","0","0","0","0","18","1","2515","0"
"100918","11:47:34","962919174","178108084","4.0.10.0","1","3","demographics","gender","0","0","0","0","0","0","male","1","3480","0"
"100918","13:54:00","220221688","54382068","4.0.10.0","1","1","demographics","ProlificCode","0","0","0","0","0","0","5b6515e83662a8000158b2aa","1","4492","0"
"100918","13:54:00","220221688","54382068","4.0.10.0","1","2","demographics","age","0","0","0","0","0","0","35","1","2705","0"
"100918","13:54:00","220221688","54382068","4.0.10.0","1","3","demographics","gender","0","0","0","0","0","0","Male","1","3804","0"
"100918","13:55:16","74246284","506870675","4.0.10.0","1","1","demographics","ProlificCode","0","0","0","0","0","0"," ","1","19541","0"
"100918","13:55:16","74246284","506870675","4.0.10.0","1","2","demographics","age","0","0","0","0","0","0","","1","10473","0"
"100918","13:59:09","648134634","84752084","4.0.10.0","1","1","demographics","ProlificCode","0","0","0","0","0","0","5a8cd05d17ef35000170cd80","1","59261","0"
"100918","13:59:09","648134634","84752084","4.0.10.0","1","2","demographics","age","0","0","0","0","0","0","23","1","2086","0"
"100918","13:59:09","648134634","84752084","4.0.10.0","1","3","demographics","gender","0","0","0","0","0","0","female","1","3128","0"
"100918","14:03:33","47602434","577900158","4.0.10.0","1","1","demographics","ProlificCode","0","0","0","0","0","0","580a6d0d5773b50001aab1d4","1","6437","0"
"100918","14:03:33","47602434","577900158","4.0.10.0","1","2","demographics","age","0","0","0","0","0","0","42","1","2400","0"
"100918","14:03:33","47602434","577900158","4.0.10.0","1","3","demographics","gender","0","0","0","0","0","0","female","1","4776","0"
"100918","13:05:32","144475281","588773360","4.0.10.0","1","1","demographics","ProlificCode","0","0","0","0","0","0","5b9f0ebacbabef00011763c2","1","20838","0"
"100918","13:05:32","144475281","588773360","4.0.10.0","1","2","demographics","age","0","0","0","0","0","0","24","1","6885","0"
"100918","13:05:32","144475281","588773360","4.0.10.0","1","3","demographics","gender","0","0","0","0","0","0","male","1","4602","0"
"100918","11:06:38","672512767","735354817","4.0.10.0","1","1","demographics","ProlificCode","0","0","0","0","0","0","5b9c270f12dc2f0001ac933e","1","5417","0"
"100918","11:06:38","672512767","735354817","4.0.10.0","1","2","demographics","age","0","0","0","0","0","0","30","1","4699","0"
"100918","11:06:38","672512767","735354817","4.0.10.0","1","3","demographics","gender","0","0","0","0","0","0","Male","1","4584","0"
"100918","13:12:02","957315112","92046762","4.0.10.0","1","1","demographics","ProlificCode","0","0","0","0","0","0","5b56abd5303c330001664b51","1","18849","0"
"100918","13:12:02","957315112","92046762","4.0.10.0","1","2","demographics","age","0","0","0","0","0","0","33","1","2715","0"
"100918","13:12:02","957315112","92046762","4.0.10.0","1","3","demographics","gender","0","0","0","0","0","0","female","1","12641","0"
"100918","13:14:33","957315112","92046762","4.0.10.0","1","1","demographics","ProlificCode","0","0","0","0","0","0","5b56abd5303c330001664b51","1","2361","0"
"100918","13:14:33","957315112","92046762","4.0.10.0","1","2","demographics","age","0","0","0","0","0","0","33","1","2287","0"
"100918","13:14:33","957315112","92046762","4.0.10.0","1","3","demographics","gender","0","0","0","0","0","0","female","1","4742","0"
"100918","14:16:11","100030999","19446760","4.0.10.0","1","1","demographics","ProlificCode","0","0","0","0","0","0","5b6dc41afd9d8700014b33bd","1","8748","0"
"100918","14:16:11","100030999","19446760","4.0.10.0","1","2","demographics","age","0","0","0","0","0","0","29","1","2483","0"
"100918","14:16:11","100030999","19446760","4.0.10.0","1","3","demographics","gender","0","0","0","0","0","0","Female","1","3280","0"
"100918","11:26:25","508497263","905721027","4.0.10.0","1","1","demographics","ProlificCode","0","0","0","0","0","0","5b93b0c56adb2600019055f2","1","3390","0"
"100918","11:26:25","508497263","905721027","4.0.10.0","1","2","demographics","age","0","0","0","0","0","0","30","1","4467","0"
"100918","11:26:25","508497263","905721027","4.0.10.0","1","3","demographics","gender","0","0","0","0","0","0","Male","1","6928","0"
"100918","14:28:29","599086507","894732663","4.0.10.0","1","1","demographics","ProlificCode","0","0","0","0","0","0","5bb289a3e38a730001e6e873","1","7809","0"
"100918","14:28:29","599086507","894732663","4.0.10.0","1","2","demographics","age","0","0","0","0","0","0","24","1","3894","0"
"100918","14:28:29","599086507","894732663","4.0.10.0","1","3","demographics","gender","0","0","0","0","0","0","Male","1","4301","0"
"100918","14:29:46","268661851","462350836","4.0.10.0","1","1","demographics","ProlificCode","0","0","0","0","0","0","5842df9887077d0001ad89b6","1","3728","0"
"100918","14:29:46","268661851","462350836","4.0.10.0","1","2","demographics","age","0","0","0","0","0","0","36","1","2182","0"
"100918","14:29:46","268661851","462350836","4.0.10.0","1","3","demographics","gender","0","0","0","0","0","0","Female","1","7196","0"
"100918","11:32:00","980917464","413541867","4.0.10.0","1","1","demographics","ProlificCode","0","0","0","0","0","0","5b2c4eeb5b5c0900018b3df1","1","7677","0"
"100918","11:32:00","980917464","413541867","4.0.10.0","1","2","demographics","age","0","0","0","0","0","0","28","1","1845","0"
"100918","11:32:00","980917464","413541867","4.0.10.0","1","3","demographics","gender","0","0","0","0","0","0","male","1","4755","0"
"100918","13:35:24","258548747","80607936","4.0.10.0","1","1","demographics","ProlificCode","0","0","0","0","0","0","per CAC: parts are in inspection and should ship this afternoon for a 10/10/18 delivery.","1","6942","0"
"100918","14:35:58","905334963","562784706","4.0.10.0","1","1","demographics","ProlificCode","0","0","0","0","0","0","5bb9db4a56161d0001006da1","1","18625","0"
"100918","14:35:58","905334963","562784706","4.0.10.0","1","2","demographics","age","0","0","0","0","0","0","34","1","3261","0"
"100918","14:35:58","905334963","562784706","4.0.10.0","1","3","demographics","gender","0","0","0","0","0","0","Male","1","3273","0"
"100918","14:37:42","550287683","174773181","4.0.10.0","1","1","demographics","ProlificCode","0","0","0","0","0","0","5b21c4ab31d0080001b9f55e","1","3977","0"
"100918","14:37:42","550287683","174773181","4.0.10.0","1","2","demographics","age","0","0","0","0","0","0","22","1","3352","0"
"100918","14:37:42","550287683","174773181","4.0.10.0","1","3","demographics","gender","0","0","0","0","0","0","female","1","3430","0"
"100918","11:50:48","612765311","225367765","4.0.10.0","1","1","demographics","ProlificCode","0","0","0","0","0","0","33","1","3445","0"
"100918","11:50:48","612765311","225367765","4.0.10.0","1","2","demographics","age","0","0","0","0","0","0","","1","9463","0"
"100918","11:51:12","612765311","225367765","4.0.10.0","1","1","demographics","ProlificCode","0","0","0","0","0","0","5baa1d38168e5e0001e4f3f9 ","1","2959","0"
"100918","11:51:12","612765311","225367765","4.0.10.0","1","2","demographics","age","0","0","0","0","0","0","33","1","2746","0"
"100918","11:51:12","612765311","225367765","4.0.10.0","1","3","demographics","gender","0","0","0","0","0","0","Female","1","5126","0"
"100918","13:53:06","73827850","167200951","4.0.10.0","1","1","demographics","ProlificCode","0","0","0","0","0","0","5a7b73b5f1408d0001762c95","1","17030","0"
"100918","13:53:06","73827850","167200951","4.0.10.0","1","2","demographics","age","0","0","0","0","0","0","38","1","3982","0"
"100918","13:53:06","73827850","167200951","4.0.10.0","1","3","demographics","gender","0","0","0","0","0","0","male","1","3891","0"
"100918","14:59:30","90759216","134166050","4.0.10.0","1","1","demographics","ProlificCode","0","0","0","0","0","0","5ac14494e1099600016a6330","1","34569","0"
"100918","14:59:30","90759216","134166050","4.0.10.0","1","2","demographics","age","0","0","0","0","0","0","32","1","3131","0"
"100918","14:59:30","90759216","134166050","4.0.10.0","1","3","demographics","gender","0","0","0","0","0","0","Female","1","3909","0"
"100918","12:01:23","345873910","981379283","4.0.10.0","1","1","demographics","ProlificCode","0","0","0","0","0","0","5bb7d50b94519e0001c5a095","1","26074","0"
"100918","12:01:23","345873910","981379283","4.0.10.0","1","2","demographics","age","0","0","0","0","0","0","38","1","4074","0"
"100918","12:01:23","345873910","981379283","4.0.10.0","1","3","demographics","gender","0","0","0","0","0","0","Female","1","6392","0"
"100918","15:13:36","88069358","590792396","4.0.10.0","1","1","demographics","ProlificCode","0","0","0","0","0","0","58a5e2fc27c3bb00014e7633","1","3082","0"
"100918","15:13:36","88069358","590792396","4.0.10.0","1","2","demographics","age","0","0","0","0","0","0","29","1","4068","0"
"100918","15:13:36","88069358","590792396","4.0.10.0","1","3","demographics","gender","0","0","0","0","0","0","female","1","6198","0"
"100918","13:10:09","572625464","495671078","4.0.10.0","1","1","demographics","ProlificCode","0","0","0","0","0","0","5bafe43b51dfa80001310b8f","1","5018","0"
"100918","13:10:09","572625464","495671078","4.0.10.0","1","2","demographics","age","0","0","0","0","0","0","27","1","3043","0"
"100918","13:10:09","572625464","495671078","4.0.10.0","1","3","demographics","gender","0","0","0","0","0","0","Male","1","2912","0"
"100918","15:19:27","65297956","637314706","4.0.10.0","1","1","demographics","ProlificCode","0","0","0","0","0","0","5b0d5831324e08000152f143","1","12664","0"
"100918","15:19:27","65297956","637314706","4.0.10.0","1","2","demographics","age","0","0","0","0","0","0","28","1","3856","0"
"100918","15:19:27","65297956","637314706","4.0.10.0","1","3","demographics","gender","0","0","0","0","0","0","Male","1","1969","0"
"100918","15:19:37","498785242","552537347","4.0.10.0","1","1","demographics","ProlificCode","0","0","0","0","0","0","582080a4cc5f08000103c98d","1","4561","0"
"100918","15:19:37","498785242","552537347","4.0.10.0","1","2","demographics","age","0","0","0","0","0","0","29","1","6339","0"
"100918","15:19:37","498785242","552537347","4.0.10.0","1","3","demographics","gender","0","0","0","0","0","0","female","1","4749","0"
"100918","15:22:32","358265830","295215708","4.0.10.0","1","1","demographics","ProlificCode","0","0","0","0","0","0","575d0d942d52b500067a1edd","1","10865","0"
"100918","15:22:32","358265830","295215708","4.0.10.0","1","2","demographics","age","0","0","0","0","0","0","45","1","2827","0"
"100918","15:22:32","358265830","295215708","4.0.10.0","1","3","demographics","gender","0","0","0","0","0","0","Female","1","4056","0"
"100918","15:30:52","849392372","471175339","4.0.10.0","1","1","demographics","ProlificCode","0","0","0","0","0","0","5aa02ab689de8200013f3dab","1","10182","0"
"100918","15:30:52","849392372","471175339","4.0.10.0","1","2","demographics","age","0","0","0","0","0","0","20","1","3030","0"
"100918","15:30:52","849392372","471175339","4.0.10.0","1","3","demographics","gender","0","0","0","0","0","0","Male","1","4062","0"
"100918","14:31:21","112753385","862395786","4.0.10.0","1","1","demographics","ProlificCode","0","0","0","0","0","0","","1","10200","0"
"100918","14:33:02","112753385","862395786","4.0.10.0","1","1","demographics","ProlificCode","0","0","0","0","0","0","581bd344930a280001062c90","1","6785","0"
"100918","14:33:02","112753385","862395786","4.0.10.0","1","2","demographics","age","0","0","0","0","0","0","34","1","70952","0"
"100918","14:33:02","112753385","862395786","4.0.10.0","1","3","demographics","gender","0","0","0","0","0","0","female","1","30885","0"
"100918","12:33:42","882751122","924093666","4.0.10.0","1","1","demographics","ProlificCode","0","0","0","0","0","0","5a9493ce873cda0001dc6dfb","1","63901","0"
"100918","12:33:42","882751122","924093666","4.0.10.0","1","2","demographics","age","0","0","0","0","0","0","28","1","3381","0"
"100918","12:33:42","882751122","924093666","4.0.10.0","1","3","demographics","gender","0","0","0","0","0","0","female","1","5231","0"
"100918","21:41:21","556422066","20886049","4.0.10.0","1","1","demographics","ProlificCode","0","0","0","0","0","0","5b771a3d805c3f00012e07fe","1","9368","0"
"100918","21:41:21","556422066","20886049","4.0.10.0","1","2","demographics","age","0","0","0","0","0","0","33","1","5669","0"
"100918","21:41:21","556422066","20886049","4.0.10.0","1","3","demographics","gender","0","0","0","0","0","0","male","1","8851","0"
"100918","16:12:05","375625432","57742112","4.0.10.0","1","1","demographics","ProlificCode","0","0","0","0","0","0","5bb427baa60c86000160cd5e","1","13856","0"
"100918","16:12:05","375625432","57742112","4.0.10.0","1","2","demographics","age","0","0","0","0","0","0","31","1","3491","0"
"100918","16:12:05","375625432","57742112","4.0.10.0","1","3","demographics","gender","0","0","0","0","0","0","female","1","1848","0"
"100918","16:12:05","284550005","769193797","4.0.10.0","1","1","demographics","ProlificCode","0","0","0","0","0","0","5bb900a89f1dd20001a28971","1","16385","0"
"100918","16:12:05","284550005","769193797","4.0.10.0","1","2","demographics","age","0","0","0","0","0","0","21","1","2857","0"
"100918","16:12:05","284550005","769193797","4.0.10.0","1","3","demographics","gender","0","0","0","0","0","0","female","1","5364","0"
"100918","13:21:51","334721734","106439191","4.0.10.0","1","1","demographics","ProlificCode","0","0","0","0","0","0","5bafe806c383030001c965df","1","20953","0"
"100918","13:21:51","334721734","106439191","4.0.10.0","1","2","demographics","age","0","0","0","0","0","0","26","1","5506","0"
"100918","13:21:51","334721734","106439191","4.0.10.0","1","3","demographics","gender","0","0","0","0","0","0","female","1","5035","0"
"100918","16:37:43","36774421","865896248","4.0.10.0","1","1","demographics","ProlificCode","0","0","0","0","0","0","5ae59f8cc3c3ab00018f7185","1","19531","0"
"100918","16:37:43","36774421","865896248","4.0.10.0","1","2","demographics","age","0","0","0","0","0","0","36","1","3391","0"
"100918","16:37:43","36774421","865896248","4.0.10.0","1","3","demographics","gender","0","0","0","0","0","0","female","1","4129","0"
"100918","13:39:13","193212325","918487572","4.0.10.0","1","1","demographics","ProlificCode","0","0","0","0","0","0","5ad90f90dec767000128a5f4","1","15523","0"
"100918","13:39:13","193212325","918487572","4.0.10.0","1","2","demographics","age","0","0","0","0","0","0","22","1","2981","0"
"100918","13:39:13","193212325","918487572","4.0.10.0","1","3","demographics","gender","0","0","0","0","0","0","female","1","5303","0"
"100918","15:38:07","669158841","454642253","4.0.10.0","1","1","demographics","ProlificCode","0","0","0","0","0","0","58ed33eced40190001e8a251","1","85104","0"
"100918","15:38:07","669158841","454642253","4.0.10.0","1","2","demographics","age","0","0","0","0","0","0","32","1","3949","0"
"100918","15:38:07","669158841","454642253","4.0.10.0","1","3","demographics","gender","0","0","0","0","0","0","Female","1","3163","0"
"100918","16:41:52","915323896","469316046","4.0.10.0","1","1","demographics","ProlificCode","0","0","0","0","0","0","55bede0dfdf99b6b67092299","1","3695","0"
"100918","16:41:52","915323896","469316046","4.0.10.0","1","2","demographics","age","0","0","0","0","0","0","26","1","2907","0"
"100918","16:41:52","915323896","469316046","4.0.10.0","1","3","demographics","gender","0","0","0","0","0","0","agender","1","3475","0"
"100918","16:47:11","621597287","671822725","4.0.10.0","1","1","demographics","ProlificCode","0","0","0","0","0","0","https://docs.google.com/forms/d/e/1FAIpQLSdXS3LAMQoHyAVwsjKHfcccMqu-rpYfFhnr-nqWhhKJi7TeTQ/viewform","1","6471","0"
"100918","16:47:11","621597287","671822725","4.0.10.0","1","2","demographics","age","0","0","0","0","0","0","","1","4306","0"
"100918","16:47:43","211656567","787243510","4.0.10.0","1","1","demographics","ProlificCode","0","0","0","0","0","0","5b2a76c92df20a00017d97a2","1","5608","0"
"100918","16:47:43","211656567","787243510","4.0.10.0","1","2","demographics","age","0","0","0","0","0","0","24","1","1286","0"
"100918","16:47:43","211656567","787243510","4.0.10.0","1","3","demographics","gender","0","0","0","0","0","0","Male","1","3241","0"
"100918","15:47:54","27608756","270612844","4.0.10.0","1","1","demographics","ProlificCode","0","0","0","0","0","0","572ea68ff8fce5000eb83665","1","19740","0"
"100918","15:47:54","27608756","270612844","4.0.10.0","1","2","demographics","age","0","0","0","0","0","0","22 ","1","3083","0"
"100918","15:47:54","27608756","270612844","4.0.10.0","1","3","demographics","gender","0","0","0","0","0","0","Male","1","2917","0"
"100918","15:51:56","305288824","914741672","4.0.10.0","1","1","demographics","ProlificCode","0","0","0","0","0","0","5b12bb169663ee0001460ce3","1","8622","0"
"100918","15:51:56","305288824","914741672","4.0.10.0","1","2","demographics","age","0","0","0","0","0","0","31","1","5220","0"
"100918","15:51:56","305288824","914741672","4.0.10.0","1","3","demographics","gender","0","0","0","0","0","0","male","1","5477","0"
"100918","15:53:43","54059156","960798448","4.0.10.0","1","1","demographics","ProlificCode","0","0","0","0","0","0","5a8cb9b8f49c9a0001f3c804","1","4483","0"
"100918","15:53:43","54059156","960798448","4.0.10.0","1","2","demographics","age","0","0","0","0","0","0","36","1","3479","0"
"100918","15:53:43","54059156","960798448","4.0.10.0","1","3","demographics","gender","0","0","0","0","0","0","Male","1","3960","0"
"100918","16:53:19","905672979","940880246","4.0.10.0","1","1","demographics","ProlificCode","0","0","0","0","0","0","5b950c53754b700001f062b7","1","57477","0"
"100918","16:53:19","905672979","940880246","4.0.10.0","1","2","demographics","age","0","0","0","0","0","0","40","1","3694","0"
"100918","16:53:19","905672979","940880246","4.0.10.0","1","3","demographics","gender","0","0","0","0","0","0","male","1","3623","0"
"100918","16:55:18","548574621","297978615","4.0.10.0","1","1","demographics","ProlificCode","0","0","0","0","0","0","5b182365316c630001abff4f","1","15912","0"
"100918","16:55:18","548574621","297978615","4.0.10.0","1","2","demographics","age","0","0","0","0","0","0","30","1","3176","0"
"100918","16:55:18","548574621","297978615","4.0.10.0","1","3","demographics","gender","0","0","0","0","0","0","female","1","4477","0"
"100918","16:56:15","641973428","642742190","4.0.10.0","1","1","demographics","ProlificCode","0","0","0","0","0","0","5b0569619d397e00019167e4","1","4881","0"
"100918","16:56:15","641973428","642742190","4.0.10.0","1","2","demographics","age","0","0","0","0","0","0","20","1","3013","0"
"100918","16:56:15","641973428","642742190","4.0.10.0","1","3","demographics","gender","0","0","0","0","0","0","Male","1","4984","0"
"100918","16:55:49","290158792","146903677","4.0.10.0","1","1","demographics","ProlificCode","0","0","0","0","0","0","574128a9a0a4b20011b02fda","1","21713","0"
"100918","16:55:49","290158792","146903677","4.0.10.0","1","2","demographics","age","0","0","0","0","0","0","39","1","6495","0"
"100918","16:55:49","290158792","146903677","4.0.10.0","1","3","demographics","gender","0","0","0","0","0","0","male","1","13338","0"
"100918","16:58:55","372284233","681459573","4.0.10.0","1","1","demographics","ProlificCode","0","0","0","0","0","0","5baa74ac8a01680001ff2be3","1","31322","0"
"100918","16:58:55","372284233","681459573","4.0.10.0","1","2","demographics","age","0","0","0","0","0","0","52","1","14773","0"
"100918","16:58:55","372284233","681459573","4.0.10.0","1","3","demographics","gender","0","0","0","0","0","0","female","1","4928","0"
"100918","15:01:21","726971892","422597787","4.0.10.0","1","1","demographics","ProlificCode","0","0","0","0","0","0","565a3d24c51d430005875042","1","109714","0"
"100918","15:01:21","726971892","422597787","4.0.10.0","1","2","demographics","age","0","0","0","0","0","0","24","1","2306","0"
"100918","15:01:21","726971892","422597787","4.0.10.0","1","3","demographics","gender","0","0","0","0","0","0","Female","1","4329","0"
"100918","14:03:16","118519473","473311049","4.0.10.0","1","1","demographics","ProlificCode","0","0","0","0","0","0","59f986488a2d3d00012c199e","1","17652","0"
"100918","14:03:16","118519473","473311049","4.0.10.0","1","2","demographics","age","0","0","0","0","0","0","26","1","2810","0"
"100918","14:03:16","118519473","473311049","4.0.10.0","1","3","demographics","gender","0","0","0","0","0","0","Male","1","7192","0"
"100918","15:04:06","999595350","830596810","4.0.10.0","1","1","demographics","ProlificCode","0","0","0","0","0","0","","1","9662","0"
"100918","15:04:36","999595350","830596810","4.0.10.0","1","1","demographics","ProlificCode","0","0","0","0","0","0","58ac890076c5b70001662993","1","4196","0"
"100918","15:04:36","999595350","830596810","4.0.10.0","1","2","demographics","age","0","0","0","0","0","0","48","1","3426","0"
"100918","15:04:36","999595350","830596810","4.0.10.0","1","3","demographics","gender","0","0","0","0","0","0","male","1","2976","0"
"100918","17:03:46","264570814","229012624","4.0.10.0","1","1","demographics","ProlificCode","0","0","0","0","0","0","590fd34212802600017e1150","1","19962","0"
"100918","17:03:46","264570814","229012624","4.0.10.0","1","2","demographics","age","0","0","0","0","0","0","30","1","8284","0"
"100918","17:03:46","264570814","229012624","4.0.10.0","1","3","demographics","gender","0","0","0","0","0","0","Female","1","47717","0"
"100918","16:05:22","232011066","112920454","4.0.10.0","1","1","demographics","ProlificCode","0","0","0","0","0","0","5588b9e5fdf99b7f40e7f428","1","7403","0"
"100918","16:05:22","232011066","112920454","4.0.10.0","1","2","demographics","age","0","0","0","0","0","0","44","1","3545","0"
"100918","16:05:22","232011066","112920454","4.0.10.0","1","3","demographics","gender","0","0","0","0","0","0","male","1","6587","0"
"100918","16:05:49","804340583","432260325","4.0.10.0","1","1","demographics","ProlificCode","0","0","0","0","0","0","5b7e1e0412c4ae0001b2344e","1","5259","0"
"100918","16:05:49","804340583","432260325","4.0.10.0","1","2","demographics","age","0","0","0","0","0","0","32","1","3109","0"
"100918","16:05:49","804340583","432260325","4.0.10.0","1","3","demographics","gender","0","0","0","0","0","0","female","1","5651","0"
"100918","17:11:21","896610811","484334206","4.0.10.0","1","1","demographics","ProlificCode","0","0","0","0","0","0","5b7322c43ec5550001b84e7b","1","6653","0"
"100918","17:11:21","896610811","484334206","4.0.10.0","1","2","demographics","age","0","0","0","0","0","0","26","1","5571","0"
"100918","17:11:21","896610811","484334206","4.0.10.0","1","3","demographics","gender","0","0","0","0","0","0","Male","1","6619","0"
"100918","14:11:37","722343561","572183112","4.0.10.0","1","1","demographics","ProlificCode","0","0","0","0","0","0","57d0a0bee3221e00015fe385","1","16558","0"
"100918","14:11:37","722343561","572183112","4.0.10.0","1","2","demographics","age","0","0","0","0","0","0","34","1","5633","0"
"100918","14:11:37","722343561","572183112","4.0.10.0","1","3","demographics","gender","0","0","0","0","0","0","male","1","2036","0"
"100918","15:13:14","689905363","64516932","4.0.10.0","1","1","demographics","ProlificCode","0","0","0","0","0","0","5bb09ecf6322c50001584d36","1","13680","0"
"100918","15:13:14","689905363","64516932","4.0.10.0","1","2","demographics","age","0","0","0","0","0","0","20","1","2964","0"
"100918","15:13:14","689905363","64516932","4.0.10.0","1","3","demographics","gender","0","0","0","0","0","0","Male","1","3401","0"
"100918","14:13:21","973029853","955409388","4.0.10.0","1","1","demographics","ProlificCode","0","0","0","0","0","0","5ba07a7e3152770001fb450f","1","8783","0"
"100918","14:13:21","973029853","955409388","4.0.10.0","1","2","demographics","age","0","0","0","0","0","0","23","1","5348","0"
"100918","14:13:21","973029853","955409388","4.0.10.0","1","3","demographics","gender","0","0","0","0","0","0","Female","1","4862","0"
"100918","23:13:18","492605840","623805405","4.0.10.0","1","1","demographics","ProlificCode","0","0","0","0","0","0","5b951d4f769db30001b58531","1","14410","0"
"100918","23:13:18","492605840","623805405","4.0.10.0","1","2","demographics","age","0","0","0","0","0","0","18","1","4229","0"
"100918","23:13:18","492605840","623805405","4.0.10.0","1","3","demographics","gender","0","0","0","0","0","0","Male","1","2737","0"
"100918","14:14:12","153270653","798531147","4.0.10.0","1","1","demographics","ProlificCode","0","0","0","0","0","0","597a66525ea29d000126efbe","1","12797","0"
"100918","14:14:12","153270653","798531147","4.0.10.0","1","2","demographics","age","0","0","0","0","0","0","27","1","2679","0"
"100918","14:14:12","153270653","798531147","4.0.10.0","1","3","demographics","gender","0","0","0","0","0","0","male","1","3387","0"
"100918","17:10:47","905672979","940880246","4.0.10.0","1","1","demographics","ProlificCode","0","0","0","0","0","0","5b950c53754b700001f062b7","1","16999","0"
"100918","17:10:47","905672979","940880246","4.0.10.0","1","2","demographics","age","0","0","0","0","0","0","40","1","3885","0"
"100918","17:10:47","905672979","940880246","4.0.10.0","1","3","demographics","gender","0","0","0","0","0","0","male","1","4374","0"
"100918","11:48:28","520996928","752570858","4.0.10.0","1","1","demographics","ProlificCode","0","0","0","0","0","0","","1","8785247","0"
"100918","23:17:12","492605840","623805405","4.0.10.0","1","1","demographics","ProlificCode","0","0","0","0","0","0","5b951d4f769db30001b58531 ","1","5237","0"
"100918","23:17:12","492605840","623805405","4.0.10.0","1","2","demographics","age","0","0","0","0","0","0","18","1","3403","0"
"100918","23:17:12","492605840","623805405","4.0.10.0","1","3","demographics","gender","0","0","0","0","0","0","Male","1","2189","0"
"100918","16:18:46","350134657","476470542","4.0.10.0","1","1","demographics","ProlificCode","0","0","0","0","0","0","572036a1fd3a5200093c126b","1","3628","0"
"100918","16:18:46","350134657","476470542","4.0.10.0","1","2","demographics","age","0","0","0","0","0","0","41","1","2712","0"
"100918","16:18:46","350134657","476470542","4.0.10.0","1","3","demographics","gender","0","0","0","0","0","0","Female","1","3617","0"
"100918","17:18:48","377158153","338170943","4.0.10.0","1","1","demographics","ProlificCode","0","0","0","0","0","0","59290818ff4f900001828b23","1","62406","0"
"100918","17:18:48","377158153","338170943","4.0.10.0","1","2","demographics","age","0","0","0","0","0","0","33","1","3034","0"
"100918","17:18:48","377158153","338170943","4.0.10.0","1","3","demographics","gender","0","0","0","0","0","0","Female","1","3792","0"
"100918","17:20:26","377158153","338170943","4.0.10.0","1","1","demographics","ProlificCode","0","0","0","0","0","0","59290818ff4f900001828b23","1","52787","0"
"100918","17:20:26","377158153","338170943","4.0.10.0","1","2","demographics","age","0","0","0","0","0","0","33","1","3527","0"
"100918","17:20:26","377158153","338170943","4.0.10.0","1","3","demographics","gender","0","0","0","0","0","0","Female","1","5363","0"
"100918","14:21:22","114577535","537794402","4.0.10.0","1","1","demographics","ProlificCode","0","0","0","0","0","0","5736b0a312d1d8000e35389d","1","6347","0"
"100918","14:21:22","114577535","537794402","4.0.10.0","1","2","demographics","age","0","0","0","0","0","0","61","1","3679","0"
"100918","14:21:22","114577535","537794402","4.0.10.0","1","3","demographics","gender","0","0","0","0","0","0","female","1","4415","0"
"100918","17:22:37","898732236","860827723","4.0.10.0","1","1","demographics","ProlificCode","0","0","0","0","0","0","5730ab97dd6617000fdaa615","1","3730","0"
"100918","17:22:37","898732236","860827723","4.0.10.0","1","2","demographics","age","0","0","0","0","0","0","31","1","3133","0"
"100918","17:22:37","898732236","860827723","4.0.10.0","1","3","demographics","gender","0","0","0","0","0","0","Male","1","3238","0"
"100918","14:23:56","7867303","542557941","4.0.10.0","1","1","demographics","ProlificCode","0","0","0","0","0","0","5b9ce14e1b99540001d77e8a","1","6100","0"
"100918","14:23:56","7867303","542557941","4.0.10.0","1","2","demographics","age","0","0","0","0","0","0","47","1","4892","0"
"100918","14:23:56","7867303","542557941","4.0.10.0","1","3","demographics","gender","0","0","0","0","0","0","male","1","6181","0"
"100918","23:24:28","360357892","362224917","4.0.10.0","1","1","demographics","ProlificCode","0","0","0","0","0","0","5ba6005438803d0001266b4a","1","5491","0"
"100918","23:24:28","360357892","362224917","4.0.10.0","1","2","demographics","age","0","0","0","0","0","0","21","1","3663","0"
"100918","23:24:28","360357892","362224917","4.0.10.0","1","3","demographics","gender","0","0","0","0","0","0","Male","1","4372","0"
"100918","16:24:53","744886522","136188342","4.0.10.0","1","1","demographics","ProlificCode","0","0","0","0","0","0","5a4aa54edaea400001ac3cc3","1","49753","0"
"100918","16:24:53","744886522","136188342","4.0.10.0","1","2","demographics","age","0","0","0","0","0","0","33","1","2707","0"
"100918","16:24:53","744886522","136188342","4.0.10.0","1","3","demographics","gender","0","0","0","0","0","0","female","1","3073","0"
"100918","23:26:02","360357892","362224917","4.0.10.0","1","1","demographics","ProlificCode","0","0","0","0","0","0","5ba6005438803d0001266b4a","1","3299","0"
"100918","23:26:02","360357892","362224917","4.0.10.0","1","2","demographics","age","0","0","0","0","0","0","21","1","2546","0"
"100918","23:26:02","360357892","362224917","4.0.10.0","1","3","demographics","gender","0","0","0","0","0","0","Male","1","5734","0"
"100918","14:26:09","316413047","857747596","4.0.10.0","1","1","demographics","ProlificCode","0","0","0","0","0","0","5a4245ef7aebf70001152ee6","1","3835","0"
"100918","14:26:09","316413047","857747596","4.0.10.0","1","2","demographics","age","0","0","0","0","0","0","37","1","2081","0"
"100918","14:26:09","316413047","857747596","4.0.10.0","1","3","demographics","gender","0","0","0","0","0","0","female","1","3343","0"
"100918","15:26:11","453772235","44704565","4.0.10.0","1","1","demographics","ProlificCode","0","0","0","0","0","0","5b8588fdec7fa30001d6103b","1","13658","0"
"100918","15:26:11","453772235","44704565","4.0.10.0","1","2","demographics","age","0","0","0","0","0","0","29","1","1932","0"
"100918","15:26:11","453772235","44704565","4.0.10.0","1","3","demographics","gender","0","0","0","0","0","0","male","1","3427","0"
"100918","17:26:14","904877707","224206107","4.0.10.0","1","1","demographics","ProlificCode","0","0","0","0","0","0","558a9729fdf99b6567d005ab","1","24650","0"
"100918","17:26:14","904877707","224206107","4.0.10.0","1","2","demographics","age","0","0","0","0","0","0","35","1","2833","0"
"100918","17:26:14","904877707","224206107","4.0.10.0","1","3","demographics","gender","0","0","0","0","0","0","female","1","3600","0"
"100918","17:26:33","278446127","324693797","4.0.10.0","1","1","demographics","ProlificCode","0","0","0","0","0","0","5af5f6e93aba4900015ece3b","1","36504","0"
"100918","17:26:33","278446127","324693797","4.0.10.0","1","2","demographics","age","0","0","0","0","0","0","29","1","5616","0"
"100918","17:26:33","278446127","324693797","4.0.10.0","1","3","demographics","gender","0","0","0","0","0","0","Male","1","5972","0"
"100918","16:27:45","459665071","389845502","4.0.10.0","1","1","demographics","ProlificCode","0","0","0","0","0","0","5ba0b2108bd4ba00011a05a7","1","15475","0"
"100918","16:27:45","459665071","389845502","4.0.10.0","1","2","demographics","age","0","0","0","0","0","0","21","1","4524","0"
"100918","16:27:45","459665071","389845502","4.0.10.0","1","3","demographics","gender","0","0","0","0","0","0","Male","1","4413","0"
"100918","16:28:27","348356299","855136432","4.0.10.0","1","1","demographics","ProlificCode","0","0","0","0","0","0","569cffa09e8363000c3087cd","1","9360","0"
"100918","16:28:27","348356299","855136432","4.0.10.0","1","2","demographics","age","0","0","0","0","0","0","24","1","2802","0"
"100918","16:28:27","348356299","855136432","4.0.10.0","1","3","demographics","gender","0","0","0","0","0","0","male","1","2492","0"
"100918","22:28:31","964803176","285007326","4.0.10.0","1","1","demographics","ProlificCode","0","0","0","0","0","0","5afe8d3259ae1e00017e736d","1","35876","0"
"100918","22:28:31","964803176","285007326","4.0.10.0","1","2","demographics","age","0","0","0","0","0","0","31","1","3641","0"
"100918","22:28:31","964803176","285007326","4.0.10.0","1","3","demographics","gender","0","0","0","0","0","0","Female","1","4704","0"
"100918","17:29:46","650471296","546686226","4.0.10.0","1","1","demographics","ProlificCode","0","0","0","0","0","0","54ebd25efdf99b02bf67d16a","1","4467","0"
"100918","17:29:46","650471296","546686226","4.0.10.0","1","2","demographics","age","0","0","0","0","0","0","32","1","1753","0"
"100918","17:29:46","650471296","546686226","4.0.10.0","1","3","demographics","gender","0","0","0","0","0","0","female","1","4346","0"
"100918","17:30:37","503793204","434562554","4.0.10.0","1","1","demographics","ProlificCode","0","0","0","0","0","0","5b6e21ba96d3a50001c4feeb","1","4153","0"
"100918","17:30:37","503793204","434562554","4.0.10.0","1","2","demographics","age","0","0","0","0","0","0","18","1","2926","0"
"100918","17:30:37","503793204","434562554","4.0.10.0","1","3","demographics","gender","0","0","0","0","0","0","female","1","3272","0"
"100918","17:31:13","187034342","201955878","4.0.10.0","1","1","demographics","ProlificCode","0","0","0","0","0","0","58211fc787f6b90001f13f90","1","3334","0"
"100918","17:31:13","187034342","201955878","4.0.10.0","1","2","demographics","age","0","0","0","0","0","0","36","1","1934","0"
"100918","17:31:13","187034342","201955878","4.0.10.0","1","3","demographics","gender","0","0","0","0","0","0","Male","1","2384","0"
"100918","14:33:12","809611696","401924849","4.0.10.0","1","1","demographics","ProlificCode","0","0","0","0","0","0","56d39b96da2aaa000dab6178","1","8598","0"
"100918","14:33:12","809611696","401924849","4.0.10.0","1","2","demographics","age","0","0","0","0","0","0","31","1","2816","0"
"100918","14:33:12","809611696","401924849","4.0.10.0","1","3","demographics","gender","0","0","0","0","0","0","Male","1","4030","0"
"100918","17:33:23","529681218","532340149","4.0.10.0","1","1","demographics","ProlificCode","0","0","0","0","0","0","594425f07ccfd00001d3f462","1","5110","0"
"100918","17:33:23","529681218","532340149","4.0.10.0","1","2","demographics","age","0","0","0","0","0","0","22","1","2541","0"
"100918","17:33:23","529681218","532340149","4.0.10.0","1","3","demographics","gender","0","0","0","0","0","0","male","1","3265","0"
"100918","14:33:13","119243026","470773296","4.0.10.0","1","1","demographics","ProlificCode","0","0","0","0","0","0","5baab2941156920001986d2b","1","8358","0"
"100918","14:33:13","119243026","470773296","4.0.10.0","1","2","demographics","age","0","0","0","0","0","0","28","1","4553","0"
"100918","14:33:13","119243026","470773296","4.0.10.0","1","3","demographics","gender","0","0","0","0","0","0","female","1","5989","0"
"100918","17:32:23","158927509","361805861","4.0.10.0","1","1","demographics","ProlificCode","0","0","0","0","0","0","5ba863a346de410001ecfb2a","1","68863","0"
"100918","17:32:23","158927509","361805861","4.0.10.0","1","2","demographics","age","0","0","0","0","0","0","34","1","3844","0"
"100918","17:32:23","158927509","361805861","4.0.10.0","1","3","demographics","gender","0","0","0","0","0","0","female","1","7313","0"
"100918","16:33:12","837907920","841155768","4.0.10.0","1","1","demographics","ProlificCode","0","0","0","0","0","0","5588e0b4fdf99b304ee56a0e","1","34161","0"
"100918","16:33:12","837907920","841155768","4.0.10.0","1","2","demographics","age","0","0","0","0","0","0","35","1","3083","0"
"100918","16:33:12","837907920","841155768","4.0.10.0","1","3","demographics","gender","0","0","0","0","0","0","female","1","5876","0"
"100918","17:34:46","106718457","719942589","4.0.10.0","1","1","demographics","ProlificCode","0","0","0","0","0","0","5a75525b000dab00018c0ae7","1","10534","0"
"100918","17:34:46","106718457","719942589","4.0.10.0","1","2","demographics","age","0","0","0","0","0","0","36","1","3826","0"
"100918","17:34:46","106718457","719942589","4.0.10.0","1","3","demographics","gender","0","0","0","0","0","0","male","1","7176","0"
"100918","17:35:53","259126714","651809349","4.0.10.0","1","1","demographics","ProlificCode","0","0","0","0","0","0","5a0872daff266c0001d1fdb5","1","16823","0"
"100918","17:35:53","259126714","651809349","4.0.10.0","1","2","demographics","age","0","0","0","0","0","0","28","1","2611","0"
"100918","17:35:53","259126714","651809349","4.0.10.0","1","3","demographics","gender","0","0","0","0","0","0","female","1","3592","0"
"100918","16:37:18","624781797","911020428","4.0.10.0","1","1","demographics","ProlificCode","0","0","0","0","0","0","55f244e632af740012170458","1","7006","0"
"100918","16:37:18","624781797","911020428","4.0.10.0","1","2","demographics","age","0","0","0","0","0","0","36","1","3290","0"
"100918","16:37:18","624781797","911020428","4.0.10.0","1","3","demographics","gender","0","0","0","0","0","0","male","1","8343","0"
"100918","17:38:30","378285797","970010010","4.0.10.0","1","1","demographics","ProlificCode","0","0","0","0","0","0","5b2fc3e6aca2940001426285","1","4035","0"
"100918","17:38:30","378285797","970010010","4.0.10.0","1","2","demographics","age","0","0","0","0","0","0","25","1","3842","0"
"100918","17:38:30","378285797","970010010","4.0.10.0","1","3","demographics","gender","0","0","0","0","0","0","Male","1","4301","0"
"100918","17:37:31","488619837","185996165","4.0.10.0","1","1","demographics","ProlificCode","0","0","0","0","0","0"," ","1","4149","0"
"100918","17:37:31","488619837","185996165","4.0.10.0","1","2","demographics","age","0","0","0","0","0","0","28","1","16755","0"
"100918","17:37:31","488619837","185996165","4.0.10.0","1","3","demographics","gender","0","0","0","0","0","0","Male","1","22881","0"
"100918","16:41:53","129999586","366051534","4.0.10.0","1","1","demographics","ProlificCode","0","0","0","0","0","0","5588c075fdf99b304ee562f5","1","11363","0"
"100918","16:41:53","129999586","366051534","4.0.10.0","1","2","demographics","age","0","0","0","0","0","0","42","1","2714","0"
"100918","16:41:53","129999586","366051534","4.0.10.0","1","3","demographics","gender","0","0","0","0","0","0","f","1","3383","0"
"100918","14:42:31","507792021","743843968","4.0.10.0","1","1","demographics","ProlificCode","0","0","0","0","0","0","5b2a36c1c293b90001732535","1","3596","0"
"100918","14:42:31","507792021","743843968","4.0.10.0","1","2","demographics","age","0","0","0","0","0","0","31","1","2215","0"
"100918","14:42:31","507792021","743843968","4.0.10.0","1","3","demographics","gender","0","0","0","0","0","0","Female","1","2895","0"
"100918","17:42:48","651430022","497458263","4.0.10.0","1","1","demographics","ProlificCode","0","0","0","0","0","0","58ae37d8e6afe00001d36ac9","1","5773","0"
"100918","17:42:48","651430022","497458263","4.0.10.0","1","2","demographics","age","0","0","0","0","0","0","29","1","3882","0"
"100918","17:42:48","651430022","497458263","4.0.10.0","1","3","demographics","gender","0","0","0","0","0","0","male","1","3597","0"
"100918","14:43:35","507792021","743843968","4.0.10.0","1","1","demographics","ProlificCode","0","0","0","0","0","0","5b2a36c1c293b90001732535","1","3795","0"
"100918","14:43:35","507792021","743843968","4.0.10.0","1","2","demographics","age","0","0","0","0","0","0","31","1","2142","0"
"100918","14:43:35","507792021","743843968","4.0.10.0","1","3","demographics","gender","0","0","0","0","0","0","Female","1","2913","0"
"100918","14:43:41","180377876","182244905","4.0.10.0","1","1","demographics","ProlificCode","0","0","0","0","0","0","5b876ade600e3a000194d781","1","19481","0"
"100918","14:43:41","180377876","182244905","4.0.10.0","1","2","demographics","age","0","0","0","0","0","0","18","1","3620","0"
"100918","14:43:41","180377876","182244905","4.0.10.0","1","3","demographics","gender","0","0","0","0","0","0","Female","1","4462","0"
"100918","14:44:34","180377876","182244905","4.0.10.0","1","1","demographics","ProlificCode","0","0","0","0","0","0","5b876ade600e3a000194d781","1","20585","0"
"100918","14:44:34","180377876","182244905","4.0.10.0","1","2","demographics","age","0","0","0","0","0","0","18","1","3101","0"
"100918","14:44:34","180377876","182244905","4.0.10.0","1","3","demographics","gender","0","0","0","0","0","0","Female","1","4829","0"
"100918","17:44:31","827645968","368391615","4.0.10.0","1","1","demographics","ProlificCode","0","0","0","0","0","0","5bb7d27770f8df0001bfea2c","1","96543","0"
"100918","17:44:31","827645968","368391615","4.0.10.0","1","2","demographics","age","0","0","0","0","0","0","39","1","2622","0"
"100918","17:44:31","827645968","368391615","4.0.10.0","1","3","demographics","gender","0","0","0","0","0","0","male","1","3140","0"
"100918","17:46:00","161050462","290861396","4.0.10.0","1","1","demographics","ProlificCode","0","0","0","0","0","0","5b66358e9ed653000189c427","1","12210","0"
"100918","17:46:00","161050462","290861396","4.0.10.0","1","2","demographics","age","0","0","0","0","0","0","26","1","3891","0"
"100918","17:46:00","161050462","290861396","4.0.10.0","1","3","demographics","gender","0","0","0","0","0","0","male","1","3582","0"
"100918","16:46:38","941296634","448076782","4.0.10.0","1","1","demographics","ProlificCode","0","0","0","0","0","0","5a79f14a8fe2dc00010593eb","1","45192","0"
"100918","16:46:38","941296634","448076782","4.0.10.0","1","2","demographics","age","0","0","0","0","0","0","28","1","5128","0"
"100918","16:46:38","941296634","448076782","4.0.10.0","1","3","demographics","gender","0","0","0","0","0","0","Female","1","3134","0"
"100918","17:47:56","219849024","371476633","4.0.10.0","1","1","demographics","ProlificCode","0","0","0","0","0","0","","1","51965","0"
"100918","22:49:32","693685491","929148515","4.0.10.0","1","1","demographics","ProlificCode","0","0","0","0","0","0","5af21bd45bbd0b00015ed08b","1","15709","0"
"100918","22:49:32","693685491","929148515","4.0.10.0","1","2","demographics","age","0","0","0","0","0","0","20","1","3929","0"
"100918","22:49:32","693685491","929148515","4.0.10.0","1","3","demographics","gender","0","0","0","0","0","0","female","1","3666","0"
"100918","17:47:37","43761587","173572528","4.0.10.0","1","1","demographics","ProlificCode","0","0","0","0","0","0","5b71f87902e260001dcaf6c","1","103115","0"
"100918","17:47:37","43761587","173572528","4.0.10.0","1","2","demographics","age","0","0","0","0","0","0","29","1","4392","0"
"100918","17:47:37","43761587","173572528","4.0.10.0","1","3","demographics","gender","0","0","0","0","0","0","Male","1","3635","0"
"100918","16:44:00","72365783","649148901","4.0.10.0","1","1","demographics","ProlificCode","0","0","0","0","0","0","57188300a459c1001211a7f2","1","13403","0"
"100918","16:44:00","72365783","649148901","4.0.10.0","1","2","demographics","age","0","0","0","0","0","0","57","1","6511","0"
"100918","16:44:00","72365783","649148901","4.0.10.0","1","3","demographics","gender","0","0","0","0","0","0","Female","1","5559","0"
"100918","17:49:17","253959344","561900876","4.0.10.0","1","1","demographics","ProlificCode","0","0","0","0","0","0","5a4bf09053a4560001ba0ebf","1","10086","0"
"100918","17:49:17","253959344","561900876","4.0.10.0","1","2","demographics","age","0","0","0","0","0","0","31","1","2749","0"
"100918","17:49:17","253959344","561900876","4.0.10.0","1","3","demographics","gender","0","0","0","0","0","0","Male","1","3152","0"
"100918","17:49:18","219849024","371476633","4.0.10.0","1","1","demographics","ProlificCode","0","0","0","0","0","0","5ba42e0e53e484000187837f","1","61707","0"
"100918","17:49:18","219849024","371476633","4.0.10.0","1","2","demographics","age","0","0","0","0","0","0","22","1","5834","0"
"100918","17:49:18","219849024","371476633","4.0.10.0","1","3","demographics","gender","0","0","0","0","0","0","male","1","3113","0"
"100918","16:50:57","50426155","948338657","4.0.10.0","1","1","demographics","ProlificCode","0","0","0","0","0","0","5a416b5fee927b0001e1d5ae","1","67375","0"
"100918","16:50:57","50426155","948338657","4.0.10.0","1","2","demographics","age","0","0","0","0","0","0","28","1","4040","0"
"100918","16:50:57","50426155","948338657","4.0.10.0","1","3","demographics","gender","0","0","0","0","0","0","female","1","2956","0"
"100918","16:53:14","73618643","754206392","4.0.10.0","1","1","demographics","ProlificCode","0","0","0","0","0","0","5af5262f1b55800001f4a418","1","14332","0"
"100918","16:53:14","73618643","754206392","4.0.10.0","1","2","demographics","age","0","0","0","0","0","0","44","1","5142","0"
"100918","16:53:14","73618643","754206392","4.0.10.0","1","3","demographics","gender","0","0","0","0","0","0","female","1","6892","0"
"100918","14:52:57","608787542","1470182","4.0.10.0","1","1","demographics","ProlificCode","0","0","0","0","0","0","55bfa58afdf99b339da508c2","1","12108","0"
"100918","14:52:57","608787542","1470182","4.0.10.0","1","2","demographics","age","0","0","0","0","0","0","55","1","4129","0"
"100918","14:52:57","608787542","1470182","4.0.10.0","1","3","demographics","gender","0","0","0","0","0","0","female","1","5174","0"
"100918","16:54:14","318328182","447347208","4.0.10.0","1","1","demographics","ProlificCode","0","0","0","0","0","0","5b887b8c4cd6dd0001be237a","1","7085","0"
"100918","16:54:14","318328182","447347208","4.0.10.0","1","2","demographics","age","0","0","0","0","0","0","21","1","3420","0"
"100918","16:54:14","318328182","447347208","4.0.10.0","1","3","demographics","gender","0","0","0","0","0","0","female","1","5965","0"
"100918","17:54:12","178714917","522693926","4.0.10.0","1","1","demographics","ProlificCode","0","0","0","0","0","0","5b6cd50f9ee1a50001c5f481","1","9179","0"
"100918","17:54:12","178714917","522693926","4.0.10.0","1","2","demographics","age","0","0","0","0","0","0","56","1","3538","0"
"100918","17:54:12","178714917","522693926","4.0.10.0","1","3","demographics","gender","0","0","0","0","0","0","female","1","7750","0"
"100918","16:56:28","699523722","628606780","4.0.10.0","1","1","demographics","ProlificCode","0","0","0","0","0","0","5b4983840753d30001db8ab3","1","18764","0"
"100918","16:56:28","699523722","628606780","4.0.10.0","1","2","demographics","age","0","0","0","0","0","0","31","1","3416","0"
"100918","16:56:28","699523722","628606780","4.0.10.0","1","3","demographics","gender","0","0","0","0","0","0","female","1","4855","0"
"100918","17:56:49","440136775","628074016","4.0.10.0","1","1","demographics","ProlificCode","0","0","0","0","0","0","5ba8bc8107432600017e71e4","1","12890","0"
"100918","17:56:49","440136775","628074016","4.0.10.0","1","2","demographics","age","0","0","0","0","0","0","30 ","1","4076","0"
"100918","17:56:49","440136775","628074016","4.0.10.0","1","3","demographics","gender","0","0","0","0","0","0","Male ","1","4358","0"
"100918","16:57:08","277713639","770933480","4.0.10.0","1","1","demographics","ProlificCode","0","0","0","0","0","0","5adcefb65f327e0001fb4c05","1","4650","0"
"100918","16:57:08","277713639","770933480","4.0.10.0","1","2","demographics","age","0","0","0","0","0","0","37","1","6079","0"
"100918","16:57:08","277713639","770933480","4.0.10.0","1","3","demographics","gender","0","0","0","0","0","0","Male","1","8398","0"
"100918","14:59:13","379849936","61026600","4.0.10.0","1","1","demographics","ProlificCode","0","0","0","0","0","0","5b9759b4a2980c0001c4c58f","1","7005","0"
"100918","14:59:13","379849936","61026600","4.0.10.0","1","2","demographics","age","0","0","0","0","0","0","20","1","3102","0"
"100918","14:59:13","379849936","61026600","4.0.10.0","1","3","demographics","gender","0","0","0","0","0","0","Female","1","3276","0"
"100918","17:57:34","60115423","319942253","4.0.10.0","1","1","demographics","ProlificCode","0","0","0","0","0","0","","1","16626","0"
"100918","16:57:02","639251855","757389099","4.0.10.0","1","1","demographics","ProlificCode","0","0","0","0","0","0","57d09d74e3221e00015fe374","1","12918","0"
"100918","16:57:02","639251855","757389099","4.0.10.0","1","2","demographics","age","0","0","0","0","0","0","50","1","5288","0"
"100918","16:57:02","639251855","757389099","4.0.10.0","1","3","demographics","gender","0","0","0","0","0","0","Male","1","4204","0"
"100918","16:58:01","993350279","123750149","4.0.10.0","1","1","demographics","ProlificCode","0","0","0","0","0","0","570bc1ffb9b52b00102db939","1","6811","0"
"100918","16:58:01","993350279","123750149","4.0.10.0","1","2","demographics","age","0","0","0","0","0","0","37","1","2656","0"
"100918","16:58:01","993350279","123750149","4.0.10.0","1","3","demographics","gender","0","0","0","0","0","0","female","1","5236","0"
"100918","17:58:10","60115423","319942253","4.0.10.0","1","1","demographics","ProlificCode","0","0","0","0","0","0","558fbd42fdf99b7ce29246bf  ","1","13905","0"
"100918","17:58:10","60115423","319942253","4.0.10.0","1","2","demographics","age","0","0","0","0","0","0","55","1","4045","0"
"100918","17:58:10","60115423","319942253","4.0.10.0","1","3","demographics","gender","0","0","0","0","0","0","female","1","4477","0"
"100918","17:58:19","111161897","519640641","4.0.10.0","1","1","demographics","ProlificCode","0","0","0","0","0","0","5ba13f7d853e420001ceca47","1","11779","0"
"100918","17:58:19","111161897","519640641","4.0.10.0","1","2","demographics","age","0","0","0","0","0","0","21","1","3526","0"
"100918","17:58:19","111161897","519640641","4.0.10.0","1","3","demographics","gender","0","0","0","0","0","0","male","1","4854","0"
"100918","18:02:22","422652434","336044289","4.0.10.0","1","1","demographics","ProlificCode","0","0","0","0","0","0","5b6c312fa1fda800015fe165","1","5951","0"
"100918","18:02:22","422652434","336044289","4.0.10.0","1","2","demographics","age","0","0","0","0","0","0","28","1","7799","0"
"100918","18:02:22","422652434","336044289","4.0.10.0","1","3","demographics","gender","0","0","0","0","0","0","Female","1","7028","0"
"100918","18:02:36","974158334","739487200","4.0.10.0","1","1","demographics","ProlificCode","0","0","0","0","0","0","576704bffdff7a0001c12890","1","6703","0"
"100918","18:02:36","974158334","739487200","4.0.10.0","1","2","demographics","age","0","0","0","0","0","0","36","1","2406","0"
"100918","18:02:36","974158334","739487200","4.0.10.0","1","3","demographics","gender","0","0","0","0","0","0","Male","1","3048","0"
"100918","18:01:29","625497271","202280389","4.0.10.0","1","1","demographics","ProlificCode","0","0","0","0","0","0","5b573ebe8fc4d9000186d950","1","88569","0"
"100918","18:01:29","625497271","202280389","4.0.10.0","1","2","demographics","age","0","0","0","0","0","0","29","1","3004","0"
"100918","18:01:29","625497271","202280389","4.0.10.0","1","3","demographics","gender","0","0","0","0","0","0","female","1","2978","0"
"100918","18:02:38","918836292","815051225","4.0.10.0","1","1","demographics","ProlificCode","0","0","0","0","0","0","596c36966956b40001c59d4e","1","83171","0"
"100918","18:02:38","918836292","815051225","4.0.10.0","1","2","demographics","age","0","0","0","0","0","0","19","1","2302","0"
"100918","18:02:38","918836292","815051225","4.0.10.0","1","3","demographics","gender","0","0","0","0","0","0","female","1","2662","0"
"100918","18:01:33","923031405","266712301","4.0.10.0","1","1","demographics","ProlificCode","0","0","0","0","0","0","5484821efdf99b07b28f2300","1","155707","0"
"100918","18:01:33","923031405","266712301","4.0.10.0","1","2","demographics","age","0","0","0","0","0","0","34","1","3228","0"
"100918","18:01:33","923031405","266712301","4.0.10.0","1","3","demographics","gender","0","0","0","0","0","0","female","1","16074","0"
"100918","18:03:50","382203361","123168415","4.0.10.0","1","1","demographics","ProlificCode","0","0","0","0","0","0","5badcd276322c5000157c196","1","14936","0"
"100918","18:03:50","382203361","123168415","4.0.10.0","1","2","demographics","age","0","0","0","0","0","0","22","1","2166","0"
"100918","18:03:50","382203361","123168415","4.0.10.0","1","3","demographics","gender","0","0","0","0","0","0","Female","1","38702","0"
"100918","18:03:21","796283302","373066428","4.0.10.0","1","1","demographics","ProlificCode","0","0","0","0","0","0","Serene Good  ","1","11578","0"
"100918","18:03:21","796283302","373066428","4.0.10.0","1","2","demographics","age","0","0","0","0","0","0","21","1","2461","0"
"100918","18:03:21","796283302","373066428","4.0.10.0","1","3","demographics","gender","0","0","0","0","0","0","female","1","6334","0"
"100918","18:03:56","24981829","11441115","4.0.10.0","1","1","demographics","ProlificCode","0","0","0","0","0","0","5ba3a8a84087a20001549257","1","103341","0"
"100918","18:03:56","24981829","11441115","4.0.10.0","1","2","demographics","age","0","0","0","0","0","0","26","1","3482","0"
"100918","18:03:56","24981829","11441115","4.0.10.0","1","3","demographics","gender","0","0","0","0","0","0","Male","1","3396","0"
"100918","18:04:47","461366135","563686524","4.0.10.0","1","1","demographics","ProlificCode","0","0","0","0","0","0","5b98542ffb57f9000153164e","1","18026","0"
"100918","18:04:47","461366135","563686524","4.0.10.0","1","2","demographics","age","0","0","0","0","0","0","29","1","3124","0"
"100918","18:04:47","461366135","563686524","4.0.10.0","1","3","demographics","gender","0","0","0","0","0","0","Male","1","3560","0"
"100918","18:06:03","712726557","338213294","4.0.10.0","1","1","demographics","ProlificCode","0","0","0","0","0","0","5b5b455d8fb47700015830b7","1","4169","0"
"100918","18:06:03","712726557","338213294","4.0.10.0","1","2","demographics","age","0","0","0","0","0","0","27","1","4746","0"
"100918","18:06:03","712726557","338213294","4.0.10.0","1","3","demographics","gender","0","0","0","0","0","0","female","1","2748","0"
"100918","17:06:29","261606451","2571515","4.0.10.0","1","1","demographics","ProlificCode","0","0","0","0","0","0","5bb1670d8f3bd70001e530a2","1","8954","0"
"100918","17:06:29","261606451","2571515","4.0.10.0","1","2","demographics","age","0","0","0","0","0","0","37","1","4188","0"
"100918","17:06:29","261606451","2571515","4.0.10.0","1","3","demographics","gender","0","0","0","0","0","0","female","1","7568","0"
"100918","15:07:25","662373677","391076134","4.0.10.0","1","1","demographics","ProlificCode","0","0","0","0","0","0","5842eb2904e7550001a06b14","1","29082","0"
"100918","15:07:25","662373677","391076134","4.0.10.0","1","2","demographics","age","0","0","0","0","0","0","31","1","4522","0"
"100918","15:07:25","662373677","391076134","4.0.10.0","1","3","demographics","gender","0","0","0","0","0","0","female","1","5649","0"
"100918","15:06:57","921911485","687240349","4.0.10.0","1","1","demographics","ProlificCode","0","0","0","0","0","0","5b9a97e925bdd900011c51fc","1","3952","0"
"100918","15:06:57","921911485","687240349","4.0.10.0","1","2","demographics","age","0","0","0","0","0","0","32","1","2159","0"
"100918","15:06:57","921911485","687240349","4.0.10.0","1","3","demographics","gender","0","0","0","0","0","0","male","1","3310","0"
"100918","15:06:37","465743600","202833004","4.0.10.0","1","1","demographics","ProlificCode","0","0","0","0","0","0","5ba2a73912cbb600017c8852","1","95532","0"
"100918","15:06:37","465743600","202833004","4.0.10.0","1","2","demographics","age","0","0","0","0","0","0","21","1","3884","0"
"100918","15:06:37","465743600","202833004","4.0.10.0","1","3","demographics","gender","0","0","0","0","0","0","Male","1","46811","0"
"100918","18:10:38","818704358","816837326","4.0.10.0","1","1","demographics","ProlificCode","0","0","0","0","0","0","5baa7b2591272100017ae7c2","1","36911","0"
"100918","18:10:38","818704358","816837326","4.0.10.0","1","2","demographics","age","0","0","0","0","0","0","27","1","2914","0"
"100918","18:10:38","818704358","816837326","4.0.10.0","1","3","demographics","gender","0","0","0","0","0","0","Female","1","5379","0"
"100918","17:12:07","186994347","274394374","4.0.10.0","1","1","demographics","ProlificCode","0","0","0","0","0","0","57ad04adddc11d00015bb1c3","1","6680","0"
"100918","17:12:07","186994347","274394374","4.0.10.0","1","2","demographics","age","0","0","0","0","0","0","28 ","1","5451","0"
"100918","17:12:07","186994347","274394374","4.0.10.0","1","3","demographics","gender","0","0","0","0","0","0","Male","1","4015","0"
"100918","18:11:50","694474957","764497494","4.0.10.0","1","1","demographics","ProlificCode","0","0","0","0","0","0","5b9f666bcc5dd0000166ce65","1","19309","0"
"100918","18:11:50","694474957","764497494","4.0.10.0","1","2","demographics","age","0","0","0","0","0","0","29","1","3382","0"
"100918","18:11:50","694474957","764497494","4.0.10.0","1","3","demographics","gender","0","0","0","0","0","0","Male","1","3156","0"
"100918","17:11:37","693801828","655105403","4.0.10.0","1","1","demographics","ProlificCode","0","0","0","0","0","0","5b8ccfbb14e8c60001054d7b","1","34666","0"
"100918","17:11:37","693801828","655105403","4.0.10.0","1","2","demographics","age","0","0","0","0","0","0","38","1","2914","0"
"100918","17:11:37","693801828","655105403","4.0.10.0","1","3","demographics","gender","0","0","0","0","0","0","Male","1","4957","0"
"100918","15:13:25","831714713","481863384","4.0.10.0","1","1","demographics","ProlificCode","0","0","0","0","0","0","5b0f873bd282ff00015bcd88","1","11784","0"
"100918","15:13:25","831714713","481863384","4.0.10.0","1","2","demographics","age","0","0","0","0","0","0","21","1","1605","0"
"100918","15:13:25","831714713","481863384","4.0.10.0","1","3","demographics","gender","0","0","0","0","0","0","Male","1","3346","0"
"100918","17:11:53","283340280","269210633","4.0.10.0","1","1","demographics","ProlificCode","0","0","0","0","0","0","5a0f1bb0517dfb00013dc1c3","1","8066","0"
"100918","17:11:53","283340280","269210633","4.0.10.0","1","2","demographics","age","0","0","0","0","0","0","41","1","3074","0"
"100918","17:11:53","283340280","269210633","4.0.10.0","1","3","demographics","gender","0","0","0","0","0","0","Female","1","4625","0"
"100918","18:13:56","940130463","505239906","4.0.10.0","1","1","demographics","ProlificCode","0","0","0","0","0","0","59417543c768a500011c9731","1","66619","0"
"100918","18:13:56","940130463","505239906","4.0.10.0","1","2","demographics","age","0","0","0","0","0","0","25","1","4584","0"
"100918","18:13:56","940130463","505239906","4.0.10.0","1","3","demographics","gender","0","0","0","0","0","0","Female","1","15072","0"
"100918","17:14:28","133361916","87906137","4.0.10.0","1","1","demographics","ProlificCode","0","0","0","0","0","0","5bbba38c01985a00011d5e91","1","58751","0"
"100918","17:14:28","133361916","87906137","4.0.10.0","1","2","demographics","age","0","0","0","0","0","0","32 ","1","4225","0"
"100918","17:14:28","133361916","87906137","4.0.10.0","1","3","demographics","gender","0","0","0","0","0","0","Female ","1","6021","0"
"100918","18:15:13","961584530","221411376","4.0.10.0","1","1","demographics","ProlificCode","0","0","0","0","0","0","5b93dc9122c7ef0001791002","1","67589","0"
"100918","18:15:13","961584530","221411376","4.0.10.0","1","2","demographics","age","0","0","0","0","0","0","30","1","2608","0"
"100918","18:15:13","961584530","221411376","4.0.10.0","1","3","demographics","gender","0","0","0","0","0","0","female","1","3292","0"
"100918","18:16:39","273629701","55747125","4.0.10.0","1","1","demographics","ProlificCode","0","0","0","0","0","0","5a99f17035237b0001128ff2","1","9353","0"
"100918","18:16:39","273629701","55747125","4.0.10.0","1","2","demographics","age","0","0","0","0","0","0","35","1","7892","0"
"100918","18:16:39","273629701","55747125","4.0.10.0","1","3","demographics","gender","0","0","0","0","0","0","female","1","14243","0"
"100918","17:17:25","296503381","450678103","4.0.10.0","1","1","demographics","ProlificCode","0","0","0","0","0","0","5bb9f6ceac45e600013174f3","1","14260","0"
"100918","17:17:25","296503381","450678103","4.0.10.0","1","2","demographics","age","0","0","0","0","0","0","18","1","3384","0"
"100918","17:17:25","296503381","450678103","4.0.10.0","1","3","demographics","gender","0","0","0","0","0","0","Female","1","3563","0"
"100918","15:17:42","812930274","320001213","4.0.10.0","1","1","demographics","ProlificCode","0","0","0","0","0","0","5bba1f60efc47200013e9732","1","13320","0"
"100918","15:17:42","812930274","320001213","4.0.10.0","1","2","demographics","age","0","0","0","0","0","0","28","1","3049","0"
"100918","15:17:42","812930274","320001213","4.0.10.0","1","3","demographics","gender","0","0","0","0","0","0","female","1","6854","0"
"100918","18:18:22","13165882","488929305","4.0.10.0","1","1","demographics","ProlificCode","0","0","0","0","0","0","5b4ccab710d45700012b1881","1","12106","0"
"100918","18:18:22","13165882","488929305","4.0.10.0","1","2","demographics","age","0","0","0","0","0","0","26","1","3541","0"
"100918","18:18:22","13165882","488929305","4.0.10.0","1","3","demographics","gender","0","0","0","0","0","0","Male","1","3993","0"
"100918","15:19:14","142944793","955596441","4.0.10.0","1","1","demographics","ProlificCode","0","0","0","0","0","0","562c6951733ea000111631be","1","12677","0"
"100918","15:19:14","142944793","955596441","4.0.10.0","1","2","demographics","age","0","0","0","0","0","0","26","1","5161","0"
"100918","15:19:14","142944793","955596441","4.0.10.0","1","3","demographics","gender","0","0","0","0","0","0","Female","1","4248","0"
"100918","15:22:31","347848377","535785613","4.0.10.0","1","1","demographics","ProlificCode","0","0","0","0","0","0","","1","11392","0"
"100918","18:17:54","248317290","466991751","4.0.10.0","1","1","demographics","ProlificCode","0","0","0","0","0","0","","1","37082","0"
"100918","18:22:31","940130463","505239906","4.0.10.0","1","1","demographics","ProlificCode","0","0","0","0","0","0","59417543c768a500011c9731","1","47173","0"
"100918","18:23:31","248317290","466991751","4.0.10.0","1","1","demographics","ProlificCode","0","0","0","0","0","0","588e251908e6b200011a7253","1","3003","0"
"100918","18:23:31","248317290","466991751","4.0.10.0","1","2","demographics","age","0","0","0","0","0","0","31","1","2557","0"
"100918","18:23:31","248317290","466991751","4.0.10.0","1","3","demographics","gender","0","0","0","0","0","0","Female","1","4100","0"
"100918","18:23:51","330228713","705533846","4.0.10.0","1","1","demographics","ProlificCode","0","0","0","0","0","0","5783d604900cc80001d2d767","1","3318","0"
"100918","18:23:51","330228713","705533846","4.0.10.0","1","2","demographics","age","0","0","0","0","0","0","24","1","6239","0"
"100918","18:23:51","330228713","705533846","4.0.10.0","1","3","demographics","gender","0","0","0","0","0","0","trans male","1","3034","0"
"100918","18:24:42","113476054","27456834","4.0.10.0","1","1","demographics","ProlificCode","0","0","0","0","0","0","5b707a406f0ed10001bfb973","1","9155","0"
"100918","18:24:42","113476054","27456834","4.0.10.0","1","2","demographics","age","0","0","0","0","0","0","31","1","3411","0"
"100918","18:24:42","113476054","27456834","4.0.10.0","1","3","demographics","gender","0","0","0","0","0","0","FEMALE","1","4962","0"
"100918","15:28:40","788095217","601538785","4.0.10.0","1","1","demographics","ProlificCode","0","0","0","0","0","0","5b4c4e67a23b2d00017f7029","1","5702","0"
"100918","15:28:40","788095217","601538785","4.0.10.0","1","2","demographics","age","0","0","0","0","0","0","20","1","6710","0"
"100918","15:28:40","788095217","601538785","4.0.10.0","1","3","demographics","gender","0","0","0","0","0","0","Male","1","4523","0"
"100918","18:28:53","996806030","388899760","4.0.10.0","1","1","demographics","ProlificCode","0","0","0","0","0","0","5b5c8d4e10aec90001ed4bee","1","9672","0"
"100918","18:28:53","996806030","388899760","4.0.10.0","1","2","demographics","age","0","0","0","0","0","0","19","1","2737","0"
"100918","18:28:53","996806030","388899760","4.0.10.0","1","3","demographics","gender","0","0","0","0","0","0","female","1","4181","0"
"100918","18:28:53","996806030","388899760","4.0.10.0","1","1","demographics","ProlificCode","0","0","0","0","0","0","5b5c8d4e10aec90001ed4bee","1","9672","0"
"100918","18:28:53","996806030","388899760","4.0.10.0","1","2","demographics","age","0","0","0","0","0","0","19","1","2737","0"
"100918","18:28:53","996806030","388899760","4.0.10.0","1","3","demographics","gender","0","0","0","0","0","0","female","1","4181","0"
"100918","18:29:22","873879581","382040549","4.0.10.0","1","1","demographics","ProlificCode","0","0","0","0","0","0","5a94d24fb5e2110001c689b5","1","6484","0"
"100918","18:29:22","873879581","382040549","4.0.10.0","1","2","demographics","age","0","0","0","0","0","0","57","1","3219","0"
"100918","18:29:22","873879581","382040549","4.0.10.0","1","3","demographics","gender","0","0","0","0","0","0","female","1","12766","0"
"100918","15:28:53","751654470","854850605","4.0.10.0","1","1","demographics","ProlificCode","0","0","0","0","0","0","","1","7357","0"
"100918","18:28:22","179483701","266294809","4.0.10.0","1","1","demographics","ProlificCode","0","0","0","0","0","0","5bb686b88f1e5f0001cca136","1","35016","0"
"100918","18:28:22","179483701","266294809","4.0.10.0","1","2","demographics","age","0","0","0","0","0","0","37","1","4077","0"
"100918","18:28:22","179483701","266294809","4.0.10.0","1","3","demographics","gender","0","0","0","0","0","0","female","1","4471","0"
"100918","15:31:48","751654470","854850605","4.0.10.0","1","1","demographics","ProlificCode","0","0","0","0","0","0","5836a91ddf1e130001e1db2b","1","8535","0"
"100918","15:31:48","751654470","854850605","4.0.10.0","1","2","demographics","age","0","0","0","0","0","0","35","1","10608","0"
"100918","15:31:48","751654470","854850605","4.0.10.0","1","3","demographics","gender","0","0","0","0","0","0","female","1","7472","0"
"100918","18:31:40","870698219","395244218","4.0.10.0","1","1","demographics","ProlificCode","0","0","0","0","0","0","5bb3be294d258a00014f0d15","1","31228","0"
"100918","18:31:40","870698219","395244218","4.0.10.0","1","2","demographics","age","0","0","0","0","0","0","36","1","3052","0"
"100918","18:31:40","870698219","395244218","4.0.10.0","1","3","demographics","gender","0","0","0","0","0","0","Female","1","3581","0"
"100918","15:33:08","751654470","854850605","4.0.10.0","1","1","demographics","ProlificCode","0","0","0","0","0","0","5836a91ddf1e130001e1db2b","1","3574","0"
"100918","15:33:08","751654470","854850605","4.0.10.0","1","2","demographics","age","0","0","0","0","0","0","35","1","3524","0"
"100918","15:33:08","751654470","854850605","4.0.10.0","1","3","demographics","gender","0","0","0","0","0","0","female","1","5001","0"
"100918","18:31:09","192054646","890019872","4.0.10.0","1","1","demographics","ProlificCode","0","0","0","0","0","0","5b6bacf00afa6f000107210f","1","132421","0"
"100918","18:31:09","192054646","890019872","4.0.10.0","1","2","demographics","age","0","0","0","0","0","0","59","1","3313","0"
"100918","18:31:09","192054646","890019872","4.0.10.0","1","3","demographics","gender","0","0","0","0","0","0","female","1","6338","0"
"100918","17:33:22","923896880","464439543","4.0.10.0","1","1","demographics","ProlificCode","0","0","0","0","0","0","5b735f16495f160001de7a7b","1","22869","0"
"100918","17:33:22","923896880","464439543","4.0.10.0","1","2","demographics","age","0","0","0","0","0","0","23","1","3029","0"
"100918","17:33:22","923896880","464439543","4.0.10.0","1","3","demographics","gender","0","0","0","0","0","0","Male","1","5202","0"
"100918","15:35:00","751654470","854850605","4.0.10.0","1","1","demographics","ProlificCode","0","0","0","0","0","0","5836a91ddf1e130001e1db2b","1","4208","0"
"100918","15:35:00","751654470","854850605","4.0.10.0","1","2","demographics","age","0","0","0","0","0","0","35","1","3456","0"
"100918","15:35:00","751654470","854850605","4.0.10.0","1","3","demographics","gender","0","0","0","0","0","0","female","1","5339","0"
"100918","15:36:15","161541971","43607692","4.0.10.0","1","1","demographics","ProlificCode","0","0","0","0","0","0","https://research.millisecond.com/jandh/amp_intentionality_s4.web","1","19774","0"
"100918","15:37:04","161541971","43607692","4.0.10.0","1","1","demographics","ProlificCode","0","0","0","0","0","0","5836a91ddf1e130001e1db2b","1","3398","0"
"100918","15:37:04","161541971","43607692","4.0.10.0","1","2","demographics","age","0","0","0","0","0","0","35","1","3613","0"
"100918","15:37:04","161541971","43607692","4.0.10.0","1","3","demographics","gender","0","0","0","0","0","0","female","1","4938","0"
"100918","18:38:30","902803439","247371384","4.0.10.0","1","1","demographics","ProlificCode","0","0","0","0","0","0","5bb079586322c5000158453d","1","12505","0"
"100918","18:38:30","902803439","247371384","4.0.10.0","1","2","demographics","age","0","0","0","0","0","0","22","1","3223","0"
"100918","18:38:30","902803439","247371384","4.0.10.0","1","3","demographics","gender","0","0","0","0","0","0","female","1","3793","0"
"100918","15:39:38","751654470","854850605","4.0.10.0","1","1","demographics","ProlificCode","0","0","0","0","0","0","5836a91ddf1e130001e1db2b","1","3569","0"
"100918","15:39:38","751654470","854850605","4.0.10.0","1","2","demographics","age","0","0","0","0","0","0","35","1","3346","0"
"100918","15:39:38","751654470","854850605","4.0.10.0","1","3","demographics","gender","0","0","0","0","0","0","female","1","5424","0"
"100918","15:43:23","751654470","854850605","4.0.10.0","1","1","demographics","ProlificCode","0","0","0","0","0","0","5836a91ddf1e130001e1db2b","1","4228","0"
"100918","15:43:23","751654470","854850605","4.0.10.0","1","2","demographics","age","0","0","0","0","0","0","35","1","3489","0"
"100918","15:43:23","751654470","854850605","4.0.10.0","1","3","demographics","gender","0","0","0","0","0","0","female","1","5743","0"
"100918","17:49:10","991377885","921355337","4.0.10.0","1","1","demographics","ProlificCode","0","0","0","0","0","0","5bb014fd51dfa800013115d9","1","9462","0"
"100918","17:49:10","991377885","921355337","4.0.10.0","1","2","demographics","age","0","0","0","0","0","0","37","1","3749","0"
"100918","17:49:10","991377885","921355337","4.0.10.0","1","3","demographics","gender","0","0","0","0","0","0","male","1","4549","0"
"100918","17:53:12","751965033","564616694","4.0.10.0","1","1","demographics","ProlificCode","0","0","0","0","0","0","5b99764c0495790001814d22","1","26129","0"
"100918","17:53:12","751965033","564616694","4.0.10.0","1","2","demographics","age","0","0","0","0","0","0","33","1","3991","0"
"100918","17:53:12","751965033","564616694","4.0.10.0","1","3","demographics","gender","0","0","0","0","0","0","male","1","5413","0"
"100918","17:59:39","107042905","309129355","4.0.10.0","1","1","demographics","ProlificCode","0","0","0","0","0","0","5bad5e536df90c0001f07fa5","1","133317","0"
"100918","17:59:39","107042905","309129355","4.0.10.0","1","2","demographics","age","0","0","0","0","0","0","26","1","5270","0"
"100918","17:59:39","107042905","309129355","4.0.10.0","1","3","demographics","gender","0","0","0","0","0","0","26","1","17744","0"
"100918","19:02:48","213960704","259416466","4.0.10.0","1","1","demographics","ProlificCode","0","0","0","0","0","0","5a9a9a34dbdb470001eee32c","1","5470","0"
"100918","19:02:48","213960704","259416466","4.0.10.0","1","2","demographics","age","0","0","0","0","0","0","41","1","3362","0"
"100918","19:02:48","213960704","259416466","4.0.10.0","1","3","demographics","gender","0","0","0","0","0","0","M","1","3051","0"
"100918","19:12:20","537965084","930058795","4.0.10.0","1","1","demographics","ProlificCode","0","0","0","0","0","0","5ba16cc388ec69000112a59b","1","39954","0"
"100918","19:12:20","537965084","930058795","4.0.10.0","1","2","demographics","age","0","0","0","0","0","0","25","1","2491","0"
"100918","19:12:20","537965084","930058795","4.0.10.0","1","3","demographics","gender","0","0","0","0","0","0","Female","1","3274","0"
"100918","19:19:11","146987016","771092928","4.0.10.0","1","1","demographics","ProlificCode","0","0","0","0","0","0","564e93659b124900127eb55b","1","26851","0"
"100918","19:19:11","146987016","771092928","4.0.10.0","1","2","demographics","age","0","0","0","0","0","0","26","1","2667","0"
"100918","19:19:11","146987016","771092928","4.0.10.0","1","3","demographics","gender","0","0","0","0","0","0","26","1","97227","0"
"100918","19:21:57","663367244","428696104","4.0.10.0","1","1","demographics","ProlificCode","0","0","0","0","0","0","564e93659b124900127eb55b","1","5898","0"
"100918","19:21:57","663367244","428696104","4.0.10.0","1","2","demographics","age","0","0","0","0","0","0","26","1","4221","0"
"100918","19:21:57","663367244","428696104","4.0.10.0","1","3","demographics","gender","0","0","0","0","0","0","male","1","4818","0"
"100918","19:29:50","85498909","235719729","4.0.10.0","1","1","demographics","ProlificCode","0","0","0","0","0","0","dcreif","1","13023","0"
"100918","19:29:50","85498909","235719729","4.0.10.0","1","2","demographics","age","0","0","0","0","0","0","63","1","3434","0"
"100918","19:29:50","85498909","235719729","4.0.10.0","1","3","demographics","gender","0","0","0","0","0","0","Male","1","3798","0"
"100918","19:29:04","262443930","522859665","4.0.10.0","1","1","demographics","ProlificCode","0","0","0","0","0","0","5bb4d1d8ecbf0a000146b5f1","1","7583","0"
"100918","19:29:04","262443930","522859665","4.0.10.0","1","2","demographics","age","0","0","0","0","0","0","18","1","3805","0"
"100918","19:29:04","262443930","522859665","4.0.10.0","1","3","demographics","gender","0","0","0","0","0","0","male","1","3716","0"
"100918","19:44:26","733213438","84154794","4.0.10.0","1","1","demographics","ProlificCode","0","0","0","0","0","0","56a37d86dbe850000bfcef9d","1","6528","0"
"100918","19:44:26","733213438","84154794","4.0.10.0","1","2","demographics","age","0","0","0","0","0","0","54","1","3275","0"
"100918","19:44:26","733213438","84154794","4.0.10.0","1","3","demographics","gender","0","0","0","0","0","0","female","1","3879","0"
"100918","17:56:06","668651898","234350255","4.0.10.0","1","1","demographics","ProlificCode","0","0","0","0","0","0","5bb29f9093cc080001ac7d16","1","65367","0"
"100918","17:56:06","668651898","234350255","4.0.10.0","1","2","demographics","age","0","0","0","0","0","0","42","1","2841","0"
"100918","17:56:06","668651898","234350255","4.0.10.0","1","3","demographics","gender","0","0","0","0","0","0","Female","1","4275","0"
"100918","17:03:55","135415577","370878605","4.0.10.0","1","1","demographics","ProlificCode","0","0","0","0","0","0","55d35a55da14d7000595331e","1","10675","0"
"100918","17:03:55","135415577","370878605","4.0.10.0","1","2","demographics","age","0","0","0","0","0","0","54","1","6516","0"
"100918","17:03:55","135415577","370878605","4.0.10.0","1","3","demographics","gender","0","0","0","0","0","0","male","1","6120","0"
"100918","20:09:19","915779311","728633961","4.0.10.0","1","1","demographics","ProlificCode","0","0","0","0","0","0","56d2adc4321cae000b68d65f","1","4597","0"
"100918","20:09:19","915779311","728633961","4.0.10.0","1","2","demographics","age","0","0","0","0","0","0","27","1","3220","0"
"100918","20:09:19","915779311","728633961","4.0.10.0","1","3","demographics","gender","0","0","0","0","0","0","Male","1","2077","0"
"100918","20:10:49","842608001","640812335","4.0.10.0","1","1","demographics","ProlificCode","0","0","0","0","0","0","5a876665ae9a0b0001a9fbe3","1","3468","0"
"100918","20:10:49","842608001","640812335","4.0.10.0","1","2","demographics","age","0","0","0","0","0","0","30","1","4041","0"
"100918","20:10:49","842608001","640812335","4.0.10.0","1","3","demographics","gender","0","0","0","0","0","0","male","1","3890","0"
"100918","20:29:02","738048608","999377362","4.0.10.0","1","1","demographics","ProlificCode","0","0","0","0","0","0","5ad3482a459c3500011378f0","1","4196","0"
"100918","20:29:02","738048608","999377362","4.0.10.0","1","2","demographics","age","0","0","0","0","0","0","23","1","2827","0"
"100918","20:29:02","738048608","999377362","4.0.10.0","1","3","demographics","gender","0","0","0","0","0","0","Male","1","5275","0"
"100918","20:46:42","339944375","880487010","4.0.10.0","1","1","demographics","ProlificCode","0","0","0","0","0","0","55dcf36150a1f7001190e108","1","9608","0"
"100918","20:46:42","339944375","880487010","4.0.10.0","1","2","demographics","age","0","0","0","0","0","0","61","1","4679","0"
"100918","20:46:42","339944375","880487010","4.0.10.0","1","3","demographics","gender","0","0","0","0","0","0","female","1","5737","0"
"100918","20:54:39","22922020","331573587","4.0.10.0","1","1","demographics","ProlificCode","0","0","0","0","0","0","5baa42a9c0a8c000014bee5c","1","4778","0"
"100918","20:54:39","22922020","331573587","4.0.10.0","1","2","demographics","age","0","0","0","0","0","0","37","1","6810","0"
"100918","20:54:39","22922020","331573587","4.0.10.0","1","3","demographics","gender","0","0","0","0","0","0","Male","1","4392","0"
"100918","21:16:43","117665661","115209706","4.0.10.0","1","1","demographics","ProlificCode","0","0","0","0","0","0","5a446ac4f7b7bc00014e00ff","1","12944","0"
"100918","21:16:43","117665661","115209706","4.0.10.0","1","2","demographics","age","0","0","0","0","0","0","29","1","3186","0"
"100918","21:16:43","117665661","115209706","4.0.10.0","1","3","demographics","gender","0","0","0","0","0","0","male","1","3762","0"
"100918","21:29:08","818659662","532421025","4.0.10.0","1","1","demographics","ProlificCode","0","0","0","0","0","0","5b012b19293d310001023590","1","31052","0"
"100918","21:29:08","818659662","532421025","4.0.10.0","1","2","demographics","age","0","0","0","0","0","0","28","1","3727","0"
"100918","21:29:08","818659662","532421025","4.0.10.0","1","3","demographics","gender","0","0","0","0","0","0","male","1","4901","0"
"100918","21:29:49","160550588","858515813","4.0.10.0","1","1","demographics","ProlificCode","0","0","0","0","0","0","5a80f874b093f80001a7b1b4 ","1","10568","0"
"100918","21:29:49","160550588","858515813","4.0.10.0","1","2","demographics","age","0","0","0","0","0","0","23 ","1","4140","0"
"100918","21:29:49","160550588","858515813","4.0.10.0","1","3","demographics","gender","0","0","0","0","0","0","female","1","3366","0"
"100918","20:49:17","999368850","38065277","4.0.10.0","1","1","demographics","ProlificCode","0","0","0","0","0","0","5858b2ca83a02d0001e38fd2","1","36031","0"
"100918","20:49:17","999368850","38065277","4.0.10.0","1","2","demographics","age","0","0","0","0","0","0","40","1","5391","0"
"100918","20:49:17","999368850","38065277","4.0.10.0","1","3","demographics","gender","0","0","0","0","0","0","Male","1","14318","0"
"100918","21:56:47","571459831","352988338","4.0.10.0","1","1","demographics","ProlificCode","0","0","0","0","0","0","5bb6dcad56161d0001ffd25e","1","17782","0"
"100918","21:56:47","571459831","352988338","4.0.10.0","1","2","demographics","age","0","0","0","0","0","0","25","1","2357","0"
"100918","21:56:47","571459831","352988338","4.0.10.0","1","3","demographics","gender","0","0","0","0","0","0","Male","1","2747","0"
"100918","22:42:08","330544635","376203370","4.0.10.0","1","1","demographics","ProlificCode","0","0","0","0","0","0","5bb17d1937fea400017","1","107077","0"
"100918","22:42:08","330544635","376203370","4.0.10.0","1","2","demographics","age","0","0","0","0","0","0","37","1","5407","0"
"100918","22:42:08","330544635","376203370","4.0.10.0","1","3","demographics","gender","0","0","0","0","0","0","Male","1","9401","0"
"100918","21:24:06","324426982","443153134","4.0.10.0","1","1","demographics","ProlificCode","0","0","0","0","0","0","5baac78798adc700015af781","1","25130","0"
"100918","21:24:06","324426982","443153134","4.0.10.0","1","2","demographics","age","0","0","0","0","0","0","38","1","6506","0"
"100918","21:24:06","324426982","443153134","4.0.10.0","1","3","demographics","gender","0","0","0","0","0","0","male","1","55601","0"
"100918","22:05:05","467282190","975443134","4.0.10.0","1","1","demographics","ProlificCode","0","0","0","0","0","0","5ba1f475e18f5700012c2923","1","15941","0"
"100918","22:05:05","467282190","975443134","4.0.10.0","1","2","demographics","age","0","0","0","0","0","0","23","1","2725","0"
"100918","22:05:05","467282190","975443134","4.0.10.0","1","3","demographics","gender","0","0","0","0","0","0","Female","1","5638","0"
"101018","00:23:56","94365838","518374607","4.0.10.0","1","1","demographics","ProlificCode","0","0","0","0","0","0","580840d12e30a90001da9428","1","9223","0"
"101018","00:23:56","94365838","518374607","4.0.10.0","1","2","demographics","age","0","0","0","0","0","0","61","1","4253","0"
"101018","00:23:56","94365838","518374607","4.0.10.0","1","3","demographics","gender","0","0","0","0","0","0","Female","1","9107","0"
"101018","00:56:06","353898703","225203743","4.0.10.0","1","1","demographics","ProlificCode","0","0","0","0","0","0","57f65fcd75b0b7000171fedb","1","7678","0"
"101018","00:56:06","353898703","225203743","4.0.10.0","1","2","demographics","age","0","0","0","0","0","0","41","1","5105","0"
"101018","00:56:06","353898703","225203743","4.0.10.0","1","3","demographics","gender","0","0","0","0","0","0","female","1","9142","0"
"101018","01:18:51","856955447","200731487","4.0.10.0","1","1","demographics","ProlificCode","0","0","0","0","0","0","5ba1d1f4d7f4dd0001b14f92","1","4650","0"
"101018","01:18:51","856955447","200731487","4.0.10.0","1","2","demographics","age","0","0","0","0","0","0","18","1","3335","0"
"101018","01:18:51","856955447","200731487","4.0.10.0","1","3","demographics","gender","0","0","0","0","0","0","male","1","5603","0"
"101018","04:53:50","599337889","261484005","4.0.10.0","1","1","demographics","ProlificCode","0","0","0","0","0","0","58595b56a3149800011e156e","1","7977","0"
"101018","04:53:50","599337889","261484005","4.0.10.0","1","2","demographics","age","0","0","0","0","0","0","47","1","4908","0"
"101018","04:53:50","599337889","261484005","4.0.10.0","1","3","demographics","gender","0","0","0","0","0","0","female","1","7255","0"
"101018","05:46:06","89200712","662792716","4.0.10.0","1","1","demographics","ProlificCode","0","0","0","0","0","0","56f7982b35c4760006278c61","1","28633","0"
"101018","05:46:06","89200712","662792716","4.0.10.0","1","2","demographics","age","0","0","0","0","0","0","31","1","3256","0"
"101018","05:46:06","89200712","662792716","4.0.10.0","1","3","demographics","gender","0","0","0","0","0","0","male","1","4348","0"
"101018","06:02:54","56595153","55231197","4.0.10.0","1","1","demographics","ProlificCode","0","0","0","0","0","0","5b60b06f0ca68d000150d757","1","7896","0"
"101018","06:02:54","56595153","55231197","4.0.10.0","1","2","demographics","age","0","0","0","0","0","0","33","1","2074","0"
"101018","06:02:54","56595153","55231197","4.0.10.0","1","3","demographics","gender","0","0","0","0","0","0","Male","1","3002","0"
"101018","05:06:47","95388636","374851831","4.0.10.0","1","1","demographics","ProlificCode","0","0","0","0","0","0","5bb76be33daf5e0001e13b08","1","21145","0"
"101018","05:06:47","95388636","374851831","4.0.10.0","1","2","demographics","age","0","0","0","0","0","0","32","1","4274","0"
"101018","05:06:47","95388636","374851831","4.0.10.0","1","3","demographics","gender","0","0","0","0","0","0","male","1","3756","0"
"101018","05:06:52","770467356","839994781","4.0.10.0","1","1","demographics","ProlificCode","0","0","0","0","0","0","5b7aa12ea545240001d93c98","1","9338","0"
"101018","05:06:52","770467356","839994781","4.0.10.0","1","2","demographics","age","0","0","0","0","0","0","22","1","2983","0"
"101018","05:06:52","770467356","839994781","4.0.10.0","1","3","demographics","gender","0","0","0","0","0","0","Transgender Male","1","16794","0"
"101018","16:08:37","724657234","135018023","4.0.10.0","1","1","demographics","ProlificCode","0","0","0","0","0","0","5bb6315db734a20001f7a88c","1","6450","0"
"101018","16:08:37","724657234","135018023","4.0.10.0","1","2","demographics","age","0","0","0","0","0","0","30","1","4080","0"
"101018","16:08:37","724657234","135018023","4.0.10.0","1","3","demographics","gender","0","0","0","0","0","0","male","1","5555","0"
"101018","06:16:22","315430989","387613597","4.0.10.0","1","1","demographics","ProlificCode","0","0","0","0","0","0","5a7a82058fe2dc00010599c0","1","6460","0"
"101018","06:16:22","315430989","387613597","4.0.10.0","1","2","demographics","age","0","0","0","0","0","0","25","1","3649","0"
"101018","06:16:22","315430989","387613597","4.0.10.0","1","3","demographics","gender","0","0","0","0","0","0","Male","1","4700","0"
"101018","06:18:20","26329808","142176969","4.0.10.0","1","1","demographics","ProlificCode","0","0","0","0","0","0","559744acfdf99b590e1e9299","1","5448","0"
"101018","06:18:20","26329808","142176969","4.0.10.0","1","2","demographics","age","0","0","0","0","0","0","33","1","3054","0"
"101018","06:18:20","26329808","142176969","4.0.10.0","1","3","demographics","gender","0","0","0","0","0","0","female","1","3720","0"
"101018","06:23:13","678290097","27409009","4.0.10.0","1","1","demographics","ProlificCode","0","0","0","0","0","0","","1","15636","0"
"101018","06:23:49","678290097","27409009","4.0.10.0","1","1","demographics","ProlificCode","0","0","0","0","0","0","55ddb84550a1f7000b90d65a","1","2830","0"
"101018","06:23:49","678290097","27409009","4.0.10.0","1","2","demographics","age","0","0","0","0","0","0","44","1","4139","0"
"101018","06:23:49","678290097","27409009","4.0.10.0","1","3","demographics","gender","0","0","0","0","0","0","female","1","3943","0"
"101018","06:31:16","83660364","498363500","4.0.10.0","1","1","demographics","ProlificCode","0","0","0","0","0","0","56d9ee15610fc00005b71979","1","19514","0"
"101018","06:31:16","83660364","498363500","4.0.10.0","1","2","demographics","age","0","0","0","0","0","0","42","1","8089","0"
"101018","06:31:16","83660364","498363500","4.0.10.0","1","3","demographics","gender","0","0","0","0","0","0","male","1","5110","0"
"101018","06:32:23","566766617","647911284","4.0.10.0","1","1","demographics","ProlificCode","0","0","0","0","0","0","","1","15642","0"
"101018","06:42:57","267866835","714006972","4.0.10.0","1","1","demographics","ProlificCode","0","0","0","0","0","0","5b920a69abfadc0001e7ffa9","1","16568","0"
"101018","06:42:57","267866835","714006972","4.0.10.0","1","2","demographics","age","0","0","0","0","0","0","23","1","5345","0"
"101018","06:42:57","267866835","714006972","4.0.10.0","1","3","demographics","gender","0","0","0","0","0","0","female","1","6549","0"
"101018","06:45:41","267866835","714006972","4.0.10.0","1","1","demographics","ProlificCode","0","0","0","0","0","0","5b920a69abfadc0001e7ffa9","1","4467","0"
"101018","06:45:41","267866835","714006972","4.0.10.0","1","2","demographics","age","0","0","0","0","0","0","23","1","3234","0"
"101018","06:45:41","267866835","714006972","4.0.10.0","1","3","demographics","gender","0","0","0","0","0","0","female","1","6657","0"
