date,time,group,subject,build,blocknum,trialnum,blockcode,trialcode,pretrialpause,posttrialpause,windowcenter,trialduration,trialtimeout,blocktimeout,response,correct,latency,inwindow
100918,16:49:42,624303676,424596864,4.0.10.0,1,1,end_of_study_questions_ifirst,politics,0,0,0,0,0,0,,1,22660,0
100918,11:50:32,967070383,548346706,4.0.10.0,1,1,end_of_study_questions_ifirst,politics,0,0,0,0,0,0,very republican,1,4284,0
100918,11:50:32,967070383,548346706,4.0.10.0,1,2,end_of_study_questions_ifirst,awareness,0,0,0,0,0,0,more than half,1,30939,0
100918,11:50:32,967070383,548346706,4.0.10.0,1,3,end_of_study_questions_ifirst,demand_to,0,0,0,0,0,0,My responses were genuinely based on whether I was influenced or not,1,23277,0
100918,11:50:32,967070383,548346706,4.0.10.0,1,3,end_of_study_questions_ifirst,demand_pn,0,0,0,0,0,0,My responses were genuinely based on whether I was influenced or not,1,23277,0
100918,11:50:32,967070383,548346706,4.0.10.0,1,4,end_of_study_questions_ifirst,influence_general_to,0,0,0,0,0,0,I don't know,1,17255,0
100918,11:50:32,967070383,548346706,4.0.10.0,1,4,end_of_study_questions_ifirst,influence_general_pn,0,0,0,0,0,0,less than half,1,17255,0
100918,11:50:32,967070383,548346706,4.0.10.0,1,5,end_of_study_questions_ifirst,intentionality_to,0,0,0,0,0,0,none,1,11842,0
100918,11:50:32,967070383,548346706,4.0.10.0,1,5,end_of_study_questions_ifirst,intentionality_pn,0,0,0,0,0,0,none,1,11842,0
100918,11:50:32,967070383,548346706,4.0.10.0,1,6,end_of_study_questions_ifirst,unintentionality_to,0,0,0,0,0,0,about half,1,10666,0
100918,11:50:32,967070383,548346706,4.0.10.0,1,6,end_of_study_questions_ifirst,unintentionality_pn,0,0,0,0,0,0,about half,1,10666,0
100918,11:50:32,967070383,548346706,4.0.10.0,1,7,end_of_study_questions_ifirst,self_exclusion_1,0,0,0,0,0,0,"Yes, use my data",1,13336,0
100918,11:50:32,967070383,548346706,4.0.10.0,1,7,end_of_study_questions_ifirst,self_exclusion_1other,0,0,0,0,0,0,,1,13336,0
100918,12:52:08,607010530,896525387,4.0.10.0,1,1,end_of_study_questions_ufirst,politics,0,0,0,0,0,0,a little republican,1,5274,0
100918,12:52:08,607010530,896525387,4.0.10.0,1,2,end_of_study_questions_ufirst,awareness,0,0,0,0,0,0,all,1,21103,0
100918,12:52:08,607010530,896525387,4.0.10.0,1,3,end_of_study_questions_ufirst,demand_to,0,0,0,0,0,0,My responses were genuinely based on whether I was influenced or not,1,19280,0
100918,12:52:08,607010530,896525387,4.0.10.0,1,3,end_of_study_questions_ufirst,demand_pn,0,0,0,0,0,0,My responses were genuinely based on whether I was influenced or not,1,19280,0
100918,12:52:08,607010530,896525387,4.0.10.0,1,4,end_of_study_questions_ufirst,influence_general_to,0,0,0,0,0,0,a few,1,13435,0
100918,12:52:08,607010530,896525387,4.0.10.0,1,4,end_of_study_questions_ufirst,influence_general_pn,0,0,0,0,0,0,a few,1,13435,0
100918,12:52:08,607010530,896525387,4.0.10.0,1,5,end_of_study_questions_ufirst,unintentionality_to,0,0,0,0,0,0,a few,1,8839,0
100918,12:52:08,607010530,896525387,4.0.10.0,1,5,end_of_study_questions_ufirst,unintentionality_pn,0,0,0,0,0,0,a few,1,8839,0
100918,12:52:08,607010530,896525387,4.0.10.0,1,6,end_of_study_questions_ufirst,intentionality_to,0,0,0,0,0,0,a few,1,4534,0
100918,12:52:08,607010530,896525387,4.0.10.0,1,6,end_of_study_questions_ufirst,intentionality_pn,0,0,0,0,0,0,a few,1,4534,0
100918,12:52:08,607010530,896525387,4.0.10.0,1,7,end_of_study_questions_ufirst,self_exclusion_1,0,0,0,0,0,0,"Yes, use my data",1,10113,0
100918,12:52:08,607010530,896525387,4.0.10.0,1,7,end_of_study_questions_ufirst,self_exclusion_1other,0,0,0,0,0,0,,1,10113,0
100918,13:02:37,403116376,232565411,4.0.10.0,1,1,end_of_study_questions_ufirst,politics,0,0,0,0,0,0,very republican,1,9092,0
100918,13:02:37,403116376,232565411,4.0.10.0,1,2,end_of_study_questions_ufirst,awareness,0,0,0,0,0,0,I don't know,1,24258,0
100918,13:02:37,403116376,232565411,4.0.10.0,1,3,end_of_study_questions_ufirst,demand_to,0,0,0,0,0,0,My responses were genuinely based on whether I was influenced or not,1,31421,0
100918,13:02:37,403116376,232565411,4.0.10.0,1,3,end_of_study_questions_ufirst,demand_pn,0,0,0,0,0,0,My responses were genuinely based on whether I was influenced or not,1,31421,0
100918,13:02:37,403116376,232565411,4.0.10.0,1,4,end_of_study_questions_ufirst,influence_general_to,0,0,0,0,0,0,a few,1,21043,0
100918,13:02:37,403116376,232565411,4.0.10.0,1,4,end_of_study_questions_ufirst,influence_general_pn,0,0,0,0,0,0,none,1,21043,0
100918,13:02:37,403116376,232565411,4.0.10.0,1,5,end_of_study_questions_ufirst,unintentionality_to,0,0,0,0,0,0,I don't know,1,18770,0
100918,13:02:37,403116376,232565411,4.0.10.0,1,5,end_of_study_questions_ufirst,unintentionality_pn,0,0,0,0,0,0,none,1,18770,0
100918,13:02:37,403116376,232565411,4.0.10.0,1,6,end_of_study_questions_ufirst,intentionality_to,0,0,0,0,0,0,none,1,9536,0
100918,13:02:37,403116376,232565411,4.0.10.0,1,6,end_of_study_questions_ufirst,intentionality_pn,0,0,0,0,0,0,none,1,9536,0
100918,13:02:37,403116376,232565411,4.0.10.0,1,7,end_of_study_questions_ufirst,self_exclusion_1,0,0,0,0,0,0,"Yes, use my data",1,4871,0
100918,13:02:37,403116376,232565411,4.0.10.0,1,7,end_of_study_questions_ufirst,self_exclusion_1other,0,0,0,0,0,0,,1,4871,0
100918,09:59:17,544055788,313716435,4.0.10.0,1,1,end_of_study_questions_ufirst,politics,0,0,0,0,0,0,very republican,1,3130,0
100918,09:59:17,544055788,313716435,4.0.10.0,1,2,end_of_study_questions_ufirst,awareness,0,0,0,0,0,0,a few,1,16338,0
100918,09:59:17,544055788,313716435,4.0.10.0,1,3,end_of_study_questions_ufirst,demand_to,0,0,0,0,0,0,My responses were genuinely based on whether I was influenced or not,1,16354,0
100918,09:59:17,544055788,313716435,4.0.10.0,1,3,end_of_study_questions_ufirst,demand_pn,0,0,0,0,0,0,My responses were genuinely based on whether I was influenced or not,1,16354,0
100918,09:59:17,544055788,313716435,4.0.10.0,1,4,end_of_study_questions_ufirst,influence_general_to,0,0,0,0,0,0,about half,1,20584,0
100918,09:59:17,544055788,313716435,4.0.10.0,1,4,end_of_study_questions_ufirst,influence_general_pn,0,0,0,0,0,0,most,1,20584,0
100918,09:59:17,544055788,313716435,4.0.10.0,1,5,end_of_study_questions_ufirst,unintentionality_to,0,0,0,0,0,0,a few,1,8047,0
100918,09:59:17,544055788,313716435,4.0.10.0,1,5,end_of_study_questions_ufirst,unintentionality_pn,0,0,0,0,0,0,a few,1,8047,0
100918,09:59:17,544055788,313716435,4.0.10.0,1,6,end_of_study_questions_ufirst,intentionality_to,0,0,0,0,0,0,less than half,1,8690,0
100918,09:59:17,544055788,313716435,4.0.10.0,1,6,end_of_study_questions_ufirst,intentionality_pn,0,0,0,0,0,0,more than half,1,8690,0
100918,09:59:17,544055788,313716435,4.0.10.0,1,7,end_of_study_questions_ufirst,self_exclusion_1,0,0,0,0,0,0,"Yes, use my data",1,6188,0
100918,09:59:17,544055788,313716435,4.0.10.0,1,7,end_of_study_questions_ufirst,self_exclusion_1other,0,0,0,0,0,0,,1,6188,0
100918,13:07:43,624935418,844835660,4.0.10.0,1,1,end_of_study_questions_ifirst,politics,0,0,0,0,0,0,a little republican,1,6927,0
100918,13:07:43,624935418,844835660,4.0.10.0,1,2,end_of_study_questions_ifirst,awareness,0,0,0,0,0,0,most,1,18733,0
100918,13:07:43,624935418,844835660,4.0.10.0,1,3,end_of_study_questions_ifirst,demand_to,0,0,0,0,0,0,My responses were genuinely based on whether I was influenced or not,1,13834,0
100918,13:07:43,624935418,844835660,4.0.10.0,1,3,end_of_study_questions_ifirst,demand_pn,0,0,0,0,0,0,My responses were genuinely based on whether I was influenced or not,1,13834,0
100918,13:07:43,624935418,844835660,4.0.10.0,1,4,end_of_study_questions_ifirst,influence_general_to,0,0,0,0,0,0,a few,1,20958,0
100918,13:07:43,624935418,844835660,4.0.10.0,1,4,end_of_study_questions_ifirst,influence_general_pn,0,0,0,0,0,0,none,1,20958,0
100918,13:07:43,624935418,844835660,4.0.10.0,1,5,end_of_study_questions_ifirst,intentionality_to,0,0,0,0,0,0,none,1,12318,0
100918,13:07:43,624935418,844835660,4.0.10.0,1,5,end_of_study_questions_ifirst,intentionality_pn,0,0,0,0,0,0,none,1,12318,0
100918,13:07:43,624935418,844835660,4.0.10.0,1,6,end_of_study_questions_ifirst,unintentionality_to,0,0,0,0,0,0,a few,1,12738,0
100918,13:07:43,624935418,844835660,4.0.10.0,1,6,end_of_study_questions_ifirst,unintentionality_pn,0,0,0,0,0,0,a few,1,12738,0
100918,13:07:43,624935418,844835660,4.0.10.0,1,7,end_of_study_questions_ifirst,self_exclusion_1,0,0,0,0,0,0,"Yes, use my data",1,6797,0
100918,13:07:43,624935418,844835660,4.0.10.0,1,7,end_of_study_questions_ifirst,self_exclusion_1other,0,0,0,0,0,0,,1,6797,0
100918,13:09:54,484393856,12844131,4.0.10.0,1,1,end_of_study_questions_ufirst,politics,0,0,0,0,0,0,neither/moderate,1,5916,0
100918,13:09:54,484393856,12844131,4.0.10.0,1,2,end_of_study_questions_ufirst,awareness,0,0,0,0,0,0,most,1,11342,0
100918,13:09:54,484393856,12844131,4.0.10.0,1,3,end_of_study_questions_ufirst,demand_to,0,0,0,0,0,0,My responses were genuinely based on whether I was influenced or not,1,10215,0
100918,13:09:54,484393856,12844131,4.0.10.0,1,3,end_of_study_questions_ufirst,demand_pn,0,0,0,0,0,0,My responses were genuinely based on whether I was influenced or not,1,10215,0
100918,13:09:54,484393856,12844131,4.0.10.0,1,4,end_of_study_questions_ufirst,influence_general_to,0,0,0,0,0,0,most,1,12862,0
100918,13:09:54,484393856,12844131,4.0.10.0,1,4,end_of_study_questions_ufirst,influence_general_pn,0,0,0,0,0,0,all,1,12862,0
100918,13:09:54,484393856,12844131,4.0.10.0,1,5,end_of_study_questions_ufirst,unintentionality_to,0,0,0,0,0,0,none,1,8302,0
100918,13:09:54,484393856,12844131,4.0.10.0,1,5,end_of_study_questions_ufirst,unintentionality_pn,0,0,0,0,0,0,none,1,8302,0
100918,13:09:54,484393856,12844131,4.0.10.0,1,6,end_of_study_questions_ufirst,intentionality_to,0,0,0,0,0,0,none,1,7279,0
100918,13:09:54,484393856,12844131,4.0.10.0,1,6,end_of_study_questions_ufirst,intentionality_pn,0,0,0,0,0,0,none,1,7279,0
100918,13:09:54,484393856,12844131,4.0.10.0,1,7,end_of_study_questions_ufirst,self_exclusion_1,0,0,0,0,0,0,"Yes, use my data",1,2859,0
100918,13:09:54,484393856,12844131,4.0.10.0,1,7,end_of_study_questions_ufirst,self_exclusion_1other,0,0,0,0,0,0,,1,2859,0
100918,13:12:59,52747213,295994828,4.0.10.0,1,1,end_of_study_questions_ifirst,politics,0,0,0,0,0,0,a little republican,1,4345,0
100918,13:12:59,52747213,295994828,4.0.10.0,1,2,end_of_study_questions_ifirst,awareness,0,0,0,0,0,0,all,1,15954,0
100918,13:12:59,52747213,295994828,4.0.10.0,1,3,end_of_study_questions_ifirst,demand_to,0,0,0,0,0,0,My responses were genuinely based on whether I was influenced or not,1,25697,0
100918,13:12:59,52747213,295994828,4.0.10.0,1,3,end_of_study_questions_ifirst,demand_pn,0,0,0,0,0,0,My responses were genuinely based on whether I was influenced or not,1,25697,0
100918,13:12:59,52747213,295994828,4.0.10.0,1,4,end_of_study_questions_ifirst,influence_general_to,0,0,0,0,0,0,none,1,21082,0
100918,13:12:59,52747213,295994828,4.0.10.0,1,4,end_of_study_questions_ifirst,influence_general_pn,0,0,0,0,0,0,none,1,21082,0
100918,13:12:59,52747213,295994828,4.0.10.0,1,5,end_of_study_questions_ifirst,intentionality_to,0,0,0,0,0,0,none,1,11524,0
100918,13:12:59,52747213,295994828,4.0.10.0,1,5,end_of_study_questions_ifirst,intentionality_pn,0,0,0,0,0,0,none,1,11524,0
100918,13:12:59,52747213,295994828,4.0.10.0,1,6,end_of_study_questions_ifirst,unintentionality_to,0,0,0,0,0,0,a few,1,14828,0
100918,13:12:59,52747213,295994828,4.0.10.0,1,6,end_of_study_questions_ifirst,unintentionality_pn,0,0,0,0,0,0,less than half,1,14828,0
100918,13:12:59,52747213,295994828,4.0.10.0,1,7,end_of_study_questions_ifirst,self_exclusion_1,0,0,0,0,0,0,"Yes, use my data",1,8543,0
100918,13:12:59,52747213,295994828,4.0.10.0,1,7,end_of_study_questions_ifirst,self_exclusion_1other,0,0,0,0,0,0,,1,8543,0
100918,13:14:18,250984694,568558267,4.0.10.0,1,1,end_of_study_questions_ufirst,politics,0,0,0,0,0,0,somewhat republican,1,6668,0
100918,13:14:18,250984694,568558267,4.0.10.0,1,2,end_of_study_questions_ufirst,awareness,0,0,0,0,0,0,all,1,17438,0
100918,13:14:18,250984694,568558267,4.0.10.0,1,3,end_of_study_questions_ufirst,demand_to,0,0,0,0,0,0,My responses were genuinely based on whether I was influenced or not,1,17435,0
100918,13:14:18,250984694,568558267,4.0.10.0,1,3,end_of_study_questions_ufirst,demand_pn,0,0,0,0,0,0,My responses were genuinely based on whether I was influenced or not,1,17435,0
100918,13:14:18,250984694,568558267,4.0.10.0,1,4,end_of_study_questions_ufirst,influence_general_to,0,0,0,0,0,0,all,1,12419,0
100918,13:14:18,250984694,568558267,4.0.10.0,1,4,end_of_study_questions_ufirst,influence_general_pn,0,0,0,0,0,0,most,1,12419,0
100918,13:14:18,250984694,568558267,4.0.10.0,1,5,end_of_study_questions_ufirst,unintentionality_to,0,0,0,0,0,0,all,1,18129,0
100918,13:14:18,250984694,568558267,4.0.10.0,1,5,end_of_study_questions_ufirst,unintentionality_pn,0,0,0,0,0,0,most,1,18129,0
100918,13:14:18,250984694,568558267,4.0.10.0,1,6,end_of_study_questions_ufirst,intentionality_to,0,0,0,0,0,0,all,1,10364,0
100918,13:14:18,250984694,568558267,4.0.10.0,1,6,end_of_study_questions_ufirst,intentionality_pn,0,0,0,0,0,0,most,1,10364,0
100918,13:14:18,250984694,568558267,4.0.10.0,1,7,end_of_study_questions_ufirst,self_exclusion_1,0,0,0,0,0,0,"Yes, use my data",1,13352,0
100918,13:14:18,250984694,568558267,4.0.10.0,1,7,end_of_study_questions_ufirst,self_exclusion_1other,0,0,0,0,0,0,,1,13352,0
100918,10:17:18,35761142,733556163,4.0.10.0,1,1,end_of_study_questions_ufirst,politics,0,0,0,0,0,0,neither/moderate,1,6139,0
100918,10:17:18,35761142,733556163,4.0.10.0,1,2,end_of_study_questions_ufirst,awareness,0,0,0,0,0,0,about half,1,11404,0
100918,10:17:18,35761142,733556163,4.0.10.0,1,3,end_of_study_questions_ufirst,demand_to,0,0,0,0,0,0,My responses were genuinely based on whether I was influenced or not,1,19217,0
100918,10:17:18,35761142,733556163,4.0.10.0,1,3,end_of_study_questions_ufirst,demand_pn,0,0,0,0,0,0,I'm not sure or don't know why I responded the way I did,1,19217,0
100918,10:17:18,35761142,733556163,4.0.10.0,1,4,end_of_study_questions_ufirst,influence_general_to,0,0,0,0,0,0,more than half,1,10034,0
100918,10:17:18,35761142,733556163,4.0.10.0,1,4,end_of_study_questions_ufirst,influence_general_pn,0,0,0,0,0,0,about half,1,10034,0
100918,10:17:18,35761142,733556163,4.0.10.0,1,5,end_of_study_questions_ufirst,unintentionality_to,0,0,0,0,0,0,most,1,9576,0
100918,10:17:18,35761142,733556163,4.0.10.0,1,5,end_of_study_questions_ufirst,unintentionality_pn,0,0,0,0,0,0,more than half,1,9576,0
100918,10:17:18,35761142,733556163,4.0.10.0,1,6,end_of_study_questions_ufirst,intentionality_to,0,0,0,0,0,0,most,1,11397,0
100918,10:17:18,35761142,733556163,4.0.10.0,1,6,end_of_study_questions_ufirst,intentionality_pn,0,0,0,0,0,0,about half,1,11397,0
100918,10:17:18,35761142,733556163,4.0.10.0,1,7,end_of_study_questions_ufirst,self_exclusion_1,0,0,0,0,0,0,"Yes, use my data",1,8646,0
100918,10:17:18,35761142,733556163,4.0.10.0,1,7,end_of_study_questions_ufirst,self_exclusion_1other,0,0,0,0,0,0,,1,8646,0
100918,12:18:10,283091169,964904693,4.0.10.0,1,1,end_of_study_questions_ufirst,politics,0,0,0,0,0,0,very republican,1,11318,0
100918,12:18:10,283091169,964904693,4.0.10.0,1,2,end_of_study_questions_ufirst,awareness,0,0,0,0,0,0,all,1,17052,0
100918,12:18:10,283091169,964904693,4.0.10.0,1,3,end_of_study_questions_ufirst,demand_to,0,0,0,0,0,0,My responses were genuinely based on whether I was influenced or not,1,11037,0
100918,12:18:10,283091169,964904693,4.0.10.0,1,3,end_of_study_questions_ufirst,demand_pn,0,0,0,0,0,0,My responses were genuinely based on whether I was influenced or not,1,11037,0
100918,12:18:10,283091169,964904693,4.0.10.0,1,4,end_of_study_questions_ufirst,influence_general_to,0,0,0,0,0,0,none,1,11901,0
100918,12:18:10,283091169,964904693,4.0.10.0,1,4,end_of_study_questions_ufirst,influence_general_pn,0,0,0,0,0,0,none,1,11901,0
100918,12:18:10,283091169,964904693,4.0.10.0,1,5,end_of_study_questions_ufirst,unintentionality_to,0,0,0,0,0,0,a few,1,9135,0
100918,12:18:10,283091169,964904693,4.0.10.0,1,5,end_of_study_questions_ufirst,unintentionality_pn,0,0,0,0,0,0,a few,1,9135,0
100918,12:18:10,283091169,964904693,4.0.10.0,1,6,end_of_study_questions_ufirst,intentionality_to,0,0,0,0,0,0,none,1,9334,0
100918,12:18:10,283091169,964904693,4.0.10.0,1,6,end_of_study_questions_ufirst,intentionality_pn,0,0,0,0,0,0,none,1,9334,0
100918,12:18:10,283091169,964904693,4.0.10.0,1,7,end_of_study_questions_ufirst,self_exclusion_1,0,0,0,0,0,0,"Yes, use my data",1,6851,0
100918,12:18:10,283091169,964904693,4.0.10.0,1,7,end_of_study_questions_ufirst,self_exclusion_1other,0,0,0,0,0,0,,1,6851,0
100918,10:23:33,220583496,602656804,4.0.10.0,1,1,end_of_study_questions_ifirst,politics,0,0,0,0,0,0,a little republican,1,8146,0
100918,10:23:33,220583496,602656804,4.0.10.0,1,2,end_of_study_questions_ifirst,awareness,0,0,0,0,0,0,I don't know,1,34478,0
100918,10:23:33,220583496,602656804,4.0.10.0,1,3,end_of_study_questions_ifirst,demand_to,0,0,0,0,0,0,My responses were genuinely based on whether I was influenced or not,1,61236,0
100918,10:23:33,220583496,602656804,4.0.10.0,1,3,end_of_study_questions_ifirst,demand_pn,0,0,0,0,0,0,My responses were genuinely based on whether I was influenced or not,1,61236,0
100918,10:23:33,220583496,602656804,4.0.10.0,1,4,end_of_study_questions_ifirst,influence_general_to,0,0,0,0,0,0,a few,1,43095,0
100918,10:23:33,220583496,602656804,4.0.10.0,1,4,end_of_study_questions_ifirst,influence_general_pn,0,0,0,0,0,0,a few,1,43095,0
100918,10:23:33,220583496,602656804,4.0.10.0,1,5,end_of_study_questions_ifirst,intentionality_to,0,0,0,0,0,0,none,1,13943,0
100918,10:23:33,220583496,602656804,4.0.10.0,1,5,end_of_study_questions_ifirst,intentionality_pn,0,0,0,0,0,0,none,1,13943,0
100918,10:23:33,220583496,602656804,4.0.10.0,1,6,end_of_study_questions_ifirst,unintentionality_to,0,0,0,0,0,0,about half,1,19476,0
100918,10:23:33,220583496,602656804,4.0.10.0,1,6,end_of_study_questions_ifirst,unintentionality_pn,0,0,0,0,0,0,more than half,1,19476,0
100918,10:23:33,220583496,602656804,4.0.10.0,1,7,end_of_study_questions_ifirst,self_exclusion_1,0,0,0,0,0,0,"Yes, use my data",1,9716,0
100918,10:23:33,220583496,602656804,4.0.10.0,1,7,end_of_study_questions_ifirst,self_exclusion_1other,0,0,0,0,0,0,,1,9716,0
100918,10:32:40,850817502,466283845,4.0.10.0,1,1,end_of_study_questions_ufirst,politics,0,0,0,0,0,0,somewhat republican,1,7744,0
100918,10:32:40,850817502,466283845,4.0.10.0,1,2,end_of_study_questions_ufirst,awareness,0,0,0,0,0,0,all,1,17730,0
100918,10:32:40,850817502,466283845,4.0.10.0,1,3,end_of_study_questions_ufirst,demand_to,0,0,0,0,0,0,My responses were genuinely based on whether I was influenced or not,1,27311,0
100918,10:32:40,850817502,466283845,4.0.10.0,1,3,end_of_study_questions_ufirst,demand_pn,0,0,0,0,0,0,My responses were genuinely based on whether I was influenced or not,1,27311,0
100918,10:32:40,850817502,466283845,4.0.10.0,1,4,end_of_study_questions_ufirst,influence_general_to,0,0,0,0,0,0,less than half,1,15444,0
100918,10:32:40,850817502,466283845,4.0.10.0,1,4,end_of_study_questions_ufirst,influence_general_pn,0,0,0,0,0,0,less than half,1,15444,0
100918,10:32:40,850817502,466283845,4.0.10.0,1,5,end_of_study_questions_ufirst,unintentionality_to,0,0,0,0,0,0,a few,1,12335,0
100918,10:32:40,850817502,466283845,4.0.10.0,1,5,end_of_study_questions_ufirst,unintentionality_pn,0,0,0,0,0,0,a few,1,12335,0
100918,10:32:40,850817502,466283845,4.0.10.0,1,6,end_of_study_questions_ufirst,intentionality_to,0,0,0,0,0,0,none,1,9280,0
100918,10:32:40,850817502,466283845,4.0.10.0,1,6,end_of_study_questions_ufirst,intentionality_pn,0,0,0,0,0,0,none,1,9280,0
100918,10:32:40,850817502,466283845,4.0.10.0,1,7,end_of_study_questions_ufirst,self_exclusion_1,0,0,0,0,0,0,"Yes, use my data",1,10766,0
100918,10:32:40,850817502,466283845,4.0.10.0,1,7,end_of_study_questions_ufirst,self_exclusion_1other,0,0,0,0,0,0,,1,10766,0
100918,10:29:53,311418879,406014575,4.0.10.0,1,1,end_of_study_questions_ufirst,politics,0,0,0,0,0,0,somewhat republican,1,10169,0
100918,10:29:53,311418879,406014575,4.0.10.0,1,2,end_of_study_questions_ufirst,awareness,0,0,0,0,0,0,most,1,51134,0
100918,10:29:53,311418879,406014575,4.0.10.0,1,3,end_of_study_questions_ufirst,demand_to,0,0,0,0,0,0,My responses were genuinely based on whether I was influenced or not,1,57442,0
100918,10:29:53,311418879,406014575,4.0.10.0,1,3,end_of_study_questions_ufirst,demand_pn,0,0,0,0,0,0,My responses were genuinely based on whether I was influenced or not,1,57442,0
100918,10:29:53,311418879,406014575,4.0.10.0,1,4,end_of_study_questions_ufirst,influence_general_to,0,0,0,0,0,0,a few,1,47795,0
100918,10:29:53,311418879,406014575,4.0.10.0,1,4,end_of_study_questions_ufirst,influence_general_pn,0,0,0,0,0,0,less than half,1,47795,0
100918,10:29:53,311418879,406014575,4.0.10.0,1,5,end_of_study_questions_ufirst,unintentionality_to,0,0,0,0,0,0,a few,1,21529,0
100918,10:29:53,311418879,406014575,4.0.10.0,1,5,end_of_study_questions_ufirst,unintentionality_pn,0,0,0,0,0,0,less than half,1,21529,0
100918,10:29:53,311418879,406014575,4.0.10.0,1,6,end_of_study_questions_ufirst,intentionality_to,0,0,0,0,0,0,a few,1,78619,0
100918,10:29:53,311418879,406014575,4.0.10.0,1,6,end_of_study_questions_ufirst,intentionality_pn,0,0,0,0,0,0,a few,1,78619,0
100918,10:29:53,311418879,406014575,4.0.10.0,1,7,end_of_study_questions_ufirst,self_exclusion_1,0,0,0,0,0,0,"No, exclude my data (please specify why):",1,180985,0
100918,10:29:53,311418879,406014575,4.0.10.0,1,7,end_of_study_questions_ufirst,self_exclusion_1other,0,0,0,0,0,0,"The exquisit application I downloaded malfunctioned. While I did see the images before the chinese symbols, I was not able to see the actual chinese symbols. The box was just fuzzy dots inside without a discernable image. Also the ""E"" and ""I"" buttons did not work to rate each one. Sorry about this malfunction.",1,180985,0
100918,13:35:08,587935353,703603455,4.0.10.0,1,1,end_of_study_questions_ufirst,politics,0,0,0,0,0,0,a little republican,1,7484,0
100918,13:35:08,587935353,703603455,4.0.10.0,1,2,end_of_study_questions_ufirst,awareness,0,0,0,0,0,0,all,1,22318,0
100918,13:35:08,587935353,703603455,4.0.10.0,1,3,end_of_study_questions_ufirst,demand_to,0,0,0,0,0,0,My responses were genuinely based on whether I was influenced or not,1,25087,0
100918,13:35:08,587935353,703603455,4.0.10.0,1,3,end_of_study_questions_ufirst,demand_pn,0,0,0,0,0,0,My responses were genuinely based on whether I was influenced or not,1,25087,0
100918,13:35:08,587935353,703603455,4.0.10.0,1,4,end_of_study_questions_ufirst,influence_general_to,0,0,0,0,0,0,a few,1,25153,0
100918,13:35:08,587935353,703603455,4.0.10.0,1,4,end_of_study_questions_ufirst,influence_general_pn,0,0,0,0,0,0,none,1,25153,0
100918,13:35:08,587935353,703603455,4.0.10.0,1,5,end_of_study_questions_ufirst,unintentionality_to,0,0,0,0,0,0,I don't know,1,24567,0
100918,13:35:08,587935353,703603455,4.0.10.0,1,5,end_of_study_questions_ufirst,unintentionality_pn,0,0,0,0,0,0,I don't know,1,24567,0
100918,13:35:08,587935353,703603455,4.0.10.0,1,6,end_of_study_questions_ufirst,intentionality_to,0,0,0,0,0,0,none,1,14077,0
100918,13:35:08,587935353,703603455,4.0.10.0,1,6,end_of_study_questions_ufirst,intentionality_pn,0,0,0,0,0,0,none,1,14077,0
100918,13:35:08,587935353,703603455,4.0.10.0,1,7,end_of_study_questions_ufirst,self_exclusion_1,0,0,0,0,0,0,"Yes, use my data",1,18176,0
100918,13:35:08,587935353,703603455,4.0.10.0,1,7,end_of_study_questions_ufirst,self_exclusion_1other,0,0,0,0,0,0,,1,18176,0
100918,12:36:46,470849782,993168739,4.0.10.0,1,1,end_of_study_questions_ufirst,politics,0,0,0,0,0,0,somewhat republican,1,10680,0
100918,12:36:46,470849782,993168739,4.0.10.0,1,2,end_of_study_questions_ufirst,awareness,0,0,0,0,0,0,all,1,48923,0
100918,12:36:46,470849782,993168739,4.0.10.0,1,3,end_of_study_questions_ufirst,demand_to,0,0,0,0,0,0,My responses were genuinely based on whether I was influenced or not,1,25799,0
100918,12:36:46,470849782,993168739,4.0.10.0,1,3,end_of_study_questions_ufirst,demand_pn,0,0,0,0,0,0,My responses were genuinely based on whether I was influenced or not,1,25799,0
100918,12:36:46,470849782,993168739,4.0.10.0,1,4,end_of_study_questions_ufirst,influence_general_to,0,0,0,0,0,0,less than half,1,19463,0
100918,12:36:46,470849782,993168739,4.0.10.0,1,4,end_of_study_questions_ufirst,influence_general_pn,0,0,0,0,0,0,about half,1,19463,0
100918,12:36:46,470849782,993168739,4.0.10.0,1,5,end_of_study_questions_ufirst,unintentionality_to,0,0,0,0,0,0,a few,1,42300,0
100918,12:36:46,470849782,993168739,4.0.10.0,1,5,end_of_study_questions_ufirst,unintentionality_pn,0,0,0,0,0,0,a few,1,42300,0
100918,12:36:46,470849782,993168739,4.0.10.0,1,6,end_of_study_questions_ufirst,intentionality_to,0,0,0,0,0,0,a few,1,13780,0
100918,12:36:46,470849782,993168739,4.0.10.0,1,6,end_of_study_questions_ufirst,intentionality_pn,0,0,0,0,0,0,less than half,1,13780,0
100918,12:36:46,470849782,993168739,4.0.10.0,1,7,end_of_study_questions_ufirst,self_exclusion_1,0,0,0,0,0,0,"Yes, use my data",1,9227,0
100918,12:36:46,470849782,993168739,4.0.10.0,1,7,end_of_study_questions_ufirst,self_exclusion_1other,0,0,0,0,0,0,,1,9227,0
100918,12:39:22,573144487,503719655,4.0.10.0,1,1,end_of_study_questions_ufirst,politics,0,0,0,0,0,0,somewhat republican,1,4846,0
100918,12:39:22,573144487,503719655,4.0.10.0,1,2,end_of_study_questions_ufirst,awareness,0,0,0,0,0,0,all,1,15004,0
100918,12:39:22,573144487,503719655,4.0.10.0,1,3,end_of_study_questions_ufirst,demand_to,0,0,0,0,0,0,My responses were genuinely based on whether I was influenced or not,1,11011,0
100918,12:39:22,573144487,503719655,4.0.10.0,1,3,end_of_study_questions_ufirst,demand_pn,0,0,0,0,0,0,My responses were genuinely based on whether I was influenced or not,1,11011,0
100918,12:39:22,573144487,503719655,4.0.10.0,1,4,end_of_study_questions_ufirst,influence_general_to,0,0,0,0,0,0,none,1,7190,0
100918,12:39:22,573144487,503719655,4.0.10.0,1,4,end_of_study_questions_ufirst,influence_general_pn,0,0,0,0,0,0,none,1,7190,0
100918,12:39:22,573144487,503719655,4.0.10.0,1,5,end_of_study_questions_ufirst,unintentionality_to,0,0,0,0,0,0,none,1,5942,0
100918,12:39:22,573144487,503719655,4.0.10.0,1,5,end_of_study_questions_ufirst,unintentionality_pn,0,0,0,0,0,0,none,1,5942,0
100918,12:39:22,573144487,503719655,4.0.10.0,1,6,end_of_study_questions_ufirst,intentionality_to,0,0,0,0,0,0,none,1,7568,0
100918,12:39:22,573144487,503719655,4.0.10.0,1,6,end_of_study_questions_ufirst,intentionality_pn,0,0,0,0,0,0,none,1,7568,0
100918,12:39:22,573144487,503719655,4.0.10.0,1,7,end_of_study_questions_ufirst,self_exclusion_1,0,0,0,0,0,0,"Yes, use my data",1,2280,0
100918,12:39:22,573144487,503719655,4.0.10.0,1,7,end_of_study_questions_ufirst,self_exclusion_1other,0,0,0,0,0,0,,1,2280,0
100918,13:41:12,562679605,850346999,4.0.10.0,1,1,end_of_study_questions_ufirst,politics,0,0,0,0,0,0,very republican,1,2836,0
100918,13:41:12,562679605,850346999,4.0.10.0,1,2,end_of_study_questions_ufirst,awareness,0,0,0,0,0,0,all,1,8414,0
100918,13:41:12,562679605,850346999,4.0.10.0,1,3,end_of_study_questions_ufirst,demand_to,0,0,0,0,0,0,My responses were genuinely based on whether I was influenced or not,1,8179,0
100918,13:41:12,562679605,850346999,4.0.10.0,1,3,end_of_study_questions_ufirst,demand_pn,0,0,0,0,0,0,My responses were genuinely based on whether I was influenced or not,1,8179,0
100918,13:41:12,562679605,850346999,4.0.10.0,1,4,end_of_study_questions_ufirst,influence_general_to,0,0,0,0,0,0,a few,1,8130,0
100918,13:41:12,562679605,850346999,4.0.10.0,1,4,end_of_study_questions_ufirst,influence_general_pn,0,0,0,0,0,0,a few,1,8130,0
100918,13:41:12,562679605,850346999,4.0.10.0,1,5,end_of_study_questions_ufirst,unintentionality_to,0,0,0,0,0,0,most,1,10861,0
100918,13:41:12,562679605,850346999,4.0.10.0,1,5,end_of_study_questions_ufirst,unintentionality_pn,0,0,0,0,0,0,most,1,10861,0
100918,13:41:12,562679605,850346999,4.0.10.0,1,6,end_of_study_questions_ufirst,intentionality_to,0,0,0,0,0,0,a few,1,14547,0
100918,13:41:12,562679605,850346999,4.0.10.0,1,6,end_of_study_questions_ufirst,intentionality_pn,0,0,0,0,0,0,a few,1,14547,0
100918,13:41:12,562679605,850346999,4.0.10.0,1,7,end_of_study_questions_ufirst,self_exclusion_1,0,0,0,0,0,0,"Yes, use my data",1,2914,0
100918,13:41:12,562679605,850346999,4.0.10.0,1,7,end_of_study_questions_ufirst,self_exclusion_1other,0,0,0,0,0,0,,1,2914,0
100918,13:43:11,844217914,844835202,4.0.10.0,1,1,end_of_study_questions_ifirst,politics,0,0,0,0,0,0,a little republican,1,5502,0
100918,13:43:11,844217914,844835202,4.0.10.0,1,2,end_of_study_questions_ifirst,awareness,0,0,0,0,0,0,all,1,32001,0
100918,13:43:11,844217914,844835202,4.0.10.0,1,3,end_of_study_questions_ifirst,demand_to,0,0,0,0,0,0,My responses were genuinely based on whether I was influenced or not,1,18532,0
100918,13:43:11,844217914,844835202,4.0.10.0,1,3,end_of_study_questions_ifirst,demand_pn,0,0,0,0,0,0,My responses were genuinely based on whether I was influenced or not,1,18532,0
100918,13:43:11,844217914,844835202,4.0.10.0,1,4,end_of_study_questions_ifirst,influence_general_to,0,0,0,0,0,0,less than half,1,13994,0
100918,13:43:11,844217914,844835202,4.0.10.0,1,4,end_of_study_questions_ifirst,influence_general_pn,0,0,0,0,0,0,less than half,1,13994,0
100918,13:43:11,844217914,844835202,4.0.10.0,1,5,end_of_study_questions_ifirst,intentionality_to,0,0,0,0,0,0,none,1,20569,0
100918,13:43:11,844217914,844835202,4.0.10.0,1,5,end_of_study_questions_ifirst,intentionality_pn,0,0,0,0,0,0,none,1,20569,0
100918,13:43:11,844217914,844835202,4.0.10.0,1,6,end_of_study_questions_ifirst,unintentionality_to,0,0,0,0,0,0,a few,1,8904,0
100918,13:43:11,844217914,844835202,4.0.10.0,1,6,end_of_study_questions_ifirst,unintentionality_pn,0,0,0,0,0,0,a few,1,8904,0
100918,13:43:11,844217914,844835202,4.0.10.0,1,7,end_of_study_questions_ifirst,self_exclusion_1,0,0,0,0,0,0,"Yes, use my data",1,5197,0
100918,13:43:11,844217914,844835202,4.0.10.0,1,7,end_of_study_questions_ifirst,self_exclusion_1other,0,0,0,0,0,0,,1,5197,0
100918,13:44:09,220050994,234778349,4.0.10.0,1,1,end_of_study_questions_ufirst,politics,0,0,0,0,0,0,a little republican,1,5774,0
100918,13:44:09,220050994,234778349,4.0.10.0,1,2,end_of_study_questions_ufirst,awareness,0,0,0,0,0,0,all,1,11498,0
100918,13:44:09,220050994,234778349,4.0.10.0,1,3,end_of_study_questions_ufirst,demand_to,0,0,0,0,0,0,My responses were genuinely based on whether I was influenced or not,1,16330,0
100918,13:44:09,220050994,234778349,4.0.10.0,1,3,end_of_study_questions_ufirst,demand_pn,0,0,0,0,0,0,My responses were genuinely based on whether I was influenced or not,1,16330,0
100918,13:44:09,220050994,234778349,4.0.10.0,1,4,end_of_study_questions_ufirst,influence_general_to,0,0,0,0,0,0,a few,1,12805,0
100918,13:44:09,220050994,234778349,4.0.10.0,1,4,end_of_study_questions_ufirst,influence_general_pn,0,0,0,0,0,0,less than half,1,12805,0
100918,13:44:09,220050994,234778349,4.0.10.0,1,5,end_of_study_questions_ufirst,unintentionality_to,0,0,0,0,0,0,a few,1,10807,0
100918,13:44:09,220050994,234778349,4.0.10.0,1,5,end_of_study_questions_ufirst,unintentionality_pn,0,0,0,0,0,0,less than half,1,10807,0
100918,13:44:09,220050994,234778349,4.0.10.0,1,6,end_of_study_questions_ufirst,intentionality_to,0,0,0,0,0,0,none,1,10211,0
100918,13:44:09,220050994,234778349,4.0.10.0,1,6,end_of_study_questions_ufirst,intentionality_pn,0,0,0,0,0,0,a few,1,10211,0
100918,13:44:09,220050994,234778349,4.0.10.0,1,7,end_of_study_questions_ufirst,self_exclusion_1,0,0,0,0,0,0,"Yes, use my data",1,10376,0
100918,13:44:09,220050994,234778349,4.0.10.0,1,7,end_of_study_questions_ufirst,self_exclusion_1other,0,0,0,0,0,0,,1,10376,0
100918,13:45:38,609735899,71968352,4.0.10.0,1,1,end_of_study_questions_ifirst,politics,0,0,0,0,0,0,somewhat republican,1,4436,0
100918,13:45:38,609735899,71968352,4.0.10.0,1,2,end_of_study_questions_ifirst,awareness,0,0,0,0,0,0,most,1,31560,0
100918,13:45:38,609735899,71968352,4.0.10.0,1,3,end_of_study_questions_ifirst,demand_to,0,0,0,0,0,0,My responses were genuinely based on whether I was influenced or not,1,9311,0
100918,13:45:38,609735899,71968352,4.0.10.0,1,3,end_of_study_questions_ifirst,demand_pn,0,0,0,0,0,0,My responses were genuinely based on whether I was influenced or not,1,9311,0
100918,13:45:38,609735899,71968352,4.0.10.0,1,4,end_of_study_questions_ifirst,influence_general_to,0,0,0,0,0,0,none,1,9485,0
100918,13:45:38,609735899,71968352,4.0.10.0,1,4,end_of_study_questions_ifirst,influence_general_pn,0,0,0,0,0,0,none,1,9485,0
100918,13:45:38,609735899,71968352,4.0.10.0,1,5,end_of_study_questions_ifirst,intentionality_to,0,0,0,0,0,0,none,1,14666,0
100918,13:45:38,609735899,71968352,4.0.10.0,1,5,end_of_study_questions_ifirst,intentionality_pn,0,0,0,0,0,0,none,1,14666,0
100918,13:45:38,609735899,71968352,4.0.10.0,1,6,end_of_study_questions_ifirst,unintentionality_to,0,0,0,0,0,0,a few,1,12842,0
100918,13:45:38,609735899,71968352,4.0.10.0,1,6,end_of_study_questions_ifirst,unintentionality_pn,0,0,0,0,0,0,a few,1,12842,0
100918,13:45:38,609735899,71968352,4.0.10.0,1,7,end_of_study_questions_ifirst,self_exclusion_1,0,0,0,0,0,0,"Yes, use my data",1,4713,0
100918,13:45:38,609735899,71968352,4.0.10.0,1,7,end_of_study_questions_ifirst,self_exclusion_1other,0,0,0,0,0,0,,1,4713,0
100918,13:45:33,569536690,805394460,4.0.10.0,1,1,end_of_study_questions_ifirst,politics,0,0,0,0,0,0,somewhat republican,1,8296,0
100918,13:45:33,569536690,805394460,4.0.10.0,1,2,end_of_study_questions_ifirst,awareness,0,0,0,0,0,0,about half,1,23723,0
100918,13:45:33,569536690,805394460,4.0.10.0,1,3,end_of_study_questions_ifirst,demand_to,0,0,0,0,0,0,My responses were genuinely based on whether I was influenced or not,1,26047,0
100918,13:45:33,569536690,805394460,4.0.10.0,1,3,end_of_study_questions_ifirst,demand_pn,0,0,0,0,0,0,My responses were genuinely based on whether I was influenced or not,1,26047,0
100918,13:45:33,569536690,805394460,4.0.10.0,1,4,end_of_study_questions_ifirst,influence_general_to,0,0,0,0,0,0,about half,1,14432,0
100918,13:45:33,569536690,805394460,4.0.10.0,1,4,end_of_study_questions_ifirst,influence_general_pn,0,0,0,0,0,0,none,1,14432,0
100918,13:45:33,569536690,805394460,4.0.10.0,1,5,end_of_study_questions_ifirst,intentionality_to,0,0,0,0,0,0,about half,1,15983,0
100918,13:45:33,569536690,805394460,4.0.10.0,1,5,end_of_study_questions_ifirst,intentionality_pn,0,0,0,0,0,0,none,1,15983,0
100918,13:45:33,569536690,805394460,4.0.10.0,1,6,end_of_study_questions_ifirst,unintentionality_to,0,0,0,0,0,0,less than half,1,24848,0
100918,13:45:33,569536690,805394460,4.0.10.0,1,6,end_of_study_questions_ifirst,unintentionality_pn,0,0,0,0,0,0,none,1,24848,0
100918,13:45:33,569536690,805394460,4.0.10.0,1,7,end_of_study_questions_ifirst,self_exclusion_1,0,0,0,0,0,0,"Yes, use my data",1,3449,0
100918,13:45:33,569536690,805394460,4.0.10.0,1,7,end_of_study_questions_ifirst,self_exclusion_1other,0,0,0,0,0,0,,1,3449,0
100918,10:48:37,325170286,843794323,4.0.10.0,1,1,end_of_study_questions_ufirst,politics,0,0,0,0,0,0,very republican,1,6680,0
100918,10:48:37,325170286,843794323,4.0.10.0,1,2,end_of_study_questions_ufirst,awareness,0,0,0,0,0,0,all,1,18530,0
100918,10:48:37,325170286,843794323,4.0.10.0,1,3,end_of_study_questions_ufirst,demand_to,0,0,0,0,0,0,My responses were genuinely based on whether I was influenced or not,1,20578,0
100918,10:48:37,325170286,843794323,4.0.10.0,1,3,end_of_study_questions_ufirst,demand_pn,0,0,0,0,0,0,My responses were genuinely based on whether I was influenced or not,1,20578,0
100918,10:48:37,325170286,843794323,4.0.10.0,1,4,end_of_study_questions_ufirst,influence_general_to,0,0,0,0,0,0,more than half,1,23213,0
100918,10:48:37,325170286,843794323,4.0.10.0,1,4,end_of_study_questions_ufirst,influence_general_pn,0,0,0,0,0,0,less than half,1,23213,0
100918,10:48:37,325170286,843794323,4.0.10.0,1,5,end_of_study_questions_ufirst,unintentionality_to,0,0,0,0,0,0,about half,1,22654,0
100918,10:48:37,325170286,843794323,4.0.10.0,1,5,end_of_study_questions_ufirst,unintentionality_pn,0,0,0,0,0,0,less than half,1,22654,0
100918,10:48:37,325170286,843794323,4.0.10.0,1,6,end_of_study_questions_ufirst,intentionality_to,0,0,0,0,0,0,about half,1,34628,0
100918,10:48:37,325170286,843794323,4.0.10.0,1,6,end_of_study_questions_ufirst,intentionality_pn,0,0,0,0,0,0,less than half,1,34628,0
100918,10:48:37,325170286,843794323,4.0.10.0,1,7,end_of_study_questions_ufirst,self_exclusion_1,0,0,0,0,0,0,"Yes, use my data",1,12265,0
100918,10:48:37,325170286,843794323,4.0.10.0,1,7,end_of_study_questions_ufirst,self_exclusion_1other,0,0,0,0,0,0,,1,12265,0
100918,13:51:41,662046693,435991174,4.0.10.0,1,1,end_of_study_questions_ifirst,politics,0,0,0,0,0,0,somewhat republican,1,4180,0
100918,13:51:41,662046693,435991174,4.0.10.0,1,2,end_of_study_questions_ifirst,awareness,0,0,0,0,0,0,all,1,7505,0
100918,13:51:41,662046693,435991174,4.0.10.0,1,3,end_of_study_questions_ifirst,demand_to,0,0,0,0,0,0,My responses were genuinely based on whether I was influenced or not,1,11632,0
100918,13:51:41,662046693,435991174,4.0.10.0,1,3,end_of_study_questions_ifirst,demand_pn,0,0,0,0,0,0,My responses were genuinely based on whether I was influenced or not,1,11632,0
100918,13:51:41,662046693,435991174,4.0.10.0,1,4,end_of_study_questions_ifirst,influence_general_to,0,0,0,0,0,0,all,1,7819,0
100918,13:51:41,662046693,435991174,4.0.10.0,1,4,end_of_study_questions_ifirst,influence_general_pn,0,0,0,0,0,0,all,1,7819,0
100918,13:51:41,662046693,435991174,4.0.10.0,1,5,end_of_study_questions_ifirst,intentionality_to,0,0,0,0,0,0,none,1,5735,0
100918,13:51:41,662046693,435991174,4.0.10.0,1,5,end_of_study_questions_ifirst,intentionality_pn,0,0,0,0,0,0,none,1,5735,0
100918,13:51:41,662046693,435991174,4.0.10.0,1,6,end_of_study_questions_ifirst,unintentionality_to,0,0,0,0,0,0,none,1,8525,0
100918,13:51:41,662046693,435991174,4.0.10.0,1,6,end_of_study_questions_ifirst,unintentionality_pn,0,0,0,0,0,0,none,1,8525,0
100918,13:51:41,662046693,435991174,4.0.10.0,1,7,end_of_study_questions_ifirst,self_exclusion_1,0,0,0,0,0,0,"Yes, use my data",1,2677,0
100918,13:51:41,662046693,435991174,4.0.10.0,1,7,end_of_study_questions_ifirst,self_exclusion_1other,0,0,0,0,0,0,,1,2677,0
100918,13:55:04,190570929,48667600,4.0.10.0,1,1,end_of_study_questions_ifirst,politics,0,0,0,0,0,0,somewhat republican,1,8685,0
100918,13:55:04,190570929,48667600,4.0.10.0,1,2,end_of_study_questions_ifirst,awareness,0,0,0,0,0,0,all,1,18102,0
100918,13:55:04,190570929,48667600,4.0.10.0,1,3,end_of_study_questions_ifirst,demand_to,0,0,0,0,0,0,My responses were genuinely based on whether I was influenced or not,1,32434,0
100918,13:55:04,190570929,48667600,4.0.10.0,1,3,end_of_study_questions_ifirst,demand_pn,0,0,0,0,0,0,My responses were genuinely based on whether I was influenced or not,1,32434,0
100918,13:55:04,190570929,48667600,4.0.10.0,1,4,end_of_study_questions_ifirst,influence_general_to,0,0,0,0,0,0,none,1,22952,0
100918,13:55:04,190570929,48667600,4.0.10.0,1,4,end_of_study_questions_ifirst,influence_general_pn,0,0,0,0,0,0,none,1,22952,0
100918,13:55:04,190570929,48667600,4.0.10.0,1,5,end_of_study_questions_ifirst,intentionality_to,0,0,0,0,0,0,all,1,11602,0
100918,13:55:04,190570929,48667600,4.0.10.0,1,5,end_of_study_questions_ifirst,intentionality_pn,0,0,0,0,0,0,all,1,11602,0
100918,13:55:04,190570929,48667600,4.0.10.0,1,6,end_of_study_questions_ifirst,unintentionality_to,0,0,0,0,0,0,none,1,30619,0
100918,13:55:04,190570929,48667600,4.0.10.0,1,6,end_of_study_questions_ifirst,unintentionality_pn,0,0,0,0,0,0,none,1,30619,0
100918,13:55:04,190570929,48667600,4.0.10.0,1,7,end_of_study_questions_ifirst,self_exclusion_1,0,0,0,0,0,0,"Yes, use my data",1,28735,0
100918,13:55:04,190570929,48667600,4.0.10.0,1,7,end_of_study_questions_ifirst,self_exclusion_1other,0,0,0,0,0,0,,1,28735,0
100918,11:00:17,417052816,473763569,4.0.10.0,1,1,end_of_study_questions_ufirst,politics,0,0,0,0,0,0,very republican,1,8292,0
100918,11:00:17,417052816,473763569,4.0.10.0,1,2,end_of_study_questions_ufirst,awareness,0,0,0,0,0,0,about half,1,67525,0
100918,11:00:17,417052816,473763569,4.0.10.0,1,3,end_of_study_questions_ufirst,demand_to,0,0,0,0,0,0,My responses were genuinely based on whether I was influenced or not,1,23178,0
100918,11:00:17,417052816,473763569,4.0.10.0,1,3,end_of_study_questions_ufirst,demand_pn,0,0,0,0,0,0,My responses were genuinely based on whether I was influenced or not,1,23178,0
100918,11:00:17,417052816,473763569,4.0.10.0,1,4,end_of_study_questions_ufirst,influence_general_to,0,0,0,0,0,0,less than half,1,22397,0
100918,11:00:17,417052816,473763569,4.0.10.0,1,4,end_of_study_questions_ufirst,influence_general_pn,0,0,0,0,0,0,a few,1,22397,0
100918,11:00:17,417052816,473763569,4.0.10.0,1,5,end_of_study_questions_ufirst,unintentionality_to,0,0,0,0,0,0,a few,1,18684,0
100918,11:00:17,417052816,473763569,4.0.10.0,1,5,end_of_study_questions_ufirst,unintentionality_pn,0,0,0,0,0,0,a few,1,18684,0
100918,11:00:17,417052816,473763569,4.0.10.0,1,6,end_of_study_questions_ufirst,intentionality_to,0,0,0,0,0,0,less than half,1,11396,0
100918,11:00:17,417052816,473763569,4.0.10.0,1,6,end_of_study_questions_ufirst,intentionality_pn,0,0,0,0,0,0,a few,1,11396,0
100918,11:00:17,417052816,473763569,4.0.10.0,1,7,end_of_study_questions_ufirst,self_exclusion_1,0,0,0,0,0,0,"Yes, use my data",1,25892,0
100918,11:00:17,417052816,473763569,4.0.10.0,1,7,end_of_study_questions_ufirst,self_exclusion_1other,0,0,0,0,0,0,,1,25892,0
100918,12:03:01,962919174,178108084,4.0.10.0,1,1,end_of_study_questions_ifirst,politics,0,0,0,0,0,0,very republican,1,4940,0
100918,12:03:01,962919174,178108084,4.0.10.0,1,2,end_of_study_questions_ifirst,awareness,0,0,0,0,0,0,I don't know,1,52914,0
100918,12:03:01,962919174,178108084,4.0.10.0,1,3,end_of_study_questions_ifirst,demand_to,0,0,0,0,0,0,My responses were genuinely based on whether I was influenced or not,1,43315,0
100918,12:03:01,962919174,178108084,4.0.10.0,1,3,end_of_study_questions_ifirst,demand_pn,0,0,0,0,0,0,I'm not sure or don't know why I responded the way I did,1,43315,0
100918,12:03:01,962919174,178108084,4.0.10.0,1,4,end_of_study_questions_ifirst,influence_general_to,0,0,0,0,0,0,none,1,29940,0
100918,12:03:01,962919174,178108084,4.0.10.0,1,4,end_of_study_questions_ifirst,influence_general_pn,0,0,0,0,0,0,more than half,1,29940,0
100918,12:03:01,962919174,178108084,4.0.10.0,1,5,end_of_study_questions_ifirst,intentionality_to,0,0,0,0,0,0,most,1,17712,0
100918,12:03:01,962919174,178108084,4.0.10.0,1,5,end_of_study_questions_ifirst,intentionality_pn,0,0,0,0,0,0,most,1,17712,0
100918,12:03:01,962919174,178108084,4.0.10.0,1,6,end_of_study_questions_ifirst,unintentionality_to,0,0,0,0,0,0,less than half,1,33527,0
100918,12:03:01,962919174,178108084,4.0.10.0,1,6,end_of_study_questions_ifirst,unintentionality_pn,0,0,0,0,0,0,most,1,33527,0
100918,12:03:01,962919174,178108084,4.0.10.0,1,7,end_of_study_questions_ifirst,self_exclusion_1,0,0,0,0,0,0,"No, exclude my data (please specify why):",1,40835,0
100918,12:03:01,962919174,178108084,4.0.10.0,1,7,end_of_study_questions_ifirst,self_exclusion_1other,0,0,0,0,0,0,I was rather confused about what to do and I do not think it will present the information you wanted if used.,1,40835,0
100918,14:07:09,220221688,54382068,4.0.10.0,1,1,end_of_study_questions_ifirst,politics,0,0,0,0,0,0,somewhat republican,1,5244,0
100918,14:07:09,220221688,54382068,4.0.10.0,1,2,end_of_study_questions_ifirst,awareness,0,0,0,0,0,0,all,1,31761,0
100918,14:07:09,220221688,54382068,4.0.10.0,1,3,end_of_study_questions_ifirst,demand_to,0,0,0,0,0,0,My responses were genuinely based on whether I was influenced or not,1,38668,0
100918,14:07:09,220221688,54382068,4.0.10.0,1,3,end_of_study_questions_ifirst,demand_pn,0,0,0,0,0,0,My responses were genuinely based on whether I was influenced or not,1,38668,0
100918,14:07:09,220221688,54382068,4.0.10.0,1,4,end_of_study_questions_ifirst,influence_general_to,0,0,0,0,0,0,none,1,18607,0
100918,14:07:09,220221688,54382068,4.0.10.0,1,4,end_of_study_questions_ifirst,influence_general_pn,0,0,0,0,0,0,none,1,18607,0
100918,14:07:09,220221688,54382068,4.0.10.0,1,5,end_of_study_questions_ifirst,intentionality_to,0,0,0,0,0,0,none,1,10459,0
100918,14:07:09,220221688,54382068,4.0.10.0,1,5,end_of_study_questions_ifirst,intentionality_pn,0,0,0,0,0,0,none,1,10459,0
100918,14:07:09,220221688,54382068,4.0.10.0,1,6,end_of_study_questions_ifirst,unintentionality_to,0,0,0,0,0,0,I don't know,1,12023,0
100918,14:07:09,220221688,54382068,4.0.10.0,1,6,end_of_study_questions_ifirst,unintentionality_pn,0,0,0,0,0,0,I don't know,1,12023,0
100918,14:07:09,220221688,54382068,4.0.10.0,1,7,end_of_study_questions_ifirst,self_exclusion_1,0,0,0,0,0,0,"Yes, use my data",1,6649,0
100918,14:07:09,220221688,54382068,4.0.10.0,1,7,end_of_study_questions_ifirst,self_exclusion_1other,0,0,0,0,0,0,,1,6649,0
100918,14:13:37,648134634,84752084,4.0.10.0,1,1,end_of_study_questions_ifirst,politics,0,0,0,0,0,0,somewhat republican,1,5397,0
100918,14:13:37,648134634,84752084,4.0.10.0,1,2,end_of_study_questions_ifirst,awareness,0,0,0,0,0,0,all,1,15717,0
100918,14:13:37,648134634,84752084,4.0.10.0,1,3,end_of_study_questions_ifirst,demand_to,0,0,0,0,0,0,My responses were genuinely based on whether I was influenced or not,1,19859,0
100918,14:13:37,648134634,84752084,4.0.10.0,1,3,end_of_study_questions_ifirst,demand_pn,0,0,0,0,0,0,My responses were genuinely based on whether I was influenced or not,1,19859,0
100918,14:13:37,648134634,84752084,4.0.10.0,1,4,end_of_study_questions_ifirst,influence_general_to,0,0,0,0,0,0,more than half,1,12342,0
100918,14:13:37,648134634,84752084,4.0.10.0,1,4,end_of_study_questions_ifirst,influence_general_pn,0,0,0,0,0,0,less than half,1,12342,0
100918,14:13:37,648134634,84752084,4.0.10.0,1,5,end_of_study_questions_ifirst,intentionality_to,0,0,0,0,0,0,about half,1,10836,0
100918,14:13:37,648134634,84752084,4.0.10.0,1,5,end_of_study_questions_ifirst,intentionality_pn,0,0,0,0,0,0,most,1,10836,0
100918,14:13:37,648134634,84752084,4.0.10.0,1,6,end_of_study_questions_ifirst,unintentionality_to,0,0,0,0,0,0,most,1,9264,0
100918,14:13:37,648134634,84752084,4.0.10.0,1,6,end_of_study_questions_ifirst,unintentionality_pn,0,0,0,0,0,0,all,1,9264,0
100918,14:13:37,648134634,84752084,4.0.10.0,1,7,end_of_study_questions_ifirst,self_exclusion_1,0,0,0,0,0,0,"Yes, use my data",1,4092,0
100918,14:13:37,648134634,84752084,4.0.10.0,1,7,end_of_study_questions_ifirst,self_exclusion_1other,0,0,0,0,0,0,,1,4092,0
100918,11:19:26,672512767,735354817,4.0.10.0,1,1,end_of_study_questions_ufirst,politics,0,0,0,0,0,0,somewhat republican,1,31674,0
100918,11:19:26,672512767,735354817,4.0.10.0,1,2,end_of_study_questions_ufirst,awareness,0,0,0,0,0,0,more than half,1,11205,0
100918,11:19:26,672512767,735354817,4.0.10.0,1,3,end_of_study_questions_ufirst,demand_to,0,0,0,0,0,0,My responses were genuinely based on whether I was influenced or not,1,6053,0
100918,11:19:26,672512767,735354817,4.0.10.0,1,3,end_of_study_questions_ufirst,demand_pn,0,0,0,0,0,0,My responses were genuinely based on whether I was influenced or not,1,6053,0
100918,11:19:26,672512767,735354817,4.0.10.0,1,4,end_of_study_questions_ufirst,influence_general_to,0,0,0,0,0,0,a few,1,38787,0
100918,11:19:26,672512767,735354817,4.0.10.0,1,4,end_of_study_questions_ufirst,influence_general_pn,0,0,0,0,0,0,a few,1,38787,0
100918,11:19:26,672512767,735354817,4.0.10.0,1,5,end_of_study_questions_ufirst,unintentionality_to,0,0,0,0,0,0,a few,1,22595,0
100918,11:19:26,672512767,735354817,4.0.10.0,1,5,end_of_study_questions_ufirst,unintentionality_pn,0,0,0,0,0,0,a few,1,22595,0
100918,11:19:26,672512767,735354817,4.0.10.0,1,6,end_of_study_questions_ufirst,intentionality_to,0,0,0,0,0,0,less than half,1,9353,0
100918,11:19:26,672512767,735354817,4.0.10.0,1,6,end_of_study_questions_ufirst,intentionality_pn,0,0,0,0,0,0,a few,1,9353,0
100918,11:19:26,672512767,735354817,4.0.10.0,1,7,end_of_study_questions_ufirst,self_exclusion_1,0,0,0,0,0,0,"Yes, use my data",1,4132,0
100918,11:19:26,672512767,735354817,4.0.10.0,1,7,end_of_study_questions_ufirst,self_exclusion_1other,0,0,0,0,0,0,,1,4132,0
100918,13:21:20,144475281,588773360,4.0.10.0,1,1,end_of_study_questions_ifirst,politics,0,0,0,0,0,0,a little republican,1,10680,0
100918,13:21:20,144475281,588773360,4.0.10.0,1,2,end_of_study_questions_ifirst,awareness,0,0,0,0,0,0,about half,1,12483,0
100918,13:21:20,144475281,588773360,4.0.10.0,1,3,end_of_study_questions_ifirst,demand_to,0,0,0,0,0,0,My responses were based on what I thought the researcher wanted me to say,1,13738,0
100918,13:21:20,144475281,588773360,4.0.10.0,1,3,end_of_study_questions_ifirst,demand_pn,0,0,0,0,0,0,My responses were genuinely based on whether I was influenced or not,1,13738,0
100918,13:21:20,144475281,588773360,4.0.10.0,1,4,end_of_study_questions_ifirst,influence_general_to,0,0,0,0,0,0,more than half,1,7279,0
100918,13:21:20,144475281,588773360,4.0.10.0,1,4,end_of_study_questions_ifirst,influence_general_pn,0,0,0,0,0,0,more than half,1,7279,0
100918,13:21:20,144475281,588773360,4.0.10.0,1,5,end_of_study_questions_ifirst,intentionality_to,0,0,0,0,0,0,less than half,1,4506,0
100918,13:21:20,144475281,588773360,4.0.10.0,1,5,end_of_study_questions_ifirst,intentionality_pn,0,0,0,0,0,0,less than half,1,4506,0
100918,13:21:20,144475281,588773360,4.0.10.0,1,6,end_of_study_questions_ifirst,unintentionality_to,0,0,0,0,0,0,about half,1,5142,0
100918,13:21:20,144475281,588773360,4.0.10.0,1,6,end_of_study_questions_ifirst,unintentionality_pn,0,0,0,0,0,0,about half,1,5142,0
100918,13:21:20,144475281,588773360,4.0.10.0,1,7,end_of_study_questions_ifirst,self_exclusion_1,0,0,0,0,0,0,"Yes, use my data",1,3637,0
100918,13:21:20,144475281,588773360,4.0.10.0,1,7,end_of_study_questions_ifirst,self_exclusion_1other,0,0,0,0,0,0,,1,3637,0
100918,14:23:46,47602434,577900158,4.0.10.0,1,1,end_of_study_questions_ifirst,politics,0,0,0,0,0,0,very republican,1,5338,0
100918,14:23:46,47602434,577900158,4.0.10.0,1,2,end_of_study_questions_ifirst,awareness,0,0,0,0,0,0,most,1,18641,0
100918,14:23:46,47602434,577900158,4.0.10.0,1,3,end_of_study_questions_ifirst,demand_to,0,0,0,0,0,0,My responses were genuinely based on whether I was influenced or not,1,16095,0
100918,14:23:46,47602434,577900158,4.0.10.0,1,3,end_of_study_questions_ifirst,demand_pn,0,0,0,0,0,0,My responses were genuinely based on whether I was influenced or not,1,16095,0
100918,14:23:46,47602434,577900158,4.0.10.0,1,4,end_of_study_questions_ifirst,influence_general_to,0,0,0,0,0,0,a few,1,13890,0
100918,14:23:46,47602434,577900158,4.0.10.0,1,4,end_of_study_questions_ifirst,influence_general_pn,0,0,0,0,0,0,a few,1,13890,0
100918,14:23:46,47602434,577900158,4.0.10.0,1,5,end_of_study_questions_ifirst,intentionality_to,0,0,0,0,0,0,none,1,15152,0
100918,14:23:46,47602434,577900158,4.0.10.0,1,5,end_of_study_questions_ifirst,intentionality_pn,0,0,0,0,0,0,none,1,15152,0
100918,14:23:46,47602434,577900158,4.0.10.0,1,6,end_of_study_questions_ifirst,unintentionality_to,0,0,0,0,0,0,I don't know,1,7495,0
100918,14:23:46,47602434,577900158,4.0.10.0,1,6,end_of_study_questions_ifirst,unintentionality_pn,0,0,0,0,0,0,I don't know,1,7495,0
100918,14:23:46,47602434,577900158,4.0.10.0,1,7,end_of_study_questions_ifirst,self_exclusion_1,0,0,0,0,0,0,"Yes, use my data",1,3389,0
100918,14:23:46,47602434,577900158,4.0.10.0,1,7,end_of_study_questions_ifirst,self_exclusion_1other,0,0,0,0,0,0,,1,3389,0
100918,14:35:04,100030999,19446760,4.0.10.0,1,1,end_of_study_questions_ifirst,politics,0,0,0,0,0,0,a little republican,1,3615,0
100918,14:35:04,100030999,19446760,4.0.10.0,1,2,end_of_study_questions_ifirst,awareness,0,0,0,0,0,0,all,1,7376,0
100918,14:35:04,100030999,19446760,4.0.10.0,1,3,end_of_study_questions_ifirst,demand_to,0,0,0,0,0,0,My responses were genuinely based on whether I was influenced or not,1,11592,0
100918,14:35:04,100030999,19446760,4.0.10.0,1,3,end_of_study_questions_ifirst,demand_pn,0,0,0,0,0,0,My responses were genuinely based on whether I was influenced or not,1,11592,0
100918,14:35:04,100030999,19446760,4.0.10.0,1,4,end_of_study_questions_ifirst,influence_general_to,0,0,0,0,0,0,none,1,11615,0
100918,14:35:04,100030999,19446760,4.0.10.0,1,4,end_of_study_questions_ifirst,influence_general_pn,0,0,0,0,0,0,none,1,11615,0
100918,14:35:04,100030999,19446760,4.0.10.0,1,5,end_of_study_questions_ifirst,intentionality_to,0,0,0,0,0,0,none,1,6836,0
100918,14:35:04,100030999,19446760,4.0.10.0,1,5,end_of_study_questions_ifirst,intentionality_pn,0,0,0,0,0,0,none,1,6836,0
100918,14:35:04,100030999,19446760,4.0.10.0,1,6,end_of_study_questions_ifirst,unintentionality_to,0,0,0,0,0,0,a few,1,7651,0
100918,14:35:04,100030999,19446760,4.0.10.0,1,6,end_of_study_questions_ifirst,unintentionality_pn,0,0,0,0,0,0,a few,1,7651,0
100918,14:35:04,100030999,19446760,4.0.10.0,1,7,end_of_study_questions_ifirst,self_exclusion_1,0,0,0,0,0,0,"Yes, use my data",1,5945,0
100918,14:35:04,100030999,19446760,4.0.10.0,1,7,end_of_study_questions_ifirst,self_exclusion_1other,0,0,0,0,0,0,,1,5945,0
100918,11:40:28,508497263,905721027,4.0.10.0,1,1,end_of_study_questions_ufirst,politics,0,0,0,0,0,0,somewhat republican,1,6094,0
100918,11:40:28,508497263,905721027,4.0.10.0,1,2,end_of_study_questions_ufirst,awareness,0,0,0,0,0,0,a few,1,9573,0
100918,11:40:28,508497263,905721027,4.0.10.0,1,3,end_of_study_questions_ufirst,demand_to,0,0,0,0,0,0,My responses were genuinely based on whether I was influenced or not,1,7401,0
100918,11:40:28,508497263,905721027,4.0.10.0,1,3,end_of_study_questions_ufirst,demand_pn,0,0,0,0,0,0,My responses were genuinely based on whether I was influenced or not,1,7401,0
100918,11:40:28,508497263,905721027,4.0.10.0,1,4,end_of_study_questions_ufirst,influence_general_to,0,0,0,0,0,0,less than half,1,11610,0
100918,11:40:28,508497263,905721027,4.0.10.0,1,4,end_of_study_questions_ufirst,influence_general_pn,0,0,0,0,0,0,a few,1,11610,0
100918,11:40:28,508497263,905721027,4.0.10.0,1,5,end_of_study_questions_ufirst,unintentionality_to,0,0,0,0,0,0,a few,1,4668,0
100918,11:40:28,508497263,905721027,4.0.10.0,1,5,end_of_study_questions_ufirst,unintentionality_pn,0,0,0,0,0,0,a few,1,4668,0
100918,11:40:28,508497263,905721027,4.0.10.0,1,6,end_of_study_questions_ufirst,intentionality_to,0,0,0,0,0,0,a few,1,7516,0
100918,11:40:28,508497263,905721027,4.0.10.0,1,6,end_of_study_questions_ufirst,intentionality_pn,0,0,0,0,0,0,less than half,1,7516,0
100918,11:40:28,508497263,905721027,4.0.10.0,1,7,end_of_study_questions_ufirst,self_exclusion_1,0,0,0,0,0,0,"Yes, use my data",1,3476,0
100918,11:40:28,508497263,905721027,4.0.10.0,1,7,end_of_study_questions_ufirst,self_exclusion_1other,0,0,0,0,0,0,,1,3476,0
100918,14:41:55,268661851,462350836,4.0.10.0,1,1,end_of_study_questions_ifirst,politics,0,0,0,0,0,0,a little democratic,1,4407,0
100918,14:41:55,268661851,462350836,4.0.10.0,1,2,end_of_study_questions_ifirst,awareness,0,0,0,0,0,0,most,1,15925,0
100918,14:41:55,268661851,462350836,4.0.10.0,1,3,end_of_study_questions_ifirst,demand_to,0,0,0,0,0,0,My responses were based on what I thought the researcher wanted me to say,1,9525,0
100918,14:41:55,268661851,462350836,4.0.10.0,1,3,end_of_study_questions_ifirst,demand_pn,0,0,0,0,0,0,My responses were based on what I thought the researcher wanted me to say,1,9525,0
100918,14:41:55,268661851,462350836,4.0.10.0,1,4,end_of_study_questions_ifirst,influence_general_to,0,0,0,0,0,0,a few,1,5740,0
100918,14:41:55,268661851,462350836,4.0.10.0,1,4,end_of_study_questions_ifirst,influence_general_pn,0,0,0,0,0,0,a few,1,5740,0
100918,14:41:55,268661851,462350836,4.0.10.0,1,5,end_of_study_questions_ifirst,intentionality_to,0,0,0,0,0,0,less than half,1,4367,0
100918,14:41:55,268661851,462350836,4.0.10.0,1,5,end_of_study_questions_ifirst,intentionality_pn,0,0,0,0,0,0,I don't know,1,4367,0
100918,14:41:55,268661851,462350836,4.0.10.0,1,6,end_of_study_questions_ifirst,unintentionality_to,0,0,0,0,0,0,none,1,3767,0
100918,14:41:55,268661851,462350836,4.0.10.0,1,6,end_of_study_questions_ifirst,unintentionality_pn,0,0,0,0,0,0,I don't know,1,3767,0
100918,14:41:55,268661851,462350836,4.0.10.0,1,7,end_of_study_questions_ifirst,self_exclusion_1,0,0,0,0,0,0,"Yes, use my data",1,2629,0
100918,14:41:55,268661851,462350836,4.0.10.0,1,7,end_of_study_questions_ifirst,self_exclusion_1other,0,0,0,0,0,0,,1,2629,0
100918,14:43:05,599086507,894732663,4.0.10.0,1,1,end_of_study_questions_ufirst,politics,0,0,0,0,0,0,very republican,1,4007,0
100918,14:43:05,599086507,894732663,4.0.10.0,1,2,end_of_study_questions_ufirst,awareness,0,0,0,0,0,0,all,1,17374,0
100918,14:43:05,599086507,894732663,4.0.10.0,1,3,end_of_study_questions_ufirst,demand_to,0,0,0,0,0,0,I'm not sure or don't know why I responded the way I did,1,13341,0
100918,14:43:05,599086507,894732663,4.0.10.0,1,3,end_of_study_questions_ufirst,demand_pn,0,0,0,0,0,0,I'm not sure or don't know why I responded the way I did,1,13341,0
100918,14:43:05,599086507,894732663,4.0.10.0,1,4,end_of_study_questions_ufirst,influence_general_to,0,0,0,0,0,0,a few,1,12613,0
100918,14:43:05,599086507,894732663,4.0.10.0,1,4,end_of_study_questions_ufirst,influence_general_pn,0,0,0,0,0,0,a few,1,12613,0
100918,14:43:05,599086507,894732663,4.0.10.0,1,5,end_of_study_questions_ufirst,unintentionality_to,0,0,0,0,0,0,I don't know,1,13101,0
100918,14:43:05,599086507,894732663,4.0.10.0,1,5,end_of_study_questions_ufirst,unintentionality_pn,0,0,0,0,0,0,I don't know,1,13101,0
100918,14:43:05,599086507,894732663,4.0.10.0,1,6,end_of_study_questions_ufirst,intentionality_to,0,0,0,0,0,0,a few,1,16935,0
100918,14:43:05,599086507,894732663,4.0.10.0,1,6,end_of_study_questions_ufirst,intentionality_pn,0,0,0,0,0,0,a few,1,16935,0
100918,14:43:05,599086507,894732663,4.0.10.0,1,7,end_of_study_questions_ufirst,self_exclusion_1,0,0,0,0,0,0,"Yes, use my data",1,4025,0
100918,14:43:05,599086507,894732663,4.0.10.0,1,7,end_of_study_questions_ufirst,self_exclusion_1other,0,0,0,0,0,0,,1,4025,0
100918,14:50:15,550287683,174773181,4.0.10.0,1,1,end_of_study_questions_ufirst,politics,0,0,0,0,0,0,somewhat republican,1,4544,0
100918,14:50:15,550287683,174773181,4.0.10.0,1,2,end_of_study_questions_ufirst,awareness,0,0,0,0,0,0,more than half,1,22563,0
100918,14:50:15,550287683,174773181,4.0.10.0,1,3,end_of_study_questions_ufirst,demand_to,0,0,0,0,0,0,My responses were genuinely based on whether I was influenced or not,1,12322,0
100918,14:50:15,550287683,174773181,4.0.10.0,1,3,end_of_study_questions_ufirst,demand_pn,0,0,0,0,0,0,My responses were genuinely based on whether I was influenced or not,1,12322,0
100918,14:50:15,550287683,174773181,4.0.10.0,1,4,end_of_study_questions_ufirst,influence_general_to,0,0,0,0,0,0,all,1,9191,0
100918,14:50:15,550287683,174773181,4.0.10.0,1,4,end_of_study_questions_ufirst,influence_general_pn,0,0,0,0,0,0,most,1,9191,0
100918,14:50:15,550287683,174773181,4.0.10.0,1,5,end_of_study_questions_ufirst,unintentionality_to,0,0,0,0,0,0,most,1,5712,0
100918,14:50:15,550287683,174773181,4.0.10.0,1,5,end_of_study_questions_ufirst,unintentionality_pn,0,0,0,0,0,0,most,1,5712,0
100918,14:50:15,550287683,174773181,4.0.10.0,1,6,end_of_study_questions_ufirst,intentionality_to,0,0,0,0,0,0,about half,1,8281,0
100918,14:50:15,550287683,174773181,4.0.10.0,1,6,end_of_study_questions_ufirst,intentionality_pn,0,0,0,0,0,0,about half,1,8281,0
100918,14:50:15,550287683,174773181,4.0.10.0,1,7,end_of_study_questions_ufirst,self_exclusion_1,0,0,0,0,0,0,"Yes, use my data",1,8940,0
100918,14:50:15,550287683,174773181,4.0.10.0,1,7,end_of_study_questions_ufirst,self_exclusion_1other,0,0,0,0,0,0,,1,8940,0
100918,11:50:57,980917464,413541867,4.0.10.0,1,1,end_of_study_questions_ufirst,politics,0,0,0,0,0,0,a little republican,1,3506,0
100918,11:50:57,980917464,413541867,4.0.10.0,1,2,end_of_study_questions_ufirst,awareness,0,0,0,0,0,0,all,1,8935,0
100918,11:50:57,980917464,413541867,4.0.10.0,1,3,end_of_study_questions_ufirst,demand_to,0,0,0,0,0,0,My responses were genuinely based on whether I was influenced or not,1,14203,0
100918,11:50:57,980917464,413541867,4.0.10.0,1,3,end_of_study_questions_ufirst,demand_pn,0,0,0,0,0,0,My responses were genuinely based on whether I was influenced or not,1,14203,0
100918,11:50:57,980917464,413541867,4.0.10.0,1,4,end_of_study_questions_ufirst,influence_general_to,0,0,0,0,0,0,a few,1,6861,0
100918,11:50:57,980917464,413541867,4.0.10.0,1,4,end_of_study_questions_ufirst,influence_general_pn,0,0,0,0,0,0,less than half,1,6861,0
100918,11:50:57,980917464,413541867,4.0.10.0,1,5,end_of_study_questions_ufirst,unintentionality_to,0,0,0,0,0,0,less than half,1,6003,0
100918,11:50:57,980917464,413541867,4.0.10.0,1,5,end_of_study_questions_ufirst,unintentionality_pn,0,0,0,0,0,0,less than half,1,6003,0
100918,11:50:57,980917464,413541867,4.0.10.0,1,6,end_of_study_questions_ufirst,intentionality_to,0,0,0,0,0,0,a few,1,5530,0
100918,11:50:57,980917464,413541867,4.0.10.0,1,6,end_of_study_questions_ufirst,intentionality_pn,0,0,0,0,0,0,a few,1,5530,0
100918,11:50:57,980917464,413541867,4.0.10.0,1,7,end_of_study_questions_ufirst,self_exclusion_1,0,0,0,0,0,0,"Yes, use my data",1,4388,0
100918,11:50:57,980917464,413541867,4.0.10.0,1,7,end_of_study_questions_ufirst,self_exclusion_1other,0,0,0,0,0,0,,1,4388,0
100918,14:50:32,905334963,562784706,4.0.10.0,1,1,end_of_study_questions_ifirst,politics,0,0,0,0,0,0,somewhat republican,1,9237,0
100918,14:50:32,905334963,562784706,4.0.10.0,1,2,end_of_study_questions_ifirst,awareness,0,0,0,0,0,0,all,1,22603,0
100918,14:50:32,905334963,562784706,4.0.10.0,1,3,end_of_study_questions_ifirst,demand_to,0,0,0,0,0,0,My responses were genuinely based on whether I was influenced or not,1,20280,0
100918,14:50:32,905334963,562784706,4.0.10.0,1,3,end_of_study_questions_ifirst,demand_pn,0,0,0,0,0,0,My responses were genuinely based on whether I was influenced or not,1,20280,0
100918,14:50:32,905334963,562784706,4.0.10.0,1,4,end_of_study_questions_ifirst,influence_general_to,0,0,0,0,0,0,a few,1,24323,0
100918,14:50:32,905334963,562784706,4.0.10.0,1,4,end_of_study_questions_ifirst,influence_general_pn,0,0,0,0,0,0,a few,1,24323,0
100918,14:50:32,905334963,562784706,4.0.10.0,1,5,end_of_study_questions_ifirst,intentionality_to,0,0,0,0,0,0,none,1,10380,0
100918,14:50:32,905334963,562784706,4.0.10.0,1,5,end_of_study_questions_ifirst,intentionality_pn,0,0,0,0,0,0,none,1,10380,0
100918,14:50:32,905334963,562784706,4.0.10.0,1,6,end_of_study_questions_ifirst,unintentionality_to,0,0,0,0,0,0,a few,1,11779,0
100918,14:50:32,905334963,562784706,4.0.10.0,1,6,end_of_study_questions_ifirst,unintentionality_pn,0,0,0,0,0,0,a few,1,11779,0
100918,14:50:32,905334963,562784706,4.0.10.0,1,7,end_of_study_questions_ifirst,self_exclusion_1,0,0,0,0,0,0,"Yes, use my data",1,15169,0
100918,14:50:32,905334963,562784706,4.0.10.0,1,7,end_of_study_questions_ifirst,self_exclusion_1other,0,0,0,0,0,0,,1,15169,0
100918,12:05:21,612765311,225367765,4.0.10.0,1,1,end_of_study_questions_ufirst,politics,0,0,0,0,0,0,very republican,1,8382,0
100918,12:05:21,612765311,225367765,4.0.10.0,1,2,end_of_study_questions_ufirst,awareness,0,0,0,0,0,0,more than half,1,8770,0
100918,12:05:21,612765311,225367765,4.0.10.0,1,3,end_of_study_questions_ufirst,demand_to,0,0,0,0,0,0,My responses were genuinely based on whether I was influenced or not,1,4750,0
100918,12:05:21,612765311,225367765,4.0.10.0,1,3,end_of_study_questions_ufirst,demand_pn,0,0,0,0,0,0,My responses were genuinely based on whether I was influenced or not,1,4750,0
100918,12:05:21,612765311,225367765,4.0.10.0,1,4,end_of_study_questions_ufirst,influence_general_to,0,0,0,0,0,0,less than half,1,4957,0
100918,12:05:21,612765311,225367765,4.0.10.0,1,4,end_of_study_questions_ufirst,influence_general_pn,0,0,0,0,0,0,a few,1,4957,0
100918,12:05:21,612765311,225367765,4.0.10.0,1,5,end_of_study_questions_ufirst,unintentionality_to,0,0,0,0,0,0,less than half,1,7603,0
100918,12:05:21,612765311,225367765,4.0.10.0,1,5,end_of_study_questions_ufirst,unintentionality_pn,0,0,0,0,0,0,a few,1,7603,0
100918,12:05:21,612765311,225367765,4.0.10.0,1,6,end_of_study_questions_ufirst,intentionality_to,0,0,0,0,0,0,a few,1,4891,0
100918,12:05:21,612765311,225367765,4.0.10.0,1,6,end_of_study_questions_ufirst,intentionality_pn,0,0,0,0,0,0,a few,1,4891,0
100918,12:05:21,612765311,225367765,4.0.10.0,1,7,end_of_study_questions_ufirst,self_exclusion_1,0,0,0,0,0,0,"Yes, use my data",1,2053,0
100918,12:05:21,612765311,225367765,4.0.10.0,1,7,end_of_study_questions_ufirst,self_exclusion_1other,0,0,0,0,0,0,,1,2053,0
100918,14:05:47,73827850,167200951,4.0.10.0,1,1,end_of_study_questions_ufirst,politics,0,0,0,0,0,0,a little republican,1,8480,0
100918,14:05:47,73827850,167200951,4.0.10.0,1,2,end_of_study_questions_ufirst,awareness,0,0,0,0,0,0,less than half,1,21681,0
100918,14:05:47,73827850,167200951,4.0.10.0,1,3,end_of_study_questions_ufirst,demand_to,0,0,0,0,0,0,My responses were genuinely based on whether I was influenced or not,1,32661,0
100918,14:05:47,73827850,167200951,4.0.10.0,1,3,end_of_study_questions_ufirst,demand_pn,0,0,0,0,0,0,My responses were genuinely based on whether I was influenced or not,1,32661,0
100918,14:05:47,73827850,167200951,4.0.10.0,1,4,end_of_study_questions_ufirst,influence_general_to,0,0,0,0,0,0,none,1,22791,0
100918,14:05:47,73827850,167200951,4.0.10.0,1,4,end_of_study_questions_ufirst,influence_general_pn,0,0,0,0,0,0,none,1,22791,0
100918,14:05:47,73827850,167200951,4.0.10.0,1,5,end_of_study_questions_ufirst,unintentionality_to,0,0,0,0,0,0,all,1,12735,0
100918,14:05:47,73827850,167200951,4.0.10.0,1,5,end_of_study_questions_ufirst,unintentionality_pn,0,0,0,0,0,0,all,1,12735,0
100918,14:05:47,73827850,167200951,4.0.10.0,1,6,end_of_study_questions_ufirst,intentionality_to,0,0,0,0,0,0,none,1,10940,0
100918,14:05:47,73827850,167200951,4.0.10.0,1,6,end_of_study_questions_ufirst,intentionality_pn,0,0,0,0,0,0,none,1,10940,0
100918,14:05:47,73827850,167200951,4.0.10.0,1,7,end_of_study_questions_ufirst,self_exclusion_1,0,0,0,0,0,0,"Yes, use my data",1,21593,0
100918,14:05:47,73827850,167200951,4.0.10.0,1,7,end_of_study_questions_ufirst,self_exclusion_1other,0,0,0,0,0,0,,1,21593,0
100918,12:18:24,345873910,981379283,4.0.10.0,1,1,end_of_study_questions_ufirst,politics,0,0,0,0,0,0,somewhat republican,1,4966,0
100918,12:18:24,345873910,981379283,4.0.10.0,1,2,end_of_study_questions_ufirst,awareness,0,0,0,0,0,0,all,1,18904,0
100918,12:18:24,345873910,981379283,4.0.10.0,1,3,end_of_study_questions_ufirst,demand_to,0,0,0,0,0,0,My responses were genuinely based on whether I was influenced or not,1,19835,0
100918,12:18:24,345873910,981379283,4.0.10.0,1,3,end_of_study_questions_ufirst,demand_pn,0,0,0,0,0,0,My responses were genuinely based on whether I was influenced or not,1,19835,0
100918,12:18:24,345873910,981379283,4.0.10.0,1,4,end_of_study_questions_ufirst,influence_general_to,0,0,0,0,0,0,a few,1,30016,0
100918,12:18:24,345873910,981379283,4.0.10.0,1,4,end_of_study_questions_ufirst,influence_general_pn,0,0,0,0,0,0,a few,1,30016,0
100918,12:18:24,345873910,981379283,4.0.10.0,1,5,end_of_study_questions_ufirst,unintentionality_to,0,0,0,0,0,0,none,1,11783,0
100918,12:18:24,345873910,981379283,4.0.10.0,1,5,end_of_study_questions_ufirst,unintentionality_pn,0,0,0,0,0,0,none,1,11783,0
100918,12:18:24,345873910,981379283,4.0.10.0,1,6,end_of_study_questions_ufirst,intentionality_to,0,0,0,0,0,0,all,1,18087,0
100918,12:18:24,345873910,981379283,4.0.10.0,1,6,end_of_study_questions_ufirst,intentionality_pn,0,0,0,0,0,0,none,1,18087,0
100918,12:18:24,345873910,981379283,4.0.10.0,1,7,end_of_study_questions_ufirst,self_exclusion_1,0,0,0,0,0,0,"Yes, use my data",1,8271,0
100918,12:18:24,345873910,981379283,4.0.10.0,1,7,end_of_study_questions_ufirst,self_exclusion_1other,0,0,0,0,0,0,,1,8271,0
100918,15:31:33,65297956,637314706,4.0.10.0,1,1,end_of_study_questions_ifirst,politics,0,0,0,0,0,0,somewhat republican,1,5088,0
100918,15:31:33,65297956,637314706,4.0.10.0,1,2,end_of_study_questions_ifirst,awareness,0,0,0,0,0,0,all,1,8384,0
100918,15:31:33,65297956,637314706,4.0.10.0,1,3,end_of_study_questions_ifirst,demand_to,0,0,0,0,0,0,I'm not sure or don't know why I responded the way I did,1,8098,0
100918,15:31:33,65297956,637314706,4.0.10.0,1,3,end_of_study_questions_ifirst,demand_pn,0,0,0,0,0,0,I'm not sure or don't know why I responded the way I did,1,8098,0
100918,15:31:33,65297956,637314706,4.0.10.0,1,4,end_of_study_questions_ifirst,influence_general_to,0,0,0,0,0,0,most,1,10482,0
100918,15:31:33,65297956,637314706,4.0.10.0,1,4,end_of_study_questions_ifirst,influence_general_pn,0,0,0,0,0,0,most,1,10482,0
100918,15:31:33,65297956,637314706,4.0.10.0,1,5,end_of_study_questions_ifirst,intentionality_to,0,0,0,0,0,0,I don't know,1,12775,0
100918,15:31:33,65297956,637314706,4.0.10.0,1,5,end_of_study_questions_ifirst,intentionality_pn,0,0,0,0,0,0,I don't know,1,12775,0
100918,15:31:33,65297956,637314706,4.0.10.0,1,6,end_of_study_questions_ifirst,unintentionality_to,0,0,0,0,0,0,I don't know,1,5890,0
100918,15:31:33,65297956,637314706,4.0.10.0,1,6,end_of_study_questions_ifirst,unintentionality_pn,0,0,0,0,0,0,I don't know,1,5890,0
100918,15:31:33,65297956,637314706,4.0.10.0,1,7,end_of_study_questions_ifirst,self_exclusion_1,0,0,0,0,0,0,"Yes, use my data",1,3642,0
100918,15:31:33,65297956,637314706,4.0.10.0,1,7,end_of_study_questions_ifirst,self_exclusion_1other,0,0,0,0,0,0,,1,3642,0
100918,15:30:32,88069358,590792396,4.0.10.0,1,1,end_of_study_questions_ifirst,politics,0,0,0,0,0,0,very republican,1,8270,0
100918,15:30:32,88069358,590792396,4.0.10.0,1,2,end_of_study_questions_ifirst,awareness,0,0,0,0,0,0,all,1,57623,0
100918,15:30:32,88069358,590792396,4.0.10.0,1,3,end_of_study_questions_ifirst,demand_to,0,0,0,0,0,0,My responses were genuinely based on whether I was influenced or not,1,26495,0
100918,15:30:32,88069358,590792396,4.0.10.0,1,3,end_of_study_questions_ifirst,demand_pn,0,0,0,0,0,0,My responses were genuinely based on whether I was influenced or not,1,26495,0
100918,15:30:32,88069358,590792396,4.0.10.0,1,4,end_of_study_questions_ifirst,influence_general_to,0,0,0,0,0,0,none,1,29885,0
100918,15:30:32,88069358,590792396,4.0.10.0,1,4,end_of_study_questions_ifirst,influence_general_pn,0,0,0,0,0,0,a few,1,29885,0
100918,15:30:32,88069358,590792396,4.0.10.0,1,5,end_of_study_questions_ifirst,intentionality_to,0,0,0,0,0,0,none,1,17180,0
100918,15:30:32,88069358,590792396,4.0.10.0,1,5,end_of_study_questions_ifirst,intentionality_pn,0,0,0,0,0,0,none,1,17180,0
100918,15:30:32,88069358,590792396,4.0.10.0,1,6,end_of_study_questions_ifirst,unintentionality_to,0,0,0,0,0,0,none,1,13753,0
100918,15:30:32,88069358,590792396,4.0.10.0,1,6,end_of_study_questions_ifirst,unintentionality_pn,0,0,0,0,0,0,none,1,13753,0
100918,15:30:32,88069358,590792396,4.0.10.0,1,7,end_of_study_questions_ifirst,self_exclusion_1,0,0,0,0,0,0,"Yes, use my data",1,5135,0
100918,15:30:32,88069358,590792396,4.0.10.0,1,7,end_of_study_questions_ifirst,self_exclusion_1other,0,0,0,0,0,0,,1,5135,0
100918,13:27:36,572625464,495671078,4.0.10.0,1,1,end_of_study_questions_ifirst,politics,0,0,0,0,0,0,a little republican,1,5544,0
100918,13:27:36,572625464,495671078,4.0.10.0,1,2,end_of_study_questions_ifirst,awareness,0,0,0,0,0,0,all,1,25599,0
100918,13:27:36,572625464,495671078,4.0.10.0,1,3,end_of_study_questions_ifirst,demand_to,0,0,0,0,0,0,My responses were genuinely based on whether I was influenced or not,1,14850,0
100918,13:27:36,572625464,495671078,4.0.10.0,1,3,end_of_study_questions_ifirst,demand_pn,0,0,0,0,0,0,My responses were genuinely based on whether I was influenced or not,1,14850,0
100918,13:27:36,572625464,495671078,4.0.10.0,1,4,end_of_study_questions_ifirst,influence_general_to,0,0,0,0,0,0,about half,1,20321,0
100918,13:27:36,572625464,495671078,4.0.10.0,1,4,end_of_study_questions_ifirst,influence_general_pn,0,0,0,0,0,0,a few,1,20321,0
100918,13:27:36,572625464,495671078,4.0.10.0,1,5,end_of_study_questions_ifirst,intentionality_to,0,0,0,0,0,0,a few,1,14758,0
100918,13:27:36,572625464,495671078,4.0.10.0,1,5,end_of_study_questions_ifirst,intentionality_pn,0,0,0,0,0,0,a few,1,14758,0
100918,13:27:36,572625464,495671078,4.0.10.0,1,6,end_of_study_questions_ifirst,unintentionality_to,0,0,0,0,0,0,less than half,1,17129,0
100918,13:27:36,572625464,495671078,4.0.10.0,1,6,end_of_study_questions_ifirst,unintentionality_pn,0,0,0,0,0,0,less than half,1,17129,0
100918,13:27:36,572625464,495671078,4.0.10.0,1,7,end_of_study_questions_ifirst,self_exclusion_1,0,0,0,0,0,0,"Yes, use my data",1,6748,0
100918,13:27:36,572625464,495671078,4.0.10.0,1,7,end_of_study_questions_ifirst,self_exclusion_1other,0,0,0,0,0,0,,1,6748,0
100918,15:33:49,498785242,552537347,4.0.10.0,1,1,end_of_study_questions_ufirst,politics,0,0,0,0,0,0,a little republican,1,3672,0
100918,15:33:49,498785242,552537347,4.0.10.0,1,2,end_of_study_questions_ufirst,awareness,0,0,0,0,0,0,all,1,9820,0
100918,15:33:49,498785242,552537347,4.0.10.0,1,3,end_of_study_questions_ufirst,demand_to,0,0,0,0,0,0,My responses were genuinely based on whether I was influenced or not,1,12563,0
100918,15:33:49,498785242,552537347,4.0.10.0,1,3,end_of_study_questions_ufirst,demand_pn,0,0,0,0,0,0,My responses were genuinely based on whether I was influenced or not,1,12563,0
100918,15:33:49,498785242,552537347,4.0.10.0,1,4,end_of_study_questions_ufirst,influence_general_to,0,0,0,0,0,0,none,1,6329,0
100918,15:33:49,498785242,552537347,4.0.10.0,1,4,end_of_study_questions_ufirst,influence_general_pn,0,0,0,0,0,0,none,1,6329,0
100918,15:33:49,498785242,552537347,4.0.10.0,1,5,end_of_study_questions_ufirst,unintentionality_to,0,0,0,0,0,0,none,1,5282,0
100918,15:33:49,498785242,552537347,4.0.10.0,1,5,end_of_study_questions_ufirst,unintentionality_pn,0,0,0,0,0,0,none,1,5282,0
100918,15:33:49,498785242,552537347,4.0.10.0,1,6,end_of_study_questions_ufirst,intentionality_to,0,0,0,0,0,0,none,1,5151,0
100918,15:33:49,498785242,552537347,4.0.10.0,1,6,end_of_study_questions_ufirst,intentionality_pn,0,0,0,0,0,0,none,1,5151,0
100918,15:33:49,498785242,552537347,4.0.10.0,1,7,end_of_study_questions_ufirst,self_exclusion_1,0,0,0,0,0,0,"Yes, use my data",1,3143,0
100918,15:33:49,498785242,552537347,4.0.10.0,1,7,end_of_study_questions_ufirst,self_exclusion_1other,0,0,0,0,0,0,,1,3143,0
100918,15:36:09,358265830,295215708,4.0.10.0,1,1,end_of_study_questions_ifirst,politics,0,0,0,0,0,0,somewhat republican,1,5421,0
100918,15:36:09,358265830,295215708,4.0.10.0,1,2,end_of_study_questions_ifirst,awareness,0,0,0,0,0,0,all,1,18803,0
100918,15:36:09,358265830,295215708,4.0.10.0,1,3,end_of_study_questions_ifirst,demand_to,0,0,0,0,0,0,My responses were genuinely based on whether I was influenced or not,1,17113,0
100918,15:36:09,358265830,295215708,4.0.10.0,1,3,end_of_study_questions_ifirst,demand_pn,0,0,0,0,0,0,My responses were genuinely based on whether I was influenced or not,1,17113,0
100918,15:36:09,358265830,295215708,4.0.10.0,1,4,end_of_study_questions_ifirst,influence_general_to,0,0,0,0,0,0,a few,1,15459,0
100918,15:36:09,358265830,295215708,4.0.10.0,1,4,end_of_study_questions_ifirst,influence_general_pn,0,0,0,0,0,0,a few,1,15459,0
100918,15:36:09,358265830,295215708,4.0.10.0,1,5,end_of_study_questions_ifirst,intentionality_to,0,0,0,0,0,0,most,1,23982,0
100918,15:36:09,358265830,295215708,4.0.10.0,1,5,end_of_study_questions_ifirst,intentionality_pn,0,0,0,0,0,0,most,1,23982,0
100918,15:36:09,358265830,295215708,4.0.10.0,1,6,end_of_study_questions_ifirst,unintentionality_to,0,0,0,0,0,0,a few,1,10612,0
100918,15:36:09,358265830,295215708,4.0.10.0,1,6,end_of_study_questions_ifirst,unintentionality_pn,0,0,0,0,0,0,a few,1,10612,0
100918,15:36:09,358265830,295215708,4.0.10.0,1,7,end_of_study_questions_ifirst,self_exclusion_1,0,0,0,0,0,0,"Yes, use my data",1,4866,0
100918,15:36:09,358265830,295215708,4.0.10.0,1,7,end_of_study_questions_ifirst,self_exclusion_1other,0,0,0,0,0,0,,1,4866,0
100918,15:44:14,849392372,471175339,4.0.10.0,1,1,end_of_study_questions_ufirst,politics,0,0,0,0,0,0,very republican,1,4503,0
100918,15:44:14,849392372,471175339,4.0.10.0,1,2,end_of_study_questions_ufirst,awareness,0,0,0,0,0,0,all,1,25532,0
100918,15:44:14,849392372,471175339,4.0.10.0,1,3,end_of_study_questions_ufirst,demand_to,0,0,0,0,0,0,My responses were genuinely based on whether I was influenced or not,1,19261,0
100918,15:44:14,849392372,471175339,4.0.10.0,1,3,end_of_study_questions_ufirst,demand_pn,0,0,0,0,0,0,My responses were genuinely based on whether I was influenced or not,1,19261,0
100918,15:44:14,849392372,471175339,4.0.10.0,1,4,end_of_study_questions_ufirst,influence_general_to,0,0,0,0,0,0,a few,1,11766,0
100918,15:44:14,849392372,471175339,4.0.10.0,1,4,end_of_study_questions_ufirst,influence_general_pn,0,0,0,0,0,0,most,1,11766,0
100918,15:44:14,849392372,471175339,4.0.10.0,1,5,end_of_study_questions_ufirst,unintentionality_to,0,0,0,0,0,0,a few,1,9488,0
100918,15:44:14,849392372,471175339,4.0.10.0,1,5,end_of_study_questions_ufirst,unintentionality_pn,0,0,0,0,0,0,most,1,9488,0
100918,15:44:14,849392372,471175339,4.0.10.0,1,6,end_of_study_questions_ufirst,intentionality_to,0,0,0,0,0,0,I don't know,1,8597,0
100918,15:44:14,849392372,471175339,4.0.10.0,1,6,end_of_study_questions_ufirst,intentionality_pn,0,0,0,0,0,0,I don't know,1,8597,0
100918,15:44:14,849392372,471175339,4.0.10.0,1,7,end_of_study_questions_ufirst,self_exclusion_1,0,0,0,0,0,0,"Yes, use my data",1,17111,0
100918,15:44:14,849392372,471175339,4.0.10.0,1,7,end_of_study_questions_ufirst,self_exclusion_1other,0,0,0,0,0,0,,1,17111,0
100918,14:51:49,112753385,862395786,4.0.10.0,1,1,end_of_study_questions_ifirst,politics,0,0,0,0,0,0,very republican,1,4853,0
100918,14:51:49,112753385,862395786,4.0.10.0,1,2,end_of_study_questions_ifirst,awareness,0,0,0,0,0,0,most,1,17475,0
100918,14:51:49,112753385,862395786,4.0.10.0,1,3,end_of_study_questions_ifirst,demand_to,0,0,0,0,0,0,My responses were genuinely based on whether I was influenced or not,1,16906,0
100918,14:51:49,112753385,862395786,4.0.10.0,1,3,end_of_study_questions_ifirst,demand_pn,0,0,0,0,0,0,My responses were genuinely based on whether I was influenced or not,1,16906,0
100918,14:51:49,112753385,862395786,4.0.10.0,1,4,end_of_study_questions_ifirst,influence_general_to,0,0,0,0,0,0,a few,1,19262,0
100918,14:51:49,112753385,862395786,4.0.10.0,1,4,end_of_study_questions_ifirst,influence_general_pn,0,0,0,0,0,0,a few,1,19262,0
100918,14:51:49,112753385,862395786,4.0.10.0,1,5,end_of_study_questions_ifirst,intentionality_to,0,0,0,0,0,0,none,1,14458,0
100918,14:51:49,112753385,862395786,4.0.10.0,1,5,end_of_study_questions_ifirst,intentionality_pn,0,0,0,0,0,0,none,1,14458,0
100918,14:51:49,112753385,862395786,4.0.10.0,1,6,end_of_study_questions_ifirst,unintentionality_to,0,0,0,0,0,0,less than half,1,11775,0
100918,14:51:49,112753385,862395786,4.0.10.0,1,6,end_of_study_questions_ifirst,unintentionality_pn,0,0,0,0,0,0,a few,1,11775,0
100918,14:51:49,112753385,862395786,4.0.10.0,1,7,end_of_study_questions_ifirst,self_exclusion_1,0,0,0,0,0,0,"Yes, use my data",1,3453,0
100918,14:51:49,112753385,862395786,4.0.10.0,1,7,end_of_study_questions_ifirst,self_exclusion_1other,0,0,0,0,0,0,,1,3453,0
100918,22:01:00,556422066,20886049,4.0.10.0,1,1,end_of_study_questions_ufirst,politics,0,0,0,0,0,0,a little republican,1,7852,0
100918,22:01:00,556422066,20886049,4.0.10.0,1,2,end_of_study_questions_ufirst,awareness,0,0,0,0,0,0,most,1,37637,0
100918,22:01:00,556422066,20886049,4.0.10.0,1,3,end_of_study_questions_ufirst,demand_to,0,0,0,0,0,0,My responses were genuinely based on whether I was influenced or not,1,17319,0
100918,22:01:00,556422066,20886049,4.0.10.0,1,3,end_of_study_questions_ufirst,demand_pn,0,0,0,0,0,0,My responses were genuinely based on whether I was influenced or not,1,17319,0
100918,22:01:00,556422066,20886049,4.0.10.0,1,4,end_of_study_questions_ufirst,influence_general_to,0,0,0,0,0,0,a few,1,11553,0
100918,22:01:00,556422066,20886049,4.0.10.0,1,4,end_of_study_questions_ufirst,influence_general_pn,0,0,0,0,0,0,a few,1,11553,0
100918,22:01:00,556422066,20886049,4.0.10.0,1,5,end_of_study_questions_ufirst,unintentionality_to,0,0,0,0,0,0,less than half,1,15320,0
100918,22:01:00,556422066,20886049,4.0.10.0,1,5,end_of_study_questions_ufirst,unintentionality_pn,0,0,0,0,0,0,a few,1,15320,0
100918,22:01:00,556422066,20886049,4.0.10.0,1,6,end_of_study_questions_ufirst,intentionality_to,0,0,0,0,0,0,none,1,15320,0
100918,22:01:00,556422066,20886049,4.0.10.0,1,6,end_of_study_questions_ufirst,intentionality_pn,0,0,0,0,0,0,none,1,15320,0
100918,22:01:00,556422066,20886049,4.0.10.0,1,7,end_of_study_questions_ufirst,self_exclusion_1,0,0,0,0,0,0,"Yes, use my data",1,15303,0
100918,22:01:00,556422066,20886049,4.0.10.0,1,7,end_of_study_questions_ufirst,self_exclusion_1other,0,0,0,0,0,0,,1,15303,0
100918,16:24:11,284550005,769193797,4.0.10.0,1,1,end_of_study_questions_ufirst,politics,0,0,0,0,0,0,a little republican,1,5896,0
100918,16:24:11,284550005,769193797,4.0.10.0,1,2,end_of_study_questions_ufirst,awareness,0,0,0,0,0,0,all,1,11073,0
100918,16:24:11,284550005,769193797,4.0.10.0,1,3,end_of_study_questions_ufirst,demand_to,0,0,0,0,0,0,My responses were genuinely based on whether I was influenced or not,1,10861,0
100918,16:24:11,284550005,769193797,4.0.10.0,1,3,end_of_study_questions_ufirst,demand_pn,0,0,0,0,0,0,My responses were genuinely based on whether I was influenced or not,1,10861,0
100918,16:24:11,284550005,769193797,4.0.10.0,1,4,end_of_study_questions_ufirst,influence_general_to,0,0,0,0,0,0,a few,1,10328,0
100918,16:24:11,284550005,769193797,4.0.10.0,1,4,end_of_study_questions_ufirst,influence_general_pn,0,0,0,0,0,0,less than half,1,10328,0
100918,16:24:11,284550005,769193797,4.0.10.0,1,5,end_of_study_questions_ufirst,unintentionality_to,0,0,0,0,0,0,less than half,1,7645,0
100918,16:24:11,284550005,769193797,4.0.10.0,1,5,end_of_study_questions_ufirst,unintentionality_pn,0,0,0,0,0,0,less than half,1,7645,0
100918,16:24:11,284550005,769193797,4.0.10.0,1,6,end_of_study_questions_ufirst,intentionality_to,0,0,0,0,0,0,none,1,9348,0
100918,16:24:11,284550005,769193797,4.0.10.0,1,6,end_of_study_questions_ufirst,intentionality_pn,0,0,0,0,0,0,none,1,9348,0
100918,16:24:11,284550005,769193797,4.0.10.0,1,7,end_of_study_questions_ufirst,self_exclusion_1,0,0,0,0,0,0,"Yes, use my data",1,3845,0
100918,16:24:11,284550005,769193797,4.0.10.0,1,7,end_of_study_questions_ufirst,self_exclusion_1other,0,0,0,0,0,0,,1,3845,0
100918,16:28:17,375625432,57742112,4.0.10.0,1,1,end_of_study_questions_ifirst,politics,0,0,0,0,0,0,a little republican,1,4369,0
100918,16:28:17,375625432,57742112,4.0.10.0,1,2,end_of_study_questions_ifirst,awareness,0,0,0,0,0,0,less than half,1,7725,0
100918,16:28:17,375625432,57742112,4.0.10.0,1,3,end_of_study_questions_ifirst,demand_to,0,0,0,0,0,0,My responses were genuinely based on whether I was influenced or not,1,11072,0
100918,16:28:17,375625432,57742112,4.0.10.0,1,3,end_of_study_questions_ifirst,demand_pn,0,0,0,0,0,0,My responses were genuinely based on whether I was influenced or not,1,11072,0
100918,16:28:17,375625432,57742112,4.0.10.0,1,4,end_of_study_questions_ifirst,influence_general_to,0,0,0,0,0,0,more than half,1,10687,0
100918,16:28:17,375625432,57742112,4.0.10.0,1,4,end_of_study_questions_ifirst,influence_general_pn,0,0,0,0,0,0,less than half,1,10687,0
100918,16:28:17,375625432,57742112,4.0.10.0,1,5,end_of_study_questions_ifirst,intentionality_to,0,0,0,0,0,0,more than half,1,3838,0
100918,16:28:17,375625432,57742112,4.0.10.0,1,5,end_of_study_questions_ifirst,intentionality_pn,0,0,0,0,0,0,about half,1,3838,0
100918,16:28:17,375625432,57742112,4.0.10.0,1,6,end_of_study_questions_ifirst,unintentionality_to,0,0,0,0,0,0,about half,1,3267,0
100918,16:28:17,375625432,57742112,4.0.10.0,1,6,end_of_study_questions_ifirst,unintentionality_pn,0,0,0,0,0,0,less than half,1,3267,0
100918,16:28:17,375625432,57742112,4.0.10.0,1,7,end_of_study_questions_ifirst,self_exclusion_1,0,0,0,0,0,0,"Yes, use my data",1,2597,0
100918,16:28:17,375625432,57742112,4.0.10.0,1,7,end_of_study_questions_ifirst,self_exclusion_1other,0,0,0,0,0,0,,1,2597,0
100918,13:35:20,334721734,106439191,4.0.10.0,1,1,end_of_study_questions_ufirst,politics,0,0,0,0,0,0,neither/moderate,1,4299,0
100918,13:35:20,334721734,106439191,4.0.10.0,1,2,end_of_study_questions_ufirst,awareness,0,0,0,0,0,0,all,1,29569,0
100918,13:35:20,334721734,106439191,4.0.10.0,1,3,end_of_study_questions_ufirst,demand_to,0,0,0,0,0,0,My responses were genuinely based on whether I was influenced or not,1,10839,0
100918,13:35:20,334721734,106439191,4.0.10.0,1,3,end_of_study_questions_ufirst,demand_pn,0,0,0,0,0,0,My responses were genuinely based on whether I was influenced or not,1,10839,0
100918,13:35:20,334721734,106439191,4.0.10.0,1,4,end_of_study_questions_ufirst,influence_general_to,0,0,0,0,0,0,a few,1,14137,0
100918,13:35:20,334721734,106439191,4.0.10.0,1,4,end_of_study_questions_ufirst,influence_general_pn,0,0,0,0,0,0,a few,1,14137,0
100918,13:35:20,334721734,106439191,4.0.10.0,1,5,end_of_study_questions_ufirst,unintentionality_to,0,0,0,0,0,0,none,1,10645,0
100918,13:35:20,334721734,106439191,4.0.10.0,1,5,end_of_study_questions_ufirst,unintentionality_pn,0,0,0,0,0,0,none,1,10645,0
100918,13:35:20,334721734,106439191,4.0.10.0,1,6,end_of_study_questions_ufirst,intentionality_to,0,0,0,0,0,0,none,1,6940,0
100918,13:35:20,334721734,106439191,4.0.10.0,1,6,end_of_study_questions_ufirst,intentionality_pn,0,0,0,0,0,0,none,1,6940,0
100918,13:35:20,334721734,106439191,4.0.10.0,1,7,end_of_study_questions_ufirst,self_exclusion_1,0,0,0,0,0,0,"Yes, use my data",1,5195,0
100918,13:35:20,334721734,106439191,4.0.10.0,1,7,end_of_study_questions_ufirst,self_exclusion_1other,0,0,0,0,0,0,,1,5195,0
100918,16:49:11,36774421,865896248,4.0.10.0,1,1,end_of_study_questions_ifirst,politics,0,0,0,0,0,0,a little republican,1,10191,0
100918,16:49:11,36774421,865896248,4.0.10.0,1,2,end_of_study_questions_ifirst,awareness,0,0,0,0,0,0,all,1,18467,0
100918,16:49:11,36774421,865896248,4.0.10.0,1,3,end_of_study_questions_ifirst,demand_to,0,0,0,0,0,0,My responses were genuinely based on whether I was influenced or not,1,26347,0
100918,16:49:11,36774421,865896248,4.0.10.0,1,3,end_of_study_questions_ifirst,demand_pn,0,0,0,0,0,0,My responses were genuinely based on whether I was influenced or not,1,26347,0
100918,16:49:11,36774421,865896248,4.0.10.0,1,4,end_of_study_questions_ifirst,influence_general_to,0,0,0,0,0,0,all,1,10657,0
100918,16:49:11,36774421,865896248,4.0.10.0,1,4,end_of_study_questions_ifirst,influence_general_pn,0,0,0,0,0,0,all,1,10657,0
100918,16:49:11,36774421,865896248,4.0.10.0,1,5,end_of_study_questions_ifirst,intentionality_to,0,0,0,0,0,0,most,1,11407,0
100918,16:49:11,36774421,865896248,4.0.10.0,1,5,end_of_study_questions_ifirst,intentionality_pn,0,0,0,0,0,0,most,1,11407,0
100918,16:49:11,36774421,865896248,4.0.10.0,1,6,end_of_study_questions_ifirst,unintentionality_to,0,0,0,0,0,0,all,1,9782,0
100918,16:49:11,36774421,865896248,4.0.10.0,1,6,end_of_study_questions_ifirst,unintentionality_pn,0,0,0,0,0,0,all,1,9782,0
100918,16:49:11,36774421,865896248,4.0.10.0,1,7,end_of_study_questions_ifirst,self_exclusion_1,0,0,0,0,0,0,"Yes, use my data",1,10919,0
100918,16:49:11,36774421,865896248,4.0.10.0,1,7,end_of_study_questions_ifirst,self_exclusion_1other,0,0,0,0,0,0,,1,10919,0
100918,16:52:51,915323896,469316046,4.0.10.0,1,1,end_of_study_questions_ifirst,politics,0,0,0,0,0,0,very democratic,1,3865,0
100918,16:52:51,915323896,469316046,4.0.10.0,1,2,end_of_study_questions_ifirst,awareness,0,0,0,0,0,0,all,1,10787,0
100918,16:52:51,915323896,469316046,4.0.10.0,1,3,end_of_study_questions_ifirst,demand_to,0,0,0,0,0,0,My responses were genuinely based on whether I was influenced or not,1,6583,0
100918,16:52:51,915323896,469316046,4.0.10.0,1,3,end_of_study_questions_ifirst,demand_pn,0,0,0,0,0,0,My responses were genuinely based on whether I was influenced or not,1,6583,0
100918,16:52:51,915323896,469316046,4.0.10.0,1,4,end_of_study_questions_ifirst,influence_general_to,0,0,0,0,0,0,most,1,9182,0
100918,16:52:51,915323896,469316046,4.0.10.0,1,4,end_of_study_questions_ifirst,influence_general_pn,0,0,0,0,0,0,most,1,9182,0
100918,16:52:51,915323896,469316046,4.0.10.0,1,5,end_of_study_questions_ifirst,intentionality_to,0,0,0,0,0,0,most,1,7827,0
100918,16:52:51,915323896,469316046,4.0.10.0,1,5,end_of_study_questions_ifirst,intentionality_pn,0,0,0,0,0,0,most,1,7827,0
100918,16:52:51,915323896,469316046,4.0.10.0,1,6,end_of_study_questions_ifirst,unintentionality_to,0,0,0,0,0,0,most,1,6345,0
100918,16:52:51,915323896,469316046,4.0.10.0,1,6,end_of_study_questions_ifirst,unintentionality_pn,0,0,0,0,0,0,most,1,6345,0
100918,16:52:51,915323896,469316046,4.0.10.0,1,7,end_of_study_questions_ifirst,self_exclusion_1,0,0,0,0,0,0,"Yes, use my data",1,2512,0
100918,16:52:51,915323896,469316046,4.0.10.0,1,7,end_of_study_questions_ifirst,self_exclusion_1other,0,0,0,0,0,0,,1,2512,0
100918,15:53:28,669158841,454642253,4.0.10.0,1,1,end_of_study_questions_ufirst,politics,0,0,0,0,0,0,somewhat republican,1,5415,0
100918,15:53:28,669158841,454642253,4.0.10.0,1,2,end_of_study_questions_ufirst,awareness,0,0,0,0,0,0,all,1,14989,0
100918,15:53:28,669158841,454642253,4.0.10.0,1,3,end_of_study_questions_ufirst,demand_to,0,0,0,0,0,0,My responses were genuinely based on whether I was influenced or not,1,24265,0
100918,15:53:28,669158841,454642253,4.0.10.0,1,3,end_of_study_questions_ufirst,demand_pn,0,0,0,0,0,0,My responses were genuinely based on whether I was influenced or not,1,24265,0
100918,15:53:28,669158841,454642253,4.0.10.0,1,4,end_of_study_questions_ufirst,influence_general_to,0,0,0,0,0,0,a few,1,19420,0
100918,15:53:28,669158841,454642253,4.0.10.0,1,4,end_of_study_questions_ufirst,influence_general_pn,0,0,0,0,0,0,less than half,1,19420,0
100918,15:53:28,669158841,454642253,4.0.10.0,1,5,end_of_study_questions_ufirst,unintentionality_to,0,0,0,0,0,0,less than half,1,13568,0
100918,15:53:28,669158841,454642253,4.0.10.0,1,5,end_of_study_questions_ufirst,unintentionality_pn,0,0,0,0,0,0,about half,1,13568,0
100918,15:53:28,669158841,454642253,4.0.10.0,1,6,end_of_study_questions_ufirst,intentionality_to,0,0,0,0,0,0,none,1,9845,0
100918,15:53:28,669158841,454642253,4.0.10.0,1,6,end_of_study_questions_ufirst,intentionality_pn,0,0,0,0,0,0,a few,1,9845,0
100918,15:53:28,669158841,454642253,4.0.10.0,1,7,end_of_study_questions_ufirst,self_exclusion_1,0,0,0,0,0,0,"Yes, use my data",1,9665,0
100918,15:53:28,669158841,454642253,4.0.10.0,1,7,end_of_study_questions_ufirst,self_exclusion_1other,0,0,0,0,0,0,,1,9665,0
100918,16:59:58,211656567,787243510,4.0.10.0,1,1,end_of_study_questions_ifirst,politics,0,0,0,0,0,0,very republican,1,3750,0
100918,16:59:58,211656567,787243510,4.0.10.0,1,2,end_of_study_questions_ifirst,awareness,0,0,0,0,0,0,all,1,6257,0
100918,16:59:58,211656567,787243510,4.0.10.0,1,3,end_of_study_questions_ifirst,demand_to,0,0,0,0,0,0,My responses were genuinely based on whether I was influenced or not,1,12468,0
100918,16:59:58,211656567,787243510,4.0.10.0,1,3,end_of_study_questions_ifirst,demand_pn,0,0,0,0,0,0,My responses were genuinely based on whether I was influenced or not,1,12468,0
100918,16:59:58,211656567,787243510,4.0.10.0,1,4,end_of_study_questions_ifirst,influence_general_to,0,0,0,0,0,0,less than half,1,9111,0
100918,16:59:58,211656567,787243510,4.0.10.0,1,4,end_of_study_questions_ifirst,influence_general_pn,0,0,0,0,0,0,a few,1,9111,0
100918,16:59:58,211656567,787243510,4.0.10.0,1,5,end_of_study_questions_ifirst,intentionality_to,0,0,0,0,0,0,more than half,1,8748,0
100918,16:59:58,211656567,787243510,4.0.10.0,1,5,end_of_study_questions_ifirst,intentionality_pn,0,0,0,0,0,0,most,1,8748,0
100918,16:59:58,211656567,787243510,4.0.10.0,1,6,end_of_study_questions_ifirst,unintentionality_to,0,0,0,0,0,0,a few,1,4436,0
100918,16:59:58,211656567,787243510,4.0.10.0,1,6,end_of_study_questions_ifirst,unintentionality_pn,0,0,0,0,0,0,a few,1,4436,0
100918,16:59:58,211656567,787243510,4.0.10.0,1,7,end_of_study_questions_ifirst,self_exclusion_1,0,0,0,0,0,0,"Yes, use my data",1,2227,0
100918,16:59:58,211656567,787243510,4.0.10.0,1,7,end_of_study_questions_ifirst,self_exclusion_1other,0,0,0,0,0,0,,1,2227,0
100918,16:00:14,27608756,270612844,4.0.10.0,1,1,end_of_study_questions_ifirst,politics,0,0,0,0,0,0,somewhat democratic,1,5285,0
100918,16:00:14,27608756,270612844,4.0.10.0,1,2,end_of_study_questions_ifirst,awareness,0,0,0,0,0,0,all,1,15652,0
100918,16:00:14,27608756,270612844,4.0.10.0,1,3,end_of_study_questions_ifirst,demand_to,0,0,0,0,0,0,My responses were genuinely based on whether I was influenced or not,1,9274,0
100918,16:00:14,27608756,270612844,4.0.10.0,1,3,end_of_study_questions_ifirst,demand_pn,0,0,0,0,0,0,My responses were genuinely based on whether I was influenced or not,1,9274,0
100918,16:00:14,27608756,270612844,4.0.10.0,1,4,end_of_study_questions_ifirst,influence_general_to,0,0,0,0,0,0,about half,1,8372,0
100918,16:00:14,27608756,270612844,4.0.10.0,1,4,end_of_study_questions_ifirst,influence_general_pn,0,0,0,0,0,0,more than half,1,8372,0
100918,16:00:14,27608756,270612844,4.0.10.0,1,5,end_of_study_questions_ifirst,intentionality_to,0,0,0,0,0,0,a few,1,20783,0
100918,16:00:14,27608756,270612844,4.0.10.0,1,5,end_of_study_questions_ifirst,intentionality_pn,0,0,0,0,0,0,a few,1,20783,0
100918,16:00:14,27608756,270612844,4.0.10.0,1,6,end_of_study_questions_ifirst,unintentionality_to,0,0,0,0,0,0,about half,1,10730,0
100918,16:00:14,27608756,270612844,4.0.10.0,1,6,end_of_study_questions_ifirst,unintentionality_pn,0,0,0,0,0,0,more than half,1,10730,0
100918,16:00:14,27608756,270612844,4.0.10.0,1,7,end_of_study_questions_ifirst,self_exclusion_1,0,0,0,0,0,0,"Yes, use my data",1,3125,0
100918,16:00:14,27608756,270612844,4.0.10.0,1,7,end_of_study_questions_ifirst,self_exclusion_1other,0,0,0,0,0,0,,1,3125,0
100918,16:07:06,305288824,914741672,4.0.10.0,1,1,end_of_study_questions_ifirst,politics,0,0,0,0,0,0,very democratic,1,5208,0
100918,16:07:06,305288824,914741672,4.0.10.0,1,2,end_of_study_questions_ifirst,awareness,0,0,0,0,0,0,all,1,31250,0
100918,16:07:06,305288824,914741672,4.0.10.0,1,3,end_of_study_questions_ifirst,demand_to,0,0,0,0,0,0,My responses were genuinely based on whether I was influenced or not,1,19156,0
100918,16:07:06,305288824,914741672,4.0.10.0,1,3,end_of_study_questions_ifirst,demand_pn,0,0,0,0,0,0,My responses were genuinely based on whether I was influenced or not,1,19156,0
100918,16:07:06,305288824,914741672,4.0.10.0,1,4,end_of_study_questions_ifirst,influence_general_to,0,0,0,0,0,0,less than half,1,15546,0
100918,16:07:06,305288824,914741672,4.0.10.0,1,4,end_of_study_questions_ifirst,influence_general_pn,0,0,0,0,0,0,a few,1,15546,0
100918,16:07:06,305288824,914741672,4.0.10.0,1,5,end_of_study_questions_ifirst,intentionality_to,0,0,0,0,0,0,a few,1,25741,0
100918,16:07:06,305288824,914741672,4.0.10.0,1,5,end_of_study_questions_ifirst,intentionality_pn,0,0,0,0,0,0,a few,1,25741,0
100918,16:07:06,305288824,914741672,4.0.10.0,1,6,end_of_study_questions_ifirst,unintentionality_to,0,0,0,0,0,0,I don't know,1,9498,0
100918,16:07:06,305288824,914741672,4.0.10.0,1,6,end_of_study_questions_ifirst,unintentionality_pn,0,0,0,0,0,0,I don't know,1,9498,0
100918,16:07:06,305288824,914741672,4.0.10.0,1,7,end_of_study_questions_ifirst,self_exclusion_1,0,0,0,0,0,0,"Yes, use my data",1,4393,0
100918,16:07:06,305288824,914741672,4.0.10.0,1,7,end_of_study_questions_ifirst,self_exclusion_1other,0,0,0,0,0,0,,1,4393,0
100918,17:08:37,290158792,146903677,4.0.10.0,1,1,end_of_study_questions_ufirst,politics,0,0,0,0,0,0,very democratic,1,6549,0
100918,17:08:37,290158792,146903677,4.0.10.0,1,2,end_of_study_questions_ufirst,awareness,0,0,0,0,0,0,most,1,20238,0
100918,17:08:37,290158792,146903677,4.0.10.0,1,3,end_of_study_questions_ufirst,demand_to,0,0,0,0,0,0,My responses were genuinely based on whether I was influenced or not,1,15256,0
100918,17:08:37,290158792,146903677,4.0.10.0,1,3,end_of_study_questions_ufirst,demand_pn,0,0,0,0,0,0,My responses were genuinely based on whether I was influenced or not,1,15256,0
100918,17:08:37,290158792,146903677,4.0.10.0,1,4,end_of_study_questions_ufirst,influence_general_to,0,0,0,0,0,0,more than half,1,20328,0
100918,17:08:37,290158792,146903677,4.0.10.0,1,4,end_of_study_questions_ufirst,influence_general_pn,0,0,0,0,0,0,about half,1,20328,0
100918,17:08:37,290158792,146903677,4.0.10.0,1,5,end_of_study_questions_ufirst,unintentionality_to,0,0,0,0,0,0,most,1,15350,0
100918,17:08:37,290158792,146903677,4.0.10.0,1,5,end_of_study_questions_ufirst,unintentionality_pn,0,0,0,0,0,0,most,1,15350,0
100918,17:08:37,290158792,146903677,4.0.10.0,1,6,end_of_study_questions_ufirst,intentionality_to,0,0,0,0,0,0,a few,1,10978,0
100918,17:08:37,290158792,146903677,4.0.10.0,1,6,end_of_study_questions_ufirst,intentionality_pn,0,0,0,0,0,0,a few,1,10978,0
100918,17:08:37,290158792,146903677,4.0.10.0,1,7,end_of_study_questions_ufirst,self_exclusion_1,0,0,0,0,0,0,"Yes, use my data",1,5068,0
100918,17:08:37,290158792,146903677,4.0.10.0,1,7,end_of_study_questions_ufirst,self_exclusion_1other,0,0,0,0,0,0,,1,5068,0
100918,17:09:39,641973428,642742190,4.0.10.0,1,1,end_of_study_questions_ifirst,politics,0,0,0,0,0,0,somewhat democratic,1,7257,0
100918,17:09:39,641973428,642742190,4.0.10.0,1,2,end_of_study_questions_ifirst,awareness,0,0,0,0,0,0,all,1,18797,0
100918,17:09:39,641973428,642742190,4.0.10.0,1,3,end_of_study_questions_ifirst,demand_to,0,0,0,0,0,0,My responses were genuinely based on whether I was influenced or not,1,9605,0
100918,17:09:39,641973428,642742190,4.0.10.0,1,3,end_of_study_questions_ifirst,demand_pn,0,0,0,0,0,0,My responses were genuinely based on whether I was influenced or not,1,9605,0
100918,17:09:39,641973428,642742190,4.0.10.0,1,4,end_of_study_questions_ifirst,influence_general_to,0,0,0,0,0,0,more than half,1,17899,0
100918,17:09:39,641973428,642742190,4.0.10.0,1,4,end_of_study_questions_ifirst,influence_general_pn,0,0,0,0,0,0,most,1,17899,0
100918,17:09:39,641973428,642742190,4.0.10.0,1,5,end_of_study_questions_ifirst,intentionality_to,0,0,0,0,0,0,a few,1,9139,0
100918,17:09:39,641973428,642742190,4.0.10.0,1,5,end_of_study_questions_ifirst,intentionality_pn,0,0,0,0,0,0,a few,1,9139,0
100918,17:09:39,641973428,642742190,4.0.10.0,1,6,end_of_study_questions_ifirst,unintentionality_to,0,0,0,0,0,0,a few,1,14610,0
100918,17:09:39,641973428,642742190,4.0.10.0,1,6,end_of_study_questions_ifirst,unintentionality_pn,0,0,0,0,0,0,less than half,1,14610,0
100918,17:09:39,641973428,642742190,4.0.10.0,1,7,end_of_study_questions_ifirst,self_exclusion_1,0,0,0,0,0,0,"Yes, use my data",1,8986,0
100918,17:09:39,641973428,642742190,4.0.10.0,1,7,end_of_study_questions_ifirst,self_exclusion_1other,0,0,0,0,0,0,,1,8986,0
100918,17:11:12,548574621,297978615,4.0.10.0,1,1,end_of_study_questions_ufirst,politics,0,0,0,0,0,0,very democratic,1,4402,0
100918,17:11:12,548574621,297978615,4.0.10.0,1,2,end_of_study_questions_ufirst,awareness,0,0,0,0,0,0,most,1,15244,0
100918,17:11:12,548574621,297978615,4.0.10.0,1,3,end_of_study_questions_ufirst,demand_to,0,0,0,0,0,0,My responses were genuinely based on whether I was influenced or not,1,25281,0
100918,17:11:12,548574621,297978615,4.0.10.0,1,3,end_of_study_questions_ufirst,demand_pn,0,0,0,0,0,0,My responses were genuinely based on whether I was influenced or not,1,25281,0
100918,17:11:12,548574621,297978615,4.0.10.0,1,4,end_of_study_questions_ufirst,influence_general_to,0,0,0,0,0,0,none,1,17342,0
100918,17:11:12,548574621,297978615,4.0.10.0,1,4,end_of_study_questions_ufirst,influence_general_pn,0,0,0,0,0,0,none,1,17342,0
100918,17:11:12,548574621,297978615,4.0.10.0,1,5,end_of_study_questions_ufirst,unintentionality_to,0,0,0,0,0,0,a few,1,31008,0
100918,17:11:12,548574621,297978615,4.0.10.0,1,5,end_of_study_questions_ufirst,unintentionality_pn,0,0,0,0,0,0,none,1,31008,0
100918,17:11:12,548574621,297978615,4.0.10.0,1,6,end_of_study_questions_ufirst,intentionality_to,0,0,0,0,0,0,none,1,10180,0
100918,17:11:12,548574621,297978615,4.0.10.0,1,6,end_of_study_questions_ufirst,intentionality_pn,0,0,0,0,0,0,none,1,10180,0
100918,17:11:12,548574621,297978615,4.0.10.0,1,7,end_of_study_questions_ufirst,self_exclusion_1,0,0,0,0,0,0,"Yes, use my data",1,5807,0
