"date","time","group","subject","build","blocknum","trialnum","blockcode","trialcode","pretrialpause","posttrialpause","windowcenter","trialduration","trialtimeout","blocktimeout","response","correct","latency","inwindow"
"080918","17:22:27","320555493","743970945","4.0.10.0","1","1","demographics","ProlificCode","0","0","0","0","0","0","q","1","3156","0"
"080918","17:22:27","320555493","743970945","4.0.10.0","1","2","demographics","age","0","0","0","0","0","0","q","1","1859","0"
"080918","17:22:27","320555493","743970945","4.0.10.0","1","3","demographics","gender","0","0","0","0","0","0","q","1","1404","0"
"080918","11:48:44","39586963","347524095","4.0.10.0","1","1","demographics","ProlificCode","0","0","0","0","0","0","57bedd51eb2a5400013425c4","1","17725","0"
"080918","11:48:44","39586963","347524095","4.0.10.0","1","2","demographics","age","0","0","0","0","0","0","55","1","4206","0"
"080918","11:48:44","39586963","347524095","4.0.10.0","1","3","demographics","gender","0","0","0","0","0","0","female","1","8382","0"
"080918","09:16:06","288208","77268698","4.0.10.0","1","1","demographics","ProlificCode","0","0","0","0","0","0","57268a30f2a83f000f6b02eb","1","7496","0"
"080918","09:16:06","288208","77268698","4.0.10.0","1","2","demographics","age","0","0","0","0","0","0","35","1","2218","0"
"080918","09:16:06","288208","77268698","4.0.10.0","1","3","demographics","gender","0","0","0","0","0","0","Male","1","2998","0"
"080918","12:26:47","173822310","408892577","4.0.10.0","1","1","demographics","ProlificCode","0","0","0","0","0","0","5a2e4e2f443c10000121161c","1","4158","0"
"080918","12:26:47","173822310","408892577","4.0.10.0","1","2","demographics","age","0","0","0","0","0","0","27","1","3385","0"
"080918","12:26:47","173822310","408892577","4.0.10.0","1","3","demographics","gender","0","0","0","0","0","0","Male","1","4675","0"
"080918","12:33:01","975290723","210361004","4.0.10.0","1","1","demographics","ProlificCode","0","0","0","0","0","0","5aa61dd36475f90001a05dcf","1","10103","0"
"080918","12:33:01","975290723","210361004","4.0.10.0","1","2","demographics","age","0","0","0","0","0","0","45","1","2913","0"
"080918","12:33:01","975290723","210361004","4.0.10.0","1","3","demographics","gender","0","0","0","0","0","0","Male","1","3962","0"
"080918","12:36:08","789152872","24223154","4.0.10.0","1","1","demographics","ProlificCode","0","0","0","0","0","0","5add1f44dee8590001b02da0","1","5913","0"
"080918","12:36:08","789152872","24223154","4.0.10.0","1","2","demographics","age","0","0","0","0","0","0","23","1","3223","0"
"080918","12:36:08","789152872","24223154","4.0.10.0","1","3","demographics","gender","0","0","0","0","0","0","Cis Female","1","9264","0"
"080918","12:35:22","124658429","359728694","4.0.10.0","1","1","demographics","ProlificCode","0","0","0","0","0","0","57c66e67610224000120a556","1","9314","0"
"080918","12:35:22","124658429","359728694","4.0.10.0","1","2","demographics","age","0","0","0","0","0","0","36","1","3127","0"
"080918","12:35:22","124658429","359728694","4.0.10.0","1","3","demographics","gender","0","0","0","0","0","0","male","1","3337","0"
"080918","12:35:17","598884680","833954947","4.0.10.0","1","1","demographics","ProlificCode","0","0","0","0","0","0","5ade7f8fcd58990001e49a59","1","27645","0"
"080918","12:35:17","598884680","833954947","4.0.10.0","1","2","demographics","age","0","0","0","0","0","0","28","1","3215","0"
"080918","12:35:17","598884680","833954947","4.0.10.0","1","3","demographics","gender","0","0","0","0","0","0","female","1","1674","0"
"080918","11:38:38","61413571","880653715","4.0.10.0","1","1","demographics","ProlificCode","0","0","0","0","0","0","57ddcb45c3e5930001446949","1","4222","0"
"080918","11:38:38","61413571","880653715","4.0.10.0","1","2","demographics","age","0","0","0","0","0","0","32","1","2237","0"
"080918","11:38:38","61413571","880653715","4.0.10.0","1","3","demographics","gender","0","0","0","0","0","0","woman","1","2849","0"
"080918","12:45:40","763841809","418702875","4.0.10.0","1","1","demographics","ProlificCode","0","0","0","0","0","0","5a13e58baac54e00011ac832","1","5649","0"
"080918","12:45:40","763841809","418702875","4.0.10.0","1","2","demographics","age","0","0","0","0","0","0","34","1","3199","0"
"080918","12:45:40","763841809","418702875","4.0.10.0","1","3","demographics","gender","0","0","0","0","0","0","female","1","5453","0"
"080918","11:49:35","193925885","72182085","4.0.10.0","1","1","demographics","ProlificCode","0","0","0","0","0","0","","1","19320","0"
"080918","11:50:13","741409424","376635527","4.0.10.0","1","1","demographics","ProlificCode","0","0","0","0","0","0","5ac4c730f69e940001d977e1","1","6001","0"
"080918","11:50:13","741409424","376635527","4.0.10.0","1","2","demographics","age","0","0","0","0","0","0","24 ","1","5499","0"
"080918","11:50:13","741409424","376635527","4.0.10.0","1","3","demographics","gender","0","0","0","0","0","0","male","1","3799","0"
"080918","09:50:58","44712698","675918708","4.0.10.0","1","1","demographics","ProlificCode","0","0","0","0","0","0","5a53443df6c5170001948b40","1","9235","0"
"080918","09:50:58","44712698","675918708","4.0.10.0","1","2","demographics","age","0","0","0","0","0","0","39","1","4959","0"
"080918","09:50:58","44712698","675918708","4.0.10.0","1","3","demographics","gender","0","0","0","0","0","0","male","1","7185","0"
"080918","12:50:58","783047680","956349113","4.0.10.0","1","1","demographics","ProlificCode","0","0","0","0","0","0","58be162d2e4dc0000164b12c","1","57202","0"
"080918","12:50:58","783047680","956349113","4.0.10.0","1","2","demographics","age","0","0","0","0","0","0","35","1","3373","0"
"080918","12:50:58","783047680","956349113","4.0.10.0","1","3","demographics","gender","0","0","0","0","0","0","Female","1","6569","0"
"080918","12:53:55","508755107","460049010","4.0.10.0","1","1","demographics","ProlificCode","0","0","0","0","0","0","5b27f73771f2040001ad4e1b","1","10051","0"
"080918","12:53:55","508755107","460049010","4.0.10.0","1","2","demographics","age","0","0","0","0","0","0","38","1","5892","0"
"080918","12:53:55","508755107","460049010","4.0.10.0","1","3","demographics","gender","0","0","0","0","0","0","Female","1","4518","0"
"080918","11:54:40","667910883","72372970","4.0.10.0","1","1","demographics","ProlificCode","0","0","0","0","0","0","582383e997b5100001b9bb09","1","3829","0"
"080918","11:54:40","667910883","72372970","4.0.10.0","1","2","demographics","age","0","0","0","0","0","0","32","1","3373","0"
"080918","11:54:40","667910883","72372970","4.0.10.0","1","3","demographics","gender","0","0","0","0","0","0","male","1","1858","0"
"080918","11:54:58","822976059","73938476","4.0.10.0","1","1","demographics","ProlificCode","0","0","0","0","0","0","57e7fa1d6598aa0001993a6b","1","10791","0"
"080918","11:54:58","822976059","73938476","4.0.10.0","1","2","demographics","age","0","0","0","0","0","0","22","1","1899","0"
"080918","11:54:58","822976059","73938476","4.0.10.0","1","3","demographics","gender","0","0","0","0","0","0","Male","1","2773","0"
"080918","12:55:59","60950759","37441758","4.0.10.0","1","1","demographics","ProlificCode","0","0","0","0","0","0","5a03d20a7ecfc50001be0a7a","1","13081","0"
"080918","12:55:59","60950759","37441758","4.0.10.0","1","2","demographics","age","0","0","0","0","0","0","33","1","3298","0"
"080918","12:55:59","60950759","37441758","4.0.10.0","1","3","demographics","gender","0","0","0","0","0","0","female","1","3693","0"
"080918","12:56:18","524045576","879040610","4.0.10.0","1","1","demographics","ProlificCode","0","0","0","0","0","0","5a0b8d4c7ecfc50001be130d","1","5933","0"
"080918","12:56:18","524045576","879040610","4.0.10.0","1","2","demographics","age","0","0","0","0","0","0","27","1","9280","0"
"080918","12:56:18","524045576","879040610","4.0.10.0","1","3","demographics","gender","0","0","0","0","0","0","female","1","4038","0"
"080918","11:59:48","767837566","414118202","4.0.10.0","1","1","demographics","ProlificCode","0","0","0","0","0","0","5b0e2bce30d56200015576ea","1","13259","0"
"080918","11:59:48","767837566","414118202","4.0.10.0","1","2","demographics","age","0","0","0","0","0","0","19","1","3636","0"
"080918","11:59:48","767837566","414118202","4.0.10.0","1","3","demographics","gender","0","0","0","0","0","0","female","1","4889","0"
"080918","04:11:28","459639878","204470556","4.0.10.0","1","1","demographics","ProlificCode","0","0","0","0","0","0","5b0c566030d56200015550a1","1","17943","0"
"080918","04:11:28","459639878","204470556","4.0.10.0","1","2","demographics","age","0","0","0","0","0","0","43","1","3855","0"
"080918","04:11:28","459639878","204470556","4.0.10.0","1","3","demographics","gender","0","0","0","0","0","0","male","1","6249","0"
"080918","13:04:36","726455798","612719567","4.0.10.0","1","1","demographics","ProlificCode","0","0","0","0","0","0","5ae3a155f4134e000107e183","1","20283","0"
"080918","13:04:36","726455798","612719567","4.0.10.0","1","2","demographics","age","0","0","0","0","0","0","22","1","2537","0"
"080918","13:04:36","726455798","612719567","4.0.10.0","1","3","demographics","gender","0","0","0","0","0","0","Male","1","2863","0"
"080918","13:05:05","989419638","257035865","4.0.10.0","1","1","demographics","ProlificCode","0","0","0","0","0","0","5acb9984e1099600016ad148","1","19048","0"
"080918","13:05:05","989419638","257035865","4.0.10.0","1","2","demographics","age","0","0","0","0","0","0","34","1","3865","0"
"080918","13:05:05","989419638","257035865","4.0.10.0","1","3","demographics","gender","0","0","0","0","0","0","Female","1","5697","0"
"080918","10:06:04","782623127","861245923","4.0.10.0","1","1","demographics","ProlificCode","0","0","0","0","0","0","58d4c4c287b2420001263b6a","1","7037","0"
"080918","10:06:04","782623127","861245923","4.0.10.0","1","2","demographics","age","0","0","0","0","0","0","51","1","3619","0"
"080918","10:06:04","782623127","861245923","4.0.10.0","1","3","demographics","gender","0","0","0","0","0","0","female","1","4267","0"
"080918","13:07:41","502145183","995276234","4.0.10.0","1","1","demographics","ProlificCode","0","0","0","0","0","0","5b0a1a4bd282ff00015b5625","1","16701","0"
"080918","13:07:41","502145183","995276234","4.0.10.0","1","2","demographics","age","0","0","0","0","0","0","18","1","4221","0"
"080918","13:07:41","502145183","995276234","4.0.10.0","1","3","demographics","gender","0","0","0","0","0","0","Male","1","14844","0"
"080918","12:10:21","907233042","199138224","4.0.10.0","1","1","demographics","ProlificCode","0","0","0","0","0","0","5ace7a9be9d7a30001c2d8c7","1","7683","0"
"080918","12:10:21","907233042","199138224","4.0.10.0","1","2","demographics","age","0","0","0","0","0","0","26","1","3671","0"
"080918","12:10:21","907233042","199138224","4.0.10.0","1","3","demographics","gender","0","0","0","0","0","0","Male","1","4341","0"
"080918","13:11:13","841380207","99792694","4.0.10.0","1","1","demographics","ProlificCode","0","0","0","0","0","0","5ad37792b438910001aca81e","1","12953","0"
"080918","13:11:13","841380207","99792694","4.0.10.0","1","2","demographics","age","0","0","0","0","0","0","20","1","2915","0"
"080918","13:11:13","841380207","99792694","4.0.10.0","1","3","demographics","gender","0","0","0","0","0","0","nonbinary","1","2927","0"
"080918","11:11:29","216392615","198956190","4.0.10.0","1","1","demographics","ProlificCode","0","0","0","0","0","0","55e4575ac70c7a00052a5ad4","1","3387","0"
"080918","11:11:29","216392615","198956190","4.0.10.0","1","2","demographics","age","0","0","0","0","0","0","37","1","3863","0"
"080918","11:11:29","216392615","198956190","4.0.10.0","1","3","demographics","gender","0","0","0","0","0","0","female","1","4328","0"
"080918","13:11:22","405836187","700535080","4.0.10.0","1","1","demographics","ProlificCode","0","0","0","0","0","0","5a6fa72d9cdd180001775149","1","15841","0"
"080918","13:11:22","405836187","700535080","4.0.10.0","1","2","demographics","age","0","0","0","0","0","0","35","1","2560","0"
"080918","13:11:22","405836187","700535080","4.0.10.0","1","3","demographics","gender","0","0","0","0","0","0","male","1","2105","0"
"080918","12:12:16","833516971","51723877","4.0.10.0","1","1","demographics","ProlificCode","0","0","0","0","0","0","57210674951c9b0011d3eaaa","1","6339","0"
"080918","12:12:16","833516971","51723877","4.0.10.0","1","2","demographics","age","0","0","0","0","0","0","53","1","4873","0"
"080918","12:12:16","833516971","51723877","4.0.10.0","1","3","demographics","gender","0","0","0","0","0","0","male","1","5908","0"
"080918","13:13:15","398881517","4793598","4.0.10.0","1","1","demographics","ProlificCode","0","0","0","0","0","0","58a5cf959e040a0001399f07","1","2838","0"
"080918","13:13:15","398881517","4793598","4.0.10.0","1","2","demographics","age","0","0","0","0","0","0","26","1","1875","0"
"080918","13:13:15","398881517","4793598","4.0.10.0","1","3","demographics","gender","0","0","0","0","0","0","female","1","2232","0"
"080918","10:12:08","533106182","207177671","4.0.10.0","1","1","demographics","ProlificCode","0","0","0","0","0","0","591696452568db0001a73b0c","1","110086","0"
"080918","10:12:08","533106182","207177671","4.0.10.0","1","2","demographics","age","0","0","0","0","0","0","31","1","4499","0"
"080918","10:12:08","533106182","207177671","4.0.10.0","1","3","demographics","gender","0","0","0","0","0","0","Female","1","6338","0"
"080918","13:18:18","654658603","229993324","4.0.10.0","1","1","demographics","ProlificCode","0","0","0","0","0","0","59949236c825cf0001d7dcdc","1","62313","0"
"080918","13:18:18","654658603","229993324","4.0.10.0","1","2","demographics","age","0","0","0","0","0","0","48","1","8119","0"
"080918","13:18:18","654658603","229993324","4.0.10.0","1","3","demographics","gender","0","0","0","0","0","0","male","1","7127","0"
"080918","10:18:53","101318272","562792162","4.0.10.0","1","1","demographics","ProlificCode","0","0","0","0","0","0","5b4682aa03fd6e0001250011","1","6129","0"
"080918","10:18:53","101318272","562792162","4.0.10.0","1","2","demographics","age","0","0","0","0","0","0","36","1","3290","0"
"080918","10:18:53","101318272","562792162","4.0.10.0","1","3","demographics","gender","0","0","0","0","0","0","Female","1","4055","0"
"080918","13:19:24","546600367","426487590","4.0.10.0","1","1","demographics","ProlificCode","0","0","0","0","0","0","5a6d67dbe70ca900017adb9c","1","91787","0"
"080918","13:19:24","546600367","426487590","4.0.10.0","1","2","demographics","age","0","0","0","0","0","0","37","1","3328","0"
"080918","13:19:24","546600367","426487590","4.0.10.0","1","3","demographics","gender","0","0","0","0","0","0","female","1","3918","0"
"080918","13:21:07","615046070","724129297","4.0.10.0","1","1","demographics","ProlificCode","0","0","0","0","0","0","55ff49bb77f33b0012cb35aa","1","7156","0"
"080918","13:21:07","615046070","724129297","4.0.10.0","1","2","demographics","age","0","0","0","0","0","0","38","1","3268","0"
"080918","13:21:07","615046070","724129297","4.0.10.0","1","3","demographics","gender","0","0","0","0","0","0","Male","1","8260","0"
"080918","10:22:54","906056582","834227260","4.0.10.0","1","1","demographics","ProlificCode","0","0","0","0","0","0","55592b04fdf99b21cfd8f666","1","4638","0"
"080918","10:22:54","906056582","834227260","4.0.10.0","1","2","demographics","age","0","0","0","0","0","0","19","1","6141","0"
"080918","10:22:54","906056582","834227260","4.0.10.0","1","3","demographics","gender","0","0","0","0","0","0","male","1","3725","0"
"080918","12:22:22","366732243","803549838","4.0.10.0","1","1","demographics","ProlificCode","0","0","0","0","0","0","5af48e00a9f07200016a6d4e","1","20865","0"
"080918","12:22:22","366732243","803549838","4.0.10.0","1","2","demographics","age","0","0","0","0","0","0","23","1","4498","0"
"080918","12:22:22","366732243","803549838","4.0.10.0","1","3","demographics","gender","0","0","0","0","0","0","Male","1","24471","0"
"080918","12:22:15","26689582","838309898","4.0.10.0","1","1","demographics","ProlificCode","0","0","0","0","0","0","58e38be401a35e00019a791b","1","107098","0"
"080918","12:22:15","26689582","838309898","4.0.10.0","1","2","demographics","age","0","0","0","0","0","0","23","1","3522","0"
"080918","12:22:15","26689582","838309898","4.0.10.0","1","3","demographics","gender","0","0","0","0","0","0","female","1","5029","0"
"080918","13:23:49","459367856","268653392","4.0.10.0","1","1","demographics","ProlificCode","0","0","0","0","0","0","59c6305e6a287600011c388d","1","3642","0"
"080918","13:23:49","459367856","268653392","4.0.10.0","1","2","demographics","age","0","0","0","0","0","0","25","1","3161","0"
"080918","13:23:49","459367856","268653392","4.0.10.0","1","3","demographics","gender","0","0","0","0","0","0","M","1","2636","0"
"080918","10:25:45","881921318","14993216","4.0.10.0","1","1","demographics","ProlificCode","0","0","0","0","0","0","5b6335d8bc9c46000184ab04","1","39044","0"
"080918","10:25:45","881921318","14993216","4.0.10.0","1","2","demographics","age","0","0","0","0","0","0","21","1","3328","0"
"080918","10:25:45","881921318","14993216","4.0.10.0","1","3","demographics","gender","0","0","0","0","0","0","Male","1","2721","0"
"080918","10:26:24","61592092","36800426","4.0.10.0","1","1","demographics","ProlificCode","0","0","0","0","0","0","5acd11da1667e40001d8c73c","1","5246","0"
"080918","10:26:24","61592092","36800426","4.0.10.0","1","2","demographics","age","0","0","0","0","0","0","53","1","3014","0"
"080918","10:26:24","61592092","36800426","4.0.10.0","1","3","demographics","gender","0","0","0","0","0","0","female","1","3645","0"
"080918","13:27:26","481094527","942233025","4.0.10.0","1","1","demographics","ProlificCode","0","0","0","0","0","0","5b291d98046d750001588ef2","1","5411","0"
"080918","13:27:26","481094527","942233025","4.0.10.0","1","2","demographics","age","0","0","0","0","0","0","22","1","3001","0"
"080918","13:27:26","481094527","942233025","4.0.10.0","1","3","demographics","gender","0","0","0","0","0","0","Male","1","2768","0"
"080918","13:27:32","416684168","387510502","4.0.10.0","1","1","demographics","ProlificCode","0","0","0","0","0","0","5b25bcb67f78160001461011","1","6682","0"
"080918","13:27:32","416684168","387510502","4.0.10.0","1","2","demographics","age","0","0","0","0","0","0","28","1","2481","0"
"080918","13:27:32","416684168","387510502","4.0.10.0","1","3","demographics","gender","0","0","0","0","0","0","male","1","2372","0"
"080918","07:28:00","654121503","73899742","4.0.10.0","1","1","demographics","ProlificCode","0","0","0","0","0","0","5a97dbd54eecca0001dd65ae","1","3362","0"
"080918","07:28:00","654121503","73899742","4.0.10.0","1","2","demographics","age","0","0","0","0","0","0","38","1","2904","0"
"080918","07:28:00","654121503","73899742","4.0.10.0","1","3","demographics","gender","0","0","0","0","0","0","male","1","5572","0"
"080918","13:29:39","548241995","317346405","4.0.10.0","1","1","demographics","ProlificCode","0","0","0","0","0","0","59d5126df35ff40001914d8e","1","10294","0"
"080918","13:29:39","548241995","317346405","4.0.10.0","1","2","demographics","age","0","0","0","0","0","0","58","1","4517","0"
"080918","13:29:39","548241995","317346405","4.0.10.0","1","3","demographics","gender","0","0","0","0","0","0","female","1","4931","0"
"080918","13:30:11","910859564","50554708","4.0.10.0","1","1","demographics","ProlificCode","0","0","0","0","0","0","567dd32b4f0ef30006dbb718","1","9594","0"
"080918","13:30:11","910859564","50554708","4.0.10.0","1","2","demographics","age","0","0","0","0","0","0","52","1","3333","0"
"080918","13:30:11","910859564","50554708","4.0.10.0","1","3","demographics","gender","0","0","0","0","0","0","Female","1","5376","0"
"080918","13:30:24","801153288","907215497","4.0.10.0","1","1","demographics","ProlificCode","0","0","0","0","0","0","5a39910bb92b2e000145a55d","1","5968","0"
"080918","13:30:24","801153288","907215497","4.0.10.0","1","2","demographics","age","0","0","0","0","0","0","24","1","1999","0"
"080918","13:30:24","801153288","907215497","4.0.10.0","1","3","demographics","gender","0","0","0","0","0","0","female","1","1831","0"
"080918","10:30:43","386204416","712188085","4.0.10.0","1","1","demographics","ProlificCode","0","0","0","0","0","0","57db16a1a4e406000114e9040","1","24933","0"
"080918","10:30:43","386204416","712188085","4.0.10.0","1","2","demographics","age","0","0","0","0","0","0","37","1","2875","0"
"080918","10:30:43","386204416","712188085","4.0.10.0","1","3","demographics","gender","0","0","0","0","0","0","female","1","3474","0"
"080918","13:29:19","239847689","404330801","4.0.10.0","1","1","demographics","ProlificCode","0","0","0","0","0","0","56927b244e2a0700050d65d0","1","109205","0"
"080918","13:29:19","239847689","404330801","4.0.10.0","1","2","demographics","age","0","0","0","0","0","0","38","1","8878","0"
"080918","13:29:19","239847689","404330801","4.0.10.0","1","3","demographics","gender","0","0","0","0","0","0","male","1","4469","0"
"080918","13:31:15","356596624","741795876","4.0.10.0","1","1","demographics","ProlificCode","0","0","0","0","0","0","5a68c01031b87a0001c752c3","1","2767","0"
"080918","13:31:15","356596624","741795876","4.0.10.0","1","2","demographics","age","0","0","0","0","0","0","32","1","1829","0"
"080918","13:31:15","356596624","741795876","4.0.10.0","1","3","demographics","gender","0","0","0","0","0","0","Female","1","4490","0"
"080918","10:31:50","852449859","855918927","4.0.10.0","1","1","demographics","ProlificCode","0","0","0","0","0","0","5a1f1b7ffe645f0001ea0c81","1","11821","0"
"080918","10:31:50","852449859","855918927","4.0.10.0","1","2","demographics","age","0","0","0","0","0","0","31","1","3101","0"
"080918","10:31:50","852449859","855918927","4.0.10.0","1","3","demographics","gender","0","0","0","0","0","0","Male","1","3238","0"
"080918","11:31:54","403520209","557894060","4.0.10.0","1","1","demographics","ProlificCode","0","0","0","0","0","0","5b46e38da47aa000013334ae","1","123786","0"
"080918","11:31:54","403520209","557894060","4.0.10.0","1","2","demographics","age","0","0","0","0","0","0","25","1","4184","0"
"080918","11:31:54","403520209","557894060","4.0.10.0","1","3","demographics","gender","0","0","0","0","0","0","Female","1","3966","0"
"080918","12:35:35","301703936","659121413","4.0.10.0","1","1","demographics","ProlificCode","0","0","0","0","0","0","5af09ff00eca060001b1379c","1","21154","0"
"080918","12:35:35","301703936","659121413","4.0.10.0","1","2","demographics","age","0","0","0","0","0","0","47","1","4092","0"
"080918","12:35:35","301703936","659121413","4.0.10.0","1","3","demographics","gender","0","0","0","0","0","0","female","1","6428","0"
"080918","11:36:46","651199798","12321716","4.0.10.0","1","1","demographics","ProlificCode","0","0","0","0","0","0","5b4d41e13d01bd0001ec46c2","1","15738","0"
"080918","11:36:46","651199798","12321716","4.0.10.0","1","2","demographics","age","0","0","0","0","0","0","30","1","4267","0"
"080918","11:36:46","651199798","12321716","4.0.10.0","1","3","demographics","gender","0","0","0","0","0","0","Male","1","4013","0"
"080918","13:37:08","70317396","131879756","4.0.10.0","1","1","demographics","ProlificCode","0","0","0","0","0","0","5a5e8efcac562400015424ba","1","4306","0"
"080918","13:37:08","70317396","131879756","4.0.10.0","1","2","demographics","age","0","0","0","0","0","0","29","1","2756","0"
"080918","13:37:08","70317396","131879756","4.0.10.0","1","3","demographics","gender","0","0","0","0","0","0","female","1","3987","0"
"080918","13:37:06","712811359","164171230","4.0.10.0","1","1","demographics","ProlificCode","0","0","0","0","0","0","5a6c0147d5d4cb0001d659e4","1","20537","0"
"080918","13:37:06","712811359","164171230","4.0.10.0","1","2","demographics","age","0","0","0","0","0","0","26","1","2658","0"
"080918","13:37:06","712811359","164171230","4.0.10.0","1","3","demographics","gender","0","0","0","0","0","0","Male","1","3533","0"
"080918","10:37:25","183084442","702156408","4.0.10.0","1","1","demographics","ProlificCode","0","0","0","0","0","0","5b05e0d131cebe000177c38e","1","13402","0"
"080918","10:37:25","183084442","702156408","4.0.10.0","1","2","demographics","age","0","0","0","0","0","0","36","1","3331","0"
"080918","10:37:25","183084442","702156408","4.0.10.0","1","3","demographics","gender","0","0","0","0","0","0","male","1","3428","0"
"080918","13:37:41","561121994","537270509","4.0.10.0","1","1","demographics","ProlificCode","0","0","0","0","0","0","5b1f62034c72120001f2439e","1","5219","0"
"080918","13:37:41","561121994","537270509","4.0.10.0","1","2","demographics","age","0","0","0","0","0","0","32","1","5547","0"
"080918","13:37:41","561121994","537270509","4.0.10.0","1","3","demographics","gender","0","0","0","0","0","0","female","1","4659","0"
"080918","13:38:59","245635327","639605524","4.0.10.0","1","1","demographics","ProlificCode","0","0","0","0","0","0","5af1b49ce1b5b8000148ae38","1","11309","0"
"080918","13:38:59","245635327","639605524","4.0.10.0","1","2","demographics","age","0","0","0","0","0","0","30","1","2815","0"
"080918","13:38:59","245635327","639605524","4.0.10.0","1","3","demographics","gender","0","0","0","0","0","0","Male","1","5019","0"
"080918","13:41:00","224946354","273965715","4.0.10.0","1","1","demographics","ProlificCode","0","0","0","0","0","0","5b147696d282ff00015c2c4e","1","37121","0"
"080918","13:41:00","224946354","273965715","4.0.10.0","1","2","demographics","age","0","0","0","0","0","0","25","1","2473","0"
"080918","13:41:00","224946354","273965715","4.0.10.0","1","3","demographics","gender","0","0","0","0","0","0","female","1","2556","0"
"080918","13:43:19","891160095","434236063","4.0.10.0","1","1","demographics","ProlificCode","0","0","0","0","0","0","588bfe305b97190001a4617c","1","2508","0"
"080918","13:43:19","891160095","434236063","4.0.10.0","1","2","demographics","age","0","0","0","0","0","0","33","1","2734","0"
"080918","13:43:19","891160095","434236063","4.0.10.0","1","3","demographics","gender","0","0","0","0","0","0","Male","1","3220","0"
"080918","10:38:36","926980921","267237454","4.0.10.0","1","1","demographics","ProlificCode","0","0","0","0","0","0","5a3c39f08d005a000182a1c6","1","52609","0"
"080918","10:38:36","926980921","267237454","4.0.10.0","1","2","demographics","age","0","0","0","0","0","0","57","1","5730","0"
"080918","10:38:36","926980921","267237454","4.0.10.0","1","3","demographics","gender","0","0","0","0","0","0","female","1","10059","0"
"080918","13:44:04","542283249","198000605","4.0.10.0","1","1","demographics","ProlificCode","0","0","0","0","0","0","570521cfde5095001018a0c8","1","77037","0"
"080918","13:44:04","542283249","198000605","4.0.10.0","1","2","demographics","age","0","0","0","0","0","0","47","1","7560","0"
"080918","13:44:04","542283249","198000605","4.0.10.0","1","3","demographics","gender","0","0","0","0","0","0","male","1","3098","0"
"080918","12:46:16","258628027","606371456","4.0.10.0","1","1","demographics","ProlificCode","0","0","0","0","0","0","5a8ce554000dab00018ce090","1","8199","0"
"080918","12:46:16","258628027","606371456","4.0.10.0","1","2","demographics","age","0","0","0","0","0","0","45","1","4809","0"
"080918","12:46:16","258628027","606371456","4.0.10.0","1","3","demographics","gender","0","0","0","0","0","0","Male","1","3606","0"
"080918","13:47:05","202776299","377181951","4.0.10.0","1","1","demographics","ProlificCode","0","0","0","0","0","0","5b26a8a07297750001c707f2","1","6727","0"
"080918","13:47:05","202776299","377181951","4.0.10.0","1","2","demographics","age","0","0","0","0","0","0","31","1","3434","0"
"080918","13:47:05","202776299","377181951","4.0.10.0","1","3","demographics","gender","0","0","0","0","0","0","male","1","3448","0"
"080918","10:47:37","990143466","646335740","4.0.10.0","1","1","demographics","ProlificCode","0","0","0","0","0","0","5a6f1ccade1f390001dbd8b7","1","5661","0"
"080918","10:47:37","990143466","646335740","4.0.10.0","1","2","demographics","age","0","0","0","0","0","0","35","1","5705","0"
"080918","10:47:37","990143466","646335740","4.0.10.0","1","3","demographics","gender","0","0","0","0","0","0","male","1","5240","0"
"080918","13:50:29","202776299","377181951","4.0.10.0","1","1","demographics","ProlificCode","0","0","0","0","0","0","5b26a8a07297750001c707f2","1","3544","0"
"080918","13:50:29","202776299","377181951","4.0.10.0","1","2","demographics","age","0","0","0","0","0","0","31","1","2290","0"
"080918","13:50:29","202776299","377181951","4.0.10.0","1","3","demographics","gender","0","0","0","0","0","0","male","1","3512","0"
"080918","12:52:38","398029079","570775037","4.0.10.0","1","1","demographics","ProlificCode","0","0","0","0","0","0","5a76a56c1904200001556da9","1","7800","0"
"080918","12:52:38","398029079","570775037","4.0.10.0","1","2","demographics","age","0","0","0","0","0","0","47","1","2970","0"
"080918","12:52:38","398029079","570775037","4.0.10.0","1","3","demographics","gender","0","0","0","0","0","0","female","1","4423","0"
"080918","11:52:24","19568349","953519607","4.0.10.0","1","1","demographics","ProlificCode","0","0","0","0","0","0","5b5b6d09e36fe200014d1cd6","1","13243","0"
"080918","11:52:24","19568349","953519607","4.0.10.0","1","2","demographics","age","0","0","0","0","0","0","33","1","2913","0"
"080918","11:52:24","19568349","953519607","4.0.10.0","1","3","demographics","gender","0","0","0","0","0","0","Male","1","3688","0"
"080918","12:53:48","589177735","379626386","4.0.10.0","1","1","demographics","ProlificCode","0","0","0","0","0","0","","1","11288","0"
"080918","12:54:26","589177735","379626386","4.0.10.0","1","1","demographics","ProlificCode","0","0","0","0","0","0","5a6b3ffee70ca900017ab423","1","3979","0"
"080918","12:54:26","589177735","379626386","4.0.10.0","1","2","demographics","age","0","0","0","0","0","0","56","1","3145","0"
"080918","12:54:26","589177735","379626386","4.0.10.0","1","3","demographics","gender","0","0","0","0","0","0","female","1","8262","0"
"080918","19:55:05","543585022","398176801","4.0.10.0","1","1","demographics","ProlificCode","0","0","0","0","0","0","5a9d52361ade740001b9120a","1","93254","0"
"080918","19:55:05","543585022","398176801","4.0.10.0","1","2","demographics","age","0","0","0","0","0","0","33","1","4443","0"
"080918","19:55:05","543585022","398176801","4.0.10.0","1","3","demographics","gender","0","0","0","0","0","0","Male","1","5451","0"
"080918","10:58:41","810316050","845815607","4.0.10.0","1","1","demographics","ProlificCode","0","0","0","0","0","0","5b0482e8e6ea3c00015ff4f7","1","5170","0"
"080918","10:58:41","810316050","845815607","4.0.10.0","1","2","demographics","age","0","0","0","0","0","0","27","1","3600","0"
"080918","10:58:41","810316050","845815607","4.0.10.0","1","3","demographics","gender","0","0","0","0","0","0","Female","1","4030","0"
"080918","12:58:53","201360590","526660660","4.0.10.0","1","1","demographics","ProlificCode","0","0","0","0","0","0","5afde57096a88e0001ff4168","1","6105","0"
"080918","12:58:53","201360590","526660660","4.0.10.0","1","2","demographics","age","0","0","0","0","0","0","39","1","4748","0"
"080918","12:58:53","201360590","526660660","4.0.10.0","1","3","demographics","gender","0","0","0","0","0","0","F","1","4520","0"
"080918","13:59:47","134204915","143278609","4.0.10.0","1","1","demographics","ProlificCode","0","0","0","0","0","0","5800e50de3536e00012840f4","1","6012","0"
"080918","13:59:47","134204915","143278609","4.0.10.0","1","2","demographics","age","0","0","0","0","0","0","61","1","14046","0"
"080918","13:59:47","134204915","143278609","4.0.10.0","1","3","demographics","gender","0","0","0","0","0","0","female","1","3932","0"
"080918","14:01:46","838842471","343702216","4.0.10.0","1","1","demographics","ProlificCode","0","0","0","0","0","0","5629e780c8ffc20012513ed4","1","7947","0"
"080918","14:01:46","838842471","343702216","4.0.10.0","1","2","demographics","age","0","0","0","0","0","0","25","1","2027","0"
"080918","14:01:46","838842471","343702216","4.0.10.0","1","3","demographics","gender","0","0","0","0","0","0","Female","1","5047","0"
"080918","13:03:00","50705835","593163233","4.0.10.0","1","1","demographics","ProlificCode","0","0","0","0","0","0","59dc458f77860e000151240e","1","4160","0"
"080918","13:03:00","50705835","593163233","4.0.10.0","1","2","demographics","age","0","0","0","0","0","0","35","1","2770","0"
"080918","13:03:00","50705835","593163233","4.0.10.0","1","3","demographics","gender","0","0","0","0","0","0","Male","1","3721","0"
"080918","13:04:48","522280366","648001718","4.0.10.0","1","1","demographics","ProlificCode","0","0","0","0","0","0","5b5ed13b6b2559000177ed34","1","18453","0"
"080918","13:04:48","522280366","648001718","4.0.10.0","1","2","demographics","age","0","0","0","0","0","0","30","1","3242","0"
"080918","13:04:48","522280366","648001718","4.0.10.0","1","3","demographics","gender","0","0","0","0","0","0","Male","1","4611","0"
"080918","14:08:34","586955597","213834946","4.0.10.0","1","1","demographics","ProlificCode","0","0","0","0","0","0","58c5ade8334d5b0001d6393b","1","5035","0"
"080918","14:08:34","586955597","213834946","4.0.10.0","1","2","demographics","age","0","0","0","0","0","0","21","1","2094","0"
"080918","14:08:34","586955597","213834946","4.0.10.0","1","3","demographics","gender","0","0","0","0","0","0","Male","1","8056","0"
"080918","11:08:08","4272576","354555257","4.0.10.0","1","1","demographics","ProlificCode","0","0","0","0","0","0","5a98a60f873cda0001dca147@email.prolific.ac","1","13462","0"
"080918","11:08:08","4272576","354555257","4.0.10.0","1","2","demographics","age","0","0","0","0","0","0","26","1","3288","0"
"080918","11:08:08","4272576","354555257","4.0.10.0","1","3","demographics","gender","0","0","0","0","0","0","Female","1","4568","0"
"080918","13:08:02","784489759","618596428","4.0.10.0","1","1","demographics","ProlificCode","0","0","0","0","0","0","598ba20f716a2c000187ce01","1","17922","0"
"080918","13:08:02","784489759","618596428","4.0.10.0","1","2","demographics","age","0","0","0","0","0","0","47","1","3929","0"
"080918","13:08:02","784489759","618596428","4.0.10.0","1","3","demographics","gender","0","0","0","0","0","0","male","1","4302","0"
"080918","14:09:15","71854978","110689726","4.0.10.0","1","1","demographics","ProlificCode","0","0","0","0","0","0","5b2867d65b5c0900018adf1c","1","18635","0"
"080918","14:09:15","71854978","110689726","4.0.10.0","1","2","demographics","age","0","0","0","0","0","0","34","1","3554","0"
"080918","14:09:15","71854978","110689726","4.0.10.0","1","3","demographics","gender","0","0","0","0","0","0","Female","1","4206","0"
"080918","11:12:03","558774244","539618264","4.0.10.0","1","1","demographics","ProlificCode","0","0","0","0","0","0","5ad389c6fb109b0001a32d7d","1","5884","0"
"080918","11:12:03","558774244","539618264","4.0.10.0","1","2","demographics","age","0","0","0","0","0","0","25","1","2675","0"
"080918","11:12:03","558774244","539618264","4.0.10.0","1","3","demographics","gender","0","0","0","0","0","0","Male","1","3734","0"
"080918","13:12:11","555815454","625842193","4.0.10.0","1","1","demographics","ProlificCode","0","0","0","0","0","0","55d0d4b334e9060005e57470 ","1","4115","0"
"080918","13:12:11","555815454","625842193","4.0.10.0","1","2","demographics","age","0","0","0","0","0","0","31","1","3108","0"
"080918","13:12:11","555815454","625842193","4.0.10.0","1","3","demographics","gender","0","0","0","0","0","0","Female","1","3653","0"
"080918","14:16:17","600944787","62576735","4.0.10.0","1","1","demographics","ProlificCode","0","0","0","0","0","0","5ac7ad53e1546900019c1d75","1","4273","0"
"080918","14:16:17","600944787","62576735","4.0.10.0","1","2","demographics","age","0","0","0","0","0","0","30","1","2364","0"
"080918","14:16:17","600944787","62576735","4.0.10.0","1","3","demographics","gender","0","0","0","0","0","0","F","1","1947","0"
"080918","14:17:29","26527329","388821475","4.0.10.0","1","1","demographics","ProlificCode","0","0","0","0","0","0","5b2834ed7da9a90001a3c5e5","1","22553","0"
"080918","14:17:29","26527329","388821475","4.0.10.0","1","2","demographics","age","0","0","0","0","0","0","19","1","3209","0"
"080918","14:17:29","26527329","388821475","4.0.10.0","1","3","demographics","gender","0","0","0","0","0","0","Female","1","3451","0"
"080918","11:17:49","254446389","770878703","4.0.10.0","1","1","demographics","ProlificCode","0","0","0","0","0","0","56e60e39f7957b000b18e37b","1","10048","0"
"080918","11:17:49","254446389","770878703","4.0.10.0","1","2","demographics","age","0","0","0","0","0","0","29","1","2892","0"
"080918","11:17:49","254446389","770878703","4.0.10.0","1","3","demographics","gender","0","0","0","0","0","0","Male","1","2912","0"
"080918","13:17:55","907509803","370860758","4.0.10.0","1","1","demographics","ProlificCode","0","0","0","0","0","0","57930abe82f7f90001ee8b38","1","9934","0"
"080918","13:17:55","907509803","370860758","4.0.10.0","1","2","demographics","age","0","0","0","0","0","0","43","1","3686","0"
"080918","13:17:55","907509803","370860758","4.0.10.0","1","3","demographics","gender","0","0","0","0","0","0","Female","1","5304","0"
"080918","11:18:41","426662379","542141740","4.0.10.0","1","1","demographics","ProlificCode","0","0","0","0","0","0","5931cd454e31b50001ce1559","1","4473","0"
"080918","11:18:41","426662379","542141740","4.0.10.0","1","2","demographics","age","0","0","0","0","0","0","34","1","2442","0"
"080918","11:18:41","426662379","542141740","4.0.10.0","1","3","demographics","gender","0","0","0","0","0","0","male","1","3797","0"
"080918","14:18:39","302234500","658590855","4.0.10.0","1","1","demographics","ProlificCode","0","0","0","0","0","0","5b32c63da8327d0001002779","1","23429","0"
"080918","14:18:39","302234500","658590855","4.0.10.0","1","2","demographics","age","0","0","0","0","0","0","42","1","4733","0"
"080918","14:18:39","302234500","658590855","4.0.10.0","1","3","demographics","gender","0","0","0","0","0","0","Male","1","6081","0"
"080918","14:19:47","315164558","790617792","4.0.10.0","1","1","demographics","ProlificCode","0","0","0","0","0","0","5adb40e0f6b58c0001fa33d3","1","14604","0"
"080918","14:19:47","315164558","790617792","4.0.10.0","1","2","demographics","age","0","0","0","0","0","0","41","1","8844","0"
"080918","14:19:47","315164558","790617792","4.0.10.0","1","3","demographics","gender","0","0","0","0","0","0","female","1","7270","0"
"080918","11:21:07","983317561","989770382","4.0.10.0","1","1","demographics","ProlificCode","0","0","0","0","0","0","5a39022d5a83ff00015aee65","1","8186","0"
"080918","11:21:07","983317561","989770382","4.0.10.0","1","2","demographics","age","0","0","0","0","0","0","30","1","2976","0"
"080918","11:21:07","983317561","989770382","4.0.10.0","1","3","demographics","gender","0","0","0","0","0","0","Male","1","3963","0"
"080918","11:21:40","426662379","542141740","4.0.10.0","1","1","demographics","ProlificCode","0","0","0","0","0","0","5931cd454e31b50001ce1559","1","1827","0"
"080918","11:21:40","426662379","542141740","4.0.10.0","1","2","demographics","age","0","0","0","0","0","0","34","1","2231","0"
"080918","11:21:40","426662379","542141740","4.0.10.0","1","3","demographics","gender","0","0","0","0","0","0","male","1","2883","0"
"080918","11:25:34","589256826","814418286","4.0.10.0","1","1","demographics","ProlificCode","0","0","0","0","0","0","5a8dea1a000dab00018cf018","1","6364","0"
"080918","11:25:34","589256826","814418286","4.0.10.0","1","2","demographics","age","0","0","0","0","0","0","26","1","3030","0"
"080918","11:25:34","589256826","814418286","4.0.10.0","1","3","demographics","gender","0","0","0","0","0","0","Male","1","4520","0"
"080918","14:26:20","513534946","371116988","4.0.10.0","1","1","demographics","ProlificCode","0","0","0","0","0","0","5adf59e3dee8590001b05de4","1","36530","0"
"080918","14:26:20","513534946","371116988","4.0.10.0","1","2","demographics","age","0","0","0","0","0","0","29","1","3519","0"
"080918","14:26:20","513534946","371116988","4.0.10.0","1","3","demographics","gender","0","0","0","0","0","0","Male","1","3625","0"
"080918","11:26:55","870447858","793073645","4.0.10.0","1","1","demographics","ProlificCode","0","0","0","0","0","0","5aa71fb34eecca0001ddff5b","1","8073","0"
"080918","11:26:55","870447858","793073645","4.0.10.0","1","2","demographics","age","0","0","0","0","0","0","21","1","5460","0"
"080918","11:26:55","870447858","793073645","4.0.10.0","1","3","demographics","gender","0","0","0","0","0","0","Female","1","6735","0"
"080918","14:28:32","222159","98170356","4.0.10.0","1","1","demographics","ProlificCode","0","0","0","0","0","0","55d86f3569dbc30012b6869f","1","2840","0"
"080918","14:28:32","222159","98170356","4.0.10.0","1","2","demographics","age","0","0","0","0","0","0","29","1","3718","0"
"080918","14:28:32","222159","98170356","4.0.10.0","1","3","demographics","gender","0","0","0","0","0","0","Female","1","5537","0"
"080918","11:28:35","610648423","358155700","4.0.10.0","1","1","demographics","ProlificCode","0","0","0","0","0","0","5aac5ceb899a3b000168025a","1","21061","0"
"080918","11:28:35","610648423","358155700","4.0.10.0","1","2","demographics","age","0","0","0","0","0","0","24","1","4051","0"
"080918","11:28:35","610648423","358155700","4.0.10.0","1","3","demographics","gender","0","0","0","0","0","0","Female","1","4616","0"
"080918","14:29:23","178955995","150651228","4.0.10.0","1","1","demographics","ProlificCode","0","0","0","0","0","0","55b8d0bffdf99b0f2859fe73","1","3154","0"
"080918","14:29:23","178955995","150651228","4.0.10.0","1","2","demographics","age","0","0","0","0","0","0","37","1","2283","0"
"080918","14:29:23","178955995","150651228","4.0.10.0","1","3","demographics","gender","0","0","0","0","0","0","male","1","3102","0"
"080918","11:29:06","429120328","760814209","4.0.10.0","1","1","demographics","ProlificCode","0","0","0","0","0","0","5b4ccba2e893120001247e9e","1","20748","0"
"080918","11:29:06","429120328","760814209","4.0.10.0","1","2","demographics","age","0","0","0","0","0","0","22","1","3265","0"
"080918","11:29:06","429120328","760814209","4.0.10.0","1","3","demographics","gender","0","0","0","0","0","0","Male","1","3922","0"
"080918","13:29:09","893819994","204572509","4.0.10.0","1","1","demographics","ProlificCode","0","0","0","0","0","0","5774a41a25b75a0001adae1f ","1","15956","0"
"080918","13:29:09","893819994","204572509","4.0.10.0","1","2","demographics","age","0","0","0","0","0","0","62","1","4358","0"
"080918","13:29:09","893819994","204572509","4.0.10.0","1","3","demographics","gender","0","0","0","0","0","0","Female","1","10877","0"
"080918","12:30:05","501817360","700379780","4.0.10.0","1","1","demographics","ProlificCode","0","0","0","0","0","0","5a444e06817d1800018d11be","1","5212","0"
"080918","12:30:05","501817360","700379780","4.0.10.0","1","2","demographics","age","0","0","0","0","0","0","28","1","2492","0"
"080918","12:30:05","501817360","700379780","4.0.10.0","1","3","demographics","gender","0","0","0","0","0","0","Male","1","3850","0"
"080918","12:30:18","412760579","775087065","4.0.10.0","1","1","demographics","ProlificCode","0","0","0","0","0","0","5a883128b093f80001a7eeec","1","34690","0"
"080918","12:30:18","412760579","775087065","4.0.10.0","1","2","demographics","age","0","0","0","0","0","0","28","1","2701","0"
"080918","12:30:18","412760579","775087065","4.0.10.0","1","3","demographics","gender","0","0","0","0","0","0","Female","1","5230","0"
"080918","11:37:10","818633816","901997576","4.0.10.0","1","1","demographics","ProlificCode","0","0","0","0","0","0","5ad1ecc8a010190001b360d3","1","10018","0"
"080918","11:37:10","818633816","901997576","4.0.10.0","1","2","demographics","age","0","0","0","0","0","0","23","1","3176","0"
"080918","11:37:10","818633816","901997576","4.0.10.0","1","3","demographics","gender","0","0","0","0","0","0","Female","1","5911","0"
"080918","13:39:18","655251706","84443238","4.0.10.0","1","1","demographics","ProlificCode","0","0","0","0","0","0","558812eefdf99b14f004b722","1","8709","0"
"080918","13:39:18","655251706","84443238","4.0.10.0","1","2","demographics","age","0","0","0","0","0","0","33","1","3447","0"
"080918","13:39:18","655251706","84443238","4.0.10.0","1","3","demographics","gender","0","0","0","0","0","0","male","1","3495","0"
"080918","13:39:16","502536006","932465236","4.0.10.0","1","1","demographics","ProlificCode","0","0","0","0","0","0","5b4dba7250f6e9000120902c","1","19668","0"
"080918","13:39:16","502536006","932465236","4.0.10.0","1","2","demographics","age","0","0","0","0","0","0","19","1","3822","0"
"080918","13:39:16","502536006","932465236","4.0.10.0","1","3","demographics","gender","0","0","0","0","0","0","female","1","4273","0"
"080918","13:40:18","600880696","138814248","4.0.10.0","1","1","demographics","ProlificCode","0","0","0","0","0","0","5b6774a1e0127f0001c2db5a","1","11872","0"
"080918","13:40:18","600880696","138814248","4.0.10.0","1","2","demographics","age","0","0","0","0","0","0","23","1","3053","0"
"080918","13:40:18","600880696","138814248","4.0.10.0","1","3","demographics","gender","0","0","0","0","0","0","Female","1","5070","0"
"080918","13:39:58","149997378","272741273","4.0.10.0","1","1","demographics","ProlificCode","0","0","0","0","0","0","5a84d77feea3d300016e67ef","1","60852","0"
"080918","13:39:58","149997378","272741273","4.0.10.0","1","2","demographics","age","0","0","0","0","0","0","28","1","3509","0"
"080918","13:39:58","149997378","272741273","4.0.10.0","1","3","demographics","gender","0","0","0","0","0","0","female","1","4209","0"
"080918","11:44:08","903826313","194566192","4.0.10.0","1","1","demographics","ProlificCode","0","0","0","0","0","0","5928b05e590f0b000126edb8","1","11173","0"
"080918","11:44:08","903826313","194566192","4.0.10.0","1","2","demographics","age","0","0","0","0","0","0","21","1","1838","0"
"080918","11:44:08","903826313","194566192","4.0.10.0","1","3","demographics","gender","0","0","0","0","0","0","Male","1","2691","0"
"080918","14:44:33","569047371","937843455","4.0.10.0","1","1","demographics","ProlificCode","0","0","0","0","0","0","59a619a8dc50b30001f3063d","1","16495","0"
"080918","14:44:33","569047371","937843455","4.0.10.0","1","2","demographics","age","0","0","0","0","0","0","25","1","2444","0"
"080918","14:44:33","569047371","937843455","4.0.10.0","1","3","demographics","gender","0","0","0","0","0","0","female","1","2678","0"
"080918","11:45:27","903826313","194566192","4.0.10.0","1","1","demographics","ProlificCode","0","0","0","0","0","0","5928b05e590f0b000126edb8","1","2872","0"
"080918","11:45:27","903826313","194566192","4.0.10.0","1","2","demographics","age","0","0","0","0","0","0","21","1","2345","0"
"080918","11:45:27","903826313","194566192","4.0.10.0","1","3","demographics","gender","0","0","0","0","0","0","Male","1","2432","0"
"080918","13:45:49","409181854","318839397","4.0.10.0","1","1","demographics","ProlificCode","0","0","0","0","0","0","5a0f3524087f2e0001eaed5c","1","35843","0"
"080918","13:45:49","409181854","318839397","4.0.10.0","1","2","demographics","age","0","0","0","0","0","0","45","1","2989","0"
"080918","13:45:49","409181854","318839397","4.0.10.0","1","3","demographics","gender","0","0","0","0","0","0","female","1","4341","0"
"080918","14:47:49","185317084","218358035","4.0.10.0","1","1","demographics","ProlificCode","0","0","0","0","0","0","5652186a812a980012fe65ce","1","21255","0"
"080918","14:47:49","185317084","218358035","4.0.10.0","1","2","demographics","age","0","0","0","0","0","0","26","1","3868","0"
"080918","14:47:49","185317084","218358035","4.0.10.0","1","3","demographics","gender","0","0","0","0","0","0","Female","1","5652","0"
"080918","13:49:24","720492212","694856579","4.0.10.0","1","1","demographics","ProlificCode","0","0","0","0","0","0","","1","16996","0"
"080918","14:49:35","833807306","360411069","4.0.10.0","1","1","demographics","ProlificCode","0","0","0","0","0","0","5b271fed8ecf3f00016194de","1","6837","0"
"080918","14:49:35","833807306","360411069","4.0.10.0","1","2","demographics","age","0","0","0","0","0","0","23","1","3150","0"
"080918","14:49:35","833807306","360411069","4.0.10.0","1","3","demographics","gender","0","0","0","0","0","0","Female","1","3622","0"
"080918","13:50:06","720492212","694856579","4.0.10.0","1","1","demographics","ProlificCode","0","0","0","0","0","0","5699cf0625d9e9000db0c789","1","4438","0"
"080918","13:50:06","720492212","694856579","4.0.10.0","1","2","demographics","age","0","0","0","0","0","0","55","1","3533","0"
"080918","13:50:06","720492212","694856579","4.0.10.0","1","3","demographics","gender","0","0","0","0","0","0","female","1","4141","0"
"080918","13:55:56","565401713","857925846","4.0.10.0","1","1","demographics","ProlificCode","0","0","0","0","0","0","5b2a86867f7816000146923a","1","14238","0"
"080918","13:55:56","565401713","857925846","4.0.10.0","1","2","demographics","age","0","0","0","0","0","0","19","1","2532","0"
"080918","13:55:56","565401713","857925846","4.0.10.0","1","3","demographics","gender","0","0","0","0","0","0","Female","1","3235","0"
"080918","14:56:05","619318213","486184649","4.0.10.0","1","1","demographics","ProlificCode","0","0","0","0","0","0","5b5c9c5a2696a70001ee7045","1","7599","0"
"080918","14:56:05","619318213","486184649","4.0.10.0","1","2","demographics","age","0","0","0","0","0","0","24","1","4284","0"
"080918","14:56:05","619318213","486184649","4.0.10.0","1","3","demographics","gender","0","0","0","0","0","0","Male","1","2765","0"
"080918","14:57:11","408895922","171062326","4.0.10.0","1","1","demographics","ProlificCode","0","0","0","0","0","0","5b53253247271300018458d2","1","76908","0"
"080918","14:57:11","408895922","171062326","4.0.10.0","1","2","demographics","age","0","0","0","0","0","0","24","1","4394","0"
"080918","14:57:11","408895922","171062326","4.0.10.0","1","3","demographics","gender","0","0","0","0","0","0","Male","1","3932","0"
"080918","15:07:50","890430092","448745278","4.0.10.0","1","1","demographics","ProlificCode","0","0","0","0","0","0","5b67912a40003400016fa6e0","1","10403","0"
"080918","15:07:50","890430092","448745278","4.0.10.0","1","2","demographics","age","0","0","0","0","0","0","32","1","4668","0"
"080918","15:07:50","890430092","448745278","4.0.10.0","1","3","demographics","gender","0","0","0","0","0","0","Male","1","4073","0"
"080918","14:09:12","793035629","546139743","4.0.10.0","1","1","demographics","ProlificCode","0","0","0","0","0","0","5a2e19cca3a512000195866a","1","5126","0"
"080918","14:09:12","793035629","546139743","4.0.10.0","1","2","demographics","age","0","0","0","0","0","0","23","1","4395","0"
"080918","14:09:12","793035629","546139743","4.0.10.0","1","3","demographics","gender","0","0","0","0","0","0","male","1","3321","0"
"080918","14:11:29","711457331","183370313","4.0.10.0","1","1","demographics","ProlificCode","0","0","0","0","0","0","59f3253acde13e00019a3f46","1","6099","0"
"080918","14:11:29","711457331","183370313","4.0.10.0","1","2","demographics","age","0","0","0","0","0","0","41","1","2907","0"
"080918","14:11:29","711457331","183370313","4.0.10.0","1","3","demographics","gender","0","0","0","0","0","0","Female","1","4133","0"
"080918","15:11:26","81798076","197466882","4.0.10.0","1","1","demographics","ProlificCode","0","0","0","0","0","0","5b3c4005b6b44100016160e7","1","15209","0"
"080918","15:11:26","81798076","197466882","4.0.10.0","1","2","demographics","age","0","0","0","0","0","0","25","1","5049","0"
"080918","15:11:26","81798076","197466882","4.0.10.0","1","3","demographics","gender","0","0","0","0","0","0","female","1","4113","0"
"080918","12:12:21","732623378","670462809","4.0.10.0","1","1","demographics","ProlificCode","0","0","0","0","0","0","56c2f65cc51218000c9786ff","1","7258","0"
"080918","12:12:21","732623378","670462809","4.0.10.0","1","2","demographics","age","0","0","0","0","0","0","34","1","3265","0"
"080918","12:12:21","732623378","670462809","4.0.10.0","1","3","demographics","gender","0","0","0","0","0","0","male","1","4842","0"
"080918","14:12:58","735025610","908843444","4.0.10.0","1","1","demographics","ProlificCode","0","0","0","0","0","0","5b1eff2f3522660001b4693e","1","6960","0"
"080918","14:12:58","735025610","908843444","4.0.10.0","1","2","demographics","age","0","0","0","0","0","0","25","1","2016","0"
"080918","14:12:58","735025610","908843444","4.0.10.0","1","3","demographics","gender","0","0","0","0","0","0","female","1","2836","0"
"080918","15:12:48","577580936","540464023","4.0.10.0","1","1","demographics","ProlificCode","0","0","0","0","0","0","5a8d8079190420000156435d","1","14298","0"
"080918","15:12:48","577580936","540464023","4.0.10.0","1","2","demographics","age","0","0","0","0","0","0","34","1","5401","0"
"080918","15:12:48","577580936","540464023","4.0.10.0","1","3","demographics","gender","0","0","0","0","0","0","male","1","7835","0"
"080918","15:14:26","365804963","576869868","4.0.10.0","1","1","demographics","ProlificCode","0","0","0","0","0","0","583779e9f1652600010c3e63","1","11584","0"
"080918","15:14:26","365804963","576869868","4.0.10.0","1","2","demographics","age","0","0","0","0","0","0","31","1","2544","0"
"080918","15:14:26","365804963","576869868","4.0.10.0","1","3","demographics","gender","0","0","0","0","0","0","Male","1","3721","0"
"080918","14:21:20","319664362","946443588","4.0.10.0","1","1","demographics","ProlificCode","0","0","0","0","0","0","597f67e902a9bc0001ba1b42","1","7619","0"
"080918","14:21:20","319664362","946443588","4.0.10.0","1","2","demographics","age","0","0","0","0","0","0","29","1","13196","0"
"080918","14:21:20","319664362","946443588","4.0.10.0","1","3","demographics","gender","0","0","0","0","0","0","Female","1","15810","0"
"080918","15:25:02","101239493","618802996","4.0.10.0","1","1","demographics","ProlificCode","0","0","0","0","0","0","589ce4d65e63bf00013b3175","1","7978","0"
"080918","15:25:02","101239493","618802996","4.0.10.0","1","2","demographics","age","0","0","0","0","0","0","23","1","3012","0"
"080918","15:25:02","101239493","618802996","4.0.10.0","1","3","demographics","gender","0","0","0","0","0","0","female","1","2807","0"
"080918","15:28:34","591821602","209267071","4.0.10.0","1","1","demographics","ProlificCode","0","0","0","0","0","0","5ab7de31e1546900019b6a5d","1","13522","0"
"080918","15:28:34","591821602","209267071","4.0.10.0","1","2","demographics","age","0","0","0","0","0","0","18","1","3011","0"
"080918","15:28:34","591821602","209267071","4.0.10.0","1","3","demographics","gender","0","0","0","0","0","0","Male","1","4025","0"
"080918","12:33:38","799851721","615497073","4.0.10.0","1","1","demographics","ProlificCode","0","0","0","0","0","0","5b0f22b6612e7b0001e377fa","1","19666","0"
"080918","12:33:38","799851721","615497073","4.0.10.0","1","2","demographics","age","0","0","0","0","0","0","24","1","3233","0"
"080918","12:33:38","799851721","615497073","4.0.10.0","1","3","demographics","gender","0","0","0","0","0","0","Female","1","2805","0"
"080918","12:35:06","286740426","514348240","4.0.10.0","1","1","demographics","ProlificCode","0","0","0","0","0","0","5b18647968a5ed00017343ec","1","13594","0"
"080918","12:35:06","286740426","514348240","4.0.10.0","1","2","demographics","age","0","0","0","0","0","0","34","1","3384","0"
"080918","12:35:06","286740426","514348240","4.0.10.0","1","3","demographics","gender","0","0","0","0","0","0","Female","1","3657","0"
"080918","15:36:07","248823478","331134774","4.0.10.0","1","1","demographics","ProlificCode","0","0","0","0","0","0","58a22cd060cd820001e99ef3","1","10365","0"
"080918","15:36:07","248823478","331134774","4.0.10.0","1","2","demographics","age","0","0","0","0","0","0","30","1","3986","0"
"080918","15:36:07","248823478","331134774","4.0.10.0","1","3","demographics","gender","0","0","0","0","0","0","male","1","3563","0"
"080918","14:41:48","997256399","867743068","4.0.10.0","1","1","demographics","ProlificCode","0","0","0","0","0","0","5a32cc2f5f16800001c6ded8","1","9453","0"
"080918","14:41:48","997256399","867743068","4.0.10.0","1","2","demographics","age","0","0","0","0","0","0","40","1","6688","0"
"080918","14:41:48","997256399","867743068","4.0.10.0","1","3","demographics","gender","0","0","0","0","0","0","female","1","7179","0"
"080918","14:42:22","483588149","855587217","4.0.10.0","1","1","demographics","ProlificCode","0","0","0","0","0","0","5b27e2e54790440001409d62","1","4260","0"
"080918","14:42:22","483588149","855587217","4.0.10.0","1","2","demographics","age","0","0","0","0","0","0","36","1","4598","0"
"080918","14:42:22","483588149","855587217","4.0.10.0","1","3","demographics","gender","0","0","0","0","0","0","Male","1","4833","0"
"080918","15:44:18","584780966","59088105","4.0.10.0","1","1","demographics","ProlificCode","0","0","0","0","0","0","5b0cb6dd9663ee00014594ae","1","5897","0"
"080918","15:44:18","584780966","59088105","4.0.10.0","1","2","demographics","age","0","0","0","0","0","0","30","1","3361","0"
"080918","15:44:18","584780966","59088105","4.0.10.0","1","3","demographics","gender","0","0","0","0","0","0","female","1","5340","0"
"080918","15:45:15","704037481","23704276","4.0.10.0","1","1","demographics","ProlificCode","0","0","0","0","0","0","5aa60e39777df2000160738b","1","10792","0"
"080918","15:45:15","704037481","23704276","4.0.10.0","1","2","demographics","age","0","0","0","0","0","0","19","1","4043","0"
"080918","15:45:15","704037481","23704276","4.0.10.0","1","3","demographics","gender","0","0","0","0","0","0","female","1","3262","0"
"080918","12:44:45","736777264","128222221","4.0.10.0","1","1","demographics","ProlificCode","0","0","0","0","0","0","5aa1cea3873cda00010d44d3","1","9054","0"
"080918","12:44:45","736777264","128222221","4.0.10.0","1","2","demographics","age","0","0","0","0","0","0","21","1","3662","0"
"080918","12:44:45","736777264","128222221","4.0.10.0","1","3","demographics","gender","0","0","0","0","0","0","Male","1","5007","0"
"080918","15:47:33","813281018","609457621","4.0.10.0","1","1","demographics","ProlificCode","0","0","0","0","0","0","59daea555cddae0001ff06cb","1","12922","0"
"080918","15:47:33","813281018","609457621","4.0.10.0","1","2","demographics","age","0","0","0","0","0","0","21","1","2262","0"
"080918","15:47:33","813281018","609457621","4.0.10.0","1","3","demographics","gender","0","0","0","0","0","0","Female ","1","3522","0"
"080918","15:48:12","501938018","901737082","4.0.10.0","1","1","demographics","ProlificCode","0","0","0","0","0","0","5b1a92fb3522660001b417c3","1","4933","0"
"080918","15:48:12","501938018","901737082","4.0.10.0","1","2","demographics","age","0","0","0","0","0","0","20","1","2700","0"
"080918","15:48:12","501938018","901737082","4.0.10.0","1","3","demographics","gender","0","0","0","0","0","0","Female","1","3750","0"
"080918","14:49:29","42749418","456453443","4.0.10.0","1","1","demographics","ProlificCode","0","0","0","0","0","0","5acbcb3a5f51e90001cf8f26","1","18157","0"
"080918","14:49:29","42749418","456453443","4.0.10.0","1","2","demographics","age","0","0","0","0","0","0","24","1","5519","0"
"080918","14:49:29","42749418","456453443","4.0.10.0","1","3","demographics","gender","0","0","0","0","0","0","male","1","4586","0"
"080918","14:54:38","824256082","831875577","4.0.10.0","1","1","demographics","ProlificCode","0","0","0","0","0","0","5ae0e9adeb6040000153c2cc","1","4813","0"
"080918","14:54:38","824256082","831875577","4.0.10.0","1","2","demographics","age","0","0","0","0","0","0","34","1","4947","0"
"080918","14:54:38","824256082","831875577","4.0.10.0","1","3","demographics","gender","0","0","0","0","0","0","Female","1","5329","0"
"080918","15:54:43","876999052","526087134","4.0.10.0","1","1","demographics","ProlificCode","0","0","0","0","0","0","5ad7835e9c198c0001fad31a","1","32579","0"
"080918","15:54:43","876999052","526087134","4.0.10.0","1","2","demographics","age","0","0","0","0","0","0","29","1","5088","0"
"080918","15:54:43","876999052","526087134","4.0.10.0","1","3","demographics","gender","0","0","0","0","0","0","female","1","6895","0"
"080918","12:57:15","530508677","346753407","4.0.10.0","1","1","demographics","ProlificCode","0","0","0","0","0","0","5b4d8a4746bd280001994d2e","1","4173","0"
"080918","12:57:15","530508677","346753407","4.0.10.0","1","2","demographics","age","0","0","0","0","0","0","19","1","5343","0"
"080918","12:57:15","530508677","346753407","4.0.10.0","1","3","demographics","gender","0","0","0","0","0","0","male","1","4663","0"
"080918","16:07:55","643370640","603084869","4.0.10.0","1","1","demographics","ProlificCode","0","0","0","0","0","0","55bff22bfdf99b587856b996","1","4486","0"
"080918","16:07:55","643370640","603084869","4.0.10.0","1","2","demographics","age","0","0","0","0","0","0","46","1","3184","0"
"080918","16:07:55","643370640","603084869","4.0.10.0","1","3","demographics","gender","0","0","0","0","0","0","female","1","3895","0"
"080918","15:07:22","375918538","806037224","4.0.10.0","1","1","demographics","ProlificCode","0","0","0","0","0","0","5b0cdaaf966ee0001459738","1","135448","0"
"080918","15:07:22","375918538","806037224","4.0.10.0","1","2","demographics","age","0","0","0","0","0","0","23","1","3667","0"
"080918","15:07:22","375918538","806037224","4.0.10.0","1","3","demographics","gender","0","0","0","0","0","0","male","1","3879","0"
"080918","16:10:48","175015994","457179380","4.0.10.0","1","1","demographics","ProlificCode","0","0","0","0","0","0","5a8b4aab19042000015626be","1","4107","0"
"080918","16:10:48","175015994","457179380","4.0.10.0","1","2","demographics","age","0","0","0","0","0","0","20","1","3271","0"
"080918","16:10:48","175015994","457179380","4.0.10.0","1","3","demographics","gender","0","0","0","0","0","0","male","1","3023","0"
"080918","15:08:34","481797087","17703893","4.0.10.0","1","1","demographics","ProlificCode","0","0","0","0","0","0","5b1a2ca04c72120001f1e491","1","50838","0"
"080918","15:08:34","481797087","17703893","4.0.10.0","1","2","demographics","age","0","0","0","0","0","0","31","1","3293","0"
"080918","15:08:34","481797087","17703893","4.0.10.0","1","3","demographics","gender","0","0","0","0","0","0","F","1","2946","0"
"080918","13:14:32","640634637","541321140","4.0.10.0","1","1","demographics","ProlificCode","0","0","0","0","0","0","59acabcd8a929800014ad8db","1","6525","0"
"080918","13:14:32","640634637","541321140","4.0.10.0","1","2","demographics","age","0","0","0","0","0","0","45","1","2297","0"
"080918","13:14:32","640634637","541321140","4.0.10.0","1","3","demographics","gender","0","0","0","0","0","0","male","1","4303","0"
"080918","13:16:18","267390917","934806219","4.0.10.0","1","1","demographics","ProlificCode","0","0","0","0","0","0","56fb36ca34a0d3000b1a5701","1","6539","0"
"080918","13:16:18","267390917","934806219","4.0.10.0","1","2","demographics","age","0","0","0","0","0","0","52","1","7035","0"
"080918","13:16:18","267390917","934806219","4.0.10.0","1","3","demographics","gender","0","0","0","0","0","0","female","1","7483","0"
"080918","15:24:59","370427591","293682837","4.0.10.0","1","1","demographics","ProlificCode","0","0","0","0","0","0","5b245ce134ffd00001b41c00","1","9588","0"
"080918","15:24:59","370427591","293682837","4.0.10.0","1","2","demographics","age","0","0","0","0","0","0","18","1","3353","0"
"080918","15:24:59","370427591","293682837","4.0.10.0","1","3","demographics","gender","0","0","0","0","0","0","Female","1","3176","0"
"080918","13:27:36","915574519","45250838","4.0.10.0","1","1","demographics","ProlificCode","0","0","0","0","0","0","5971678a888ab80001040d2d","1","4622","0"
"080918","13:27:36","915574519","45250838","4.0.10.0","1","2","demographics","age","0","0","0","0","0","0","23  ","1","5150","0"
"080918","13:27:36","915574519","45250838","4.0.10.0","1","3","demographics","gender","0","0","0","0","0","0","male","1","3667","0"
"080918","13:28:14","33033264","694987987","4.0.10.0","1","1","demographics","ProlificCode","0","0","0","0","0","0","59ac80669fdf6c0001cba8d0","1","10994","0"
"080918","13:28:14","33033264","694987987","4.0.10.0","1","2","demographics","age","0","0","0","0","0","0","26","1","6701","0"
"080918","13:28:14","33033264","694987987","4.0.10.0","1","3","demographics","gender","0","0","0","0","0","0","male","1","5733","0"
"080918","13:28:55","842009453","35252637","4.0.10.0","1","1","demographics","ProlificCode","0","0","0","0","0","0","56f468d50800a6000c1bc5c1","1","2915","0"
"080918","13:28:55","842009453","35252637","4.0.10.0","1","2","demographics","age","0","0","0","0","0","0","26","1","2667","0"
"080918","13:28:55","842009453","35252637","4.0.10.0","1","3","demographics","gender","0","0","0","0","0","0","Male","1","4705","0"
"080918","13:30:57","842009453","35252637","4.0.10.0","1","1","demographics","ProlificCode","0","0","0","0","0","0","56f468d50800a6000c1bc5c1","1","3115","0"
"080918","13:30:57","842009453","35252637","4.0.10.0","1","2","demographics","age","0","0","0","0","0","0","26","1","2538","0"
"080918","13:30:57","842009453","35252637","4.0.10.0","1","3","demographics","gender","0","0","0","0","0","0","Male","1","1806","0"
"081018","08:33:07","570217120","370955787","4.0.10.0","1","1","demographics","ProlificCode","0","0","0","0","0","0","5b0a02b330d5620001551adb","1","7623","0"
"081018","08:33:07","570217120","370955787","4.0.10.0","1","2","demographics","age","0","0","0","0","0","0","25","1","6713","0"
"081018","08:33:07","570217120","370955787","4.0.10.0","1","3","demographics","gender","0","0","0","0","0","0","Male","1","4139","0"
"080918","13:38:21","859437685","804083820","4.0.10.0","1","1","demographics","ProlificCode","0","0","0","0","0","0","5ac47e09f69e940001d97449","1","30366","0"
"080918","13:38:21","859437685","804083820","4.0.10.0","1","2","demographics","age","0","0","0","0","0","0","37","1","4931","0"
"080918","13:38:21","859437685","804083820","4.0.10.0","1","3","demographics","gender","0","0","0","0","0","0","Female","1","3580","0"
"080918","13:39:12","525071179","416690637","4.0.10.0","1","1","demographics","ProlificCode","0","0","0","0","0","0","5af7561ae19f8c00019e5db3 ","1","30462","0"
"080918","13:39:12","525071179","416690637","4.0.10.0","1","2","demographics","age","0","0","0","0","0","0","29","1","8970","0"
"080918","13:39:12","525071179","416690637","4.0.10.0","1","3","demographics","gender","0","0","0","0","0","0","woman","1","4391","0"
"080918","15:39:45","981908485","650286878","4.0.10.0","1","1","demographics","ProlificCode","0","0","0","0","0","0","5ac8328afa3b4e0001738e4e","1","12517","0"
"080918","15:39:45","981908485","650286878","4.0.10.0","1","2","demographics","age","0","0","0","0","0","0","55","1","5143","0"
"080918","15:39:45","981908485","650286878","4.0.10.0","1","3","demographics","gender","0","0","0","0","0","0","female","1","8978","0"
"080918","15:55:43","179018051","926764296","4.0.10.0","1","1","demographics","ProlificCode","0","0","0","0","0","0","5955a3eb98c9c400019f5c5f","1","5401","0"
"080918","15:55:43","179018051","926764296","4.0.10.0","1","2","demographics","age","0","0","0","0","0","0","22","1","12045","0"
"080918","15:55:43","179018051","926764296","4.0.10.0","1","3","demographics","gender","0","0","0","0","0","0","Female","1","5214","0"
"080918","14:03:43","794700597","471407358","4.0.10.0","1","1","demographics","ProlificCode","0","0","0","0","0","0","599bf0606c165e000113fe27","1","9201","0"
"080918","14:03:43","794700597","471407358","4.0.10.0","1","2","demographics","age","0","0","0","0","0","0","32","1","3436","0"
"080918","14:03:43","794700597","471407358","4.0.10.0","1","3","demographics","gender","0","0","0","0","0","0","FEMALE","1","6088","0"
"080918","20:12:52","542394073","304405156","4.0.10.0","1","1","demographics","ProlificCode","0","0","0","0","0","0","58e5aa492e66e40001e97b61","1","22256","0"
"080918","20:12:52","542394073","304405156","4.0.10.0","1","2","demographics","age","0","0","0","0","0","0","22","1","4056","0"
"080918","20:12:52","542394073","304405156","4.0.10.0","1","3","demographics","gender","0","0","0","0","0","0","Female","1","4184","0"
"080918","20:27:25","121430734","767963475","4.0.10.0","1","1","demographics","ProlificCode","0","0","0","0","0","0","5b10a1ce30d562000155ac74","1","111035","0"
"080918","20:27:25","121430734","767963475","4.0.10.0","1","2","demographics","age","0","0","0","0","0","0","41","1","4677","0"
"080918","20:27:25","121430734","767963475","4.0.10.0","1","3","demographics","gender","0","0","0","0","0","0","m","1","3365","0"
"080918","19:31:59","712040084","166921097","4.0.10.0","1","1","demographics","ProlificCode","0","0","0","0","0","0","5b523bdc608e18000184d8a6","1","4645","0"
"080918","19:31:59","712040084","166921097","4.0.10.0","1","2","demographics","age","0","0","0","0","0","0","20","1","2924","0"
"080918","19:31:59","712040084","166921097","4.0.10.0","1","3","demographics","gender","0","0","0","0","0","0","Male","1","3804","0"
"080918","17:39:14","735679594","842278169","4.0.10.0","1","1","demographics","ProlificCode","0","0","0","0","0","0","59dec1e3be399f0001e497b0","1","13584","0"
"080918","17:39:14","735679594","842278169","4.0.10.0","1","2","demographics","age","0","0","0","0","0","0","31","1","4382","0"
"080918","17:39:14","735679594","842278169","4.0.10.0","1","3","demographics","gender","0","0","0","0","0","0","Male","1","4732","0"
"080918","20:50:23","390438783","36971546","4.0.10.0","1","1","demographics","ProlificCode","0","0","0","0","0","0","5b32599cc8e94a00018f22a5","1","49551","0"
"080918","20:50:23","390438783","36971546","4.0.10.0","1","2","demographics","age","0","0","0","0","0","0","28","1","3739","0"
"080918","20:50:23","390438783","36971546","4.0.10.0","1","3","demographics","gender","0","0","0","0","0","0","Male","1","5368","0"
"080918","20:52:54","213251399","943889616","4.0.10.0","1","1","demographics","ProlificCode","0","0","0","0","0","0","59f135ba5de9b000017ed936","1","24562","0"
"080918","20:52:54","213251399","943889616","4.0.10.0","1","2","demographics","age","0","0","0","0","0","0","26","1","3696","0"
"080918","20:52:54","213251399","943889616","4.0.10.0","1","3","demographics","gender","0","0","0","0","0","0","female","1","3716","0"
"080918","17:52:22","972431589","384312783","4.0.10.0","1","1","demographics","ProlificCode","0","0","0","0","0","0","592bb32c943e670001cde123","1","96148","0"
"080918","17:52:22","972431589","384312783","4.0.10.0","1","2","demographics","age","0","0","0","0","0","0","33","1","4730","0"
"080918","17:52:22","972431589","384312783","4.0.10.0","1","3","demographics","gender","0","0","0","0","0","0","Male","1","2876","0"
"080918","19:58:48","954569374","62735931","4.0.10.0","1","1","demographics","ProlificCode","0","0","0","0","0","0","5aea8af89e185a0001b9de61","1","4406","0"
"080918","19:58:48","954569374","62735931","4.0.10.0","1","2","demographics","age","0","0","0","0","0","0","31 ","1","4742","0"
"080918","19:58:48","954569374","62735931","4.0.10.0","1","3","demographics","gender","0","0","0","0","0","0","Male","1","3252","0"
"080918","18:03:02","553442543","272453798","4.0.10.0","1","1","demographics","ProlificCode","0","0","0","0","0","0","5aecdb1b75deca0001626624","1","3061","0"
"080918","18:03:02","553442543","272453798","4.0.10.0","1","2","demographics","age","0","0","0","0","0","0","26","1","2517","0"
"080918","18:03:02","553442543","272453798","4.0.10.0","1","3","demographics","gender","0","0","0","0","0","0","Female","1","3957","0"
"080918","18:04:56","772611776","839905453","4.0.10.0","1","1","demographics","ProlificCode","0","0","0","0","0","0","5b08c74de33e2b00016acb41","1","12152","0"
"080918","18:04:56","772611776","839905453","4.0.10.0","1","2","demographics","age","0","0","0","0","0","0","33","1","2927","0"
"080918","18:04:56","772611776","839905453","4.0.10.0","1","3","demographics","gender","0","0","0","0","0","0","female","1","3442","0"
"080918","21:08:26","174645866","357697364","4.0.10.0","1","1","demographics","ProlificCode","0","0","0","0","0","0","592632d090a4ff000103e192","1","4754","0"
"080918","21:08:26","174645866","357697364","4.0.10.0","1","2","demographics","age","0","0","0","0","0","0","28","1","3188","0"
"080918","21:08:26","174645866","357697364","4.0.10.0","1","3","demographics","gender","0","0","0","0","0","0","female","1","4489","0"
"080918","21:11:37","490319118","250482743","4.0.10.0","1","1","demographics","ProlificCode","0","0","0","0","0","0","5a65daf2c0d836000107d1ba","1","4901","0"
"080918","21:11:37","490319118","250482743","4.0.10.0","1","2","demographics","age","0","0","0","0","0","0","37","1","4072","0"
"080918","21:11:37","490319118","250482743","4.0.10.0","1","3","demographics","gender","0","0","0","0","0","0","female","1","6830","0"
"080918","20:11:45","736567388","845013425","4.0.10.0","1","1","demographics","ProlificCode","0","0","0","0","0","0","55a5f19bfdf99b28b5340d00","1","13676","0"
"080918","20:11:45","736567388","845013425","4.0.10.0","1","2","demographics","age","0","0","0","0","0","0","55","1","5007","0"
"080918","20:11:45","736567388","845013425","4.0.10.0","1","3","demographics","gender","0","0","0","0","0","0","male","1","6679","0"
"081018","10:13:47","622261742","456751310","4.0.10.0","1","1","demographics","ProlificCode","0","0","0","0","0","0","5b4d1584703ff10001cb6ea6","1","3438","0"
"081018","10:13:47","622261742","456751310","4.0.10.0","1","2","demographics","age","0","0","0","0","0","0","26","1","4192","0"
"081018","10:13:47","622261742","456751310","4.0.10.0","1","3","demographics","gender","0","0","0","0","0","0","Non-Binary","1","8120","0"
"080918","18:14:36","32295856","138894434","4.0.10.0","1","1","demographics","ProlificCode","0","0","0","0","0","0","5b46c871f4390d0001be9e63","1","30822","0"
"080918","18:14:36","32295856","138894434","4.0.10.0","1","2","demographics","age","0","0","0","0","0","0","22","1","4728","0"
"080918","18:14:36","32295856","138894434","4.0.10.0","1","3","demographics","gender","0","0","0","0","0","0","Male","1","6133","0"
"080918","21:16:52","326398227","969236051","4.0.10.0","1","1","demographics","ProlificCode","0","0","0","0","0","0","57597452e8feea0006ef8805","1","3719","0"
"080918","21:16:52","326398227","969236051","4.0.10.0","1","2","demographics","age","0","0","0","0","0","0","25","1","2638","0"
"080918","21:16:52","326398227","969236051","4.0.10.0","1","3","demographics","gender","0","0","0","0","0","0","Genderfluid","1","3834","0"
"080918","18:17:43","589149206","621421821","4.0.10.0","1","1","demographics","ProlificCode","0","0","0","0","0","0","59c3289b8e6ea10001f7b926","1","27091","0"
"080918","18:17:43","589149206","621421821","4.0.10.0","1","2","demographics","age","0","0","0","0","0","0","31","1","2984","0"
"080918","18:17:43","589149206","621421821","4.0.10.0","1","3","demographics","gender","0","0","0","0","0","0","female","1","2690","0"
"080918","18:18:22","53173622","85446237","4.0.10.0","1","1","demographics","ProlificCode","0","0","0","0","0","0","55333ca0fdf99b13357d28c2","1","10216","0"
"080918","18:18:22","53173622","85446237","4.0.10.0","1","2","demographics","age","0","0","0","0","0","0","32","1","4889","0"
"080918","18:18:22","53173622","85446237","4.0.10.0","1","3","demographics","gender","0","0","0","0","0","0","Female","1","4440","0"
"081018","03:18:31","520006349","352648471","4.0.10.0","1","1","demographics","ProlificCode","0","0","0","0","0","0","56c69d270fa60000065cd4f1 ","1","7075","0"
"081018","03:18:31","520006349","352648471","4.0.10.0","1","2","demographics","age","0","0","0","0","0","0","28","1","7491","0"
"081018","03:18:31","520006349","352648471","4.0.10.0","1","3","demographics","gender","0","0","0","0","0","0","female","1","4725","0"
"080918","18:22:46","53173622","85446237","4.0.10.0","1","1","demographics","ProlificCode","0","0","0","0","0","0","55333ca0fdf99b13357d28c2","1","7849","0"
"080918","18:22:46","53173622","85446237","4.0.10.0","1","2","demographics","age","0","0","0","0","0","0","32","1","2844","0"
"080918","18:22:46","53173622","85446237","4.0.10.0","1","3","demographics","gender","0","0","0","0","0","0","Female","1","6527","0"
"080918","18:31:19","966707078","265910492","4.0.10.0","1","1","demographics","ProlificCode","0","0","0","0","0","0","5af1e97c5bbd0b00015ecd4d","1","13502","0"
"080918","18:31:19","966707078","265910492","4.0.10.0","1","2","demographics","age","0","0","0","0","0","0","41","1","3584","0"
"080918","18:31:19","966707078","265910492","4.0.10.0","1","3","demographics","gender","0","0","0","0","0","0","Female","1","9986","0"
