"","V1","date","time","group","subject","build","blocknum","trialnum","blockcode","trialcode","pretrialpause","posttrialpause","windowcenter","trialduration","trialtimeout","blocktimeout","response","correct","latency","inwindow"
"1",1,80918,"17:22:27",320555493,743970945,"4.0.10.0",1,2,"demographics","age",0,0,0,0,0,0,"q",1,1859,0
"2",2,80918,"17:22:27",320555493,743970945,"4.0.10.0",1,3,"demographics","gender",0,0,0,0,0,0,"q",1,1404,0
"3",3,80918,"11:48:44",39586963,347524095,"4.0.10.0",1,2,"demographics","age",0,0,0,0,0,0,"55",1,4206,0
"4",4,80918,"11:48:44",39586963,347524095,"4.0.10.0",1,3,"demographics","gender",0,0,0,0,0,0,"female",1,8382,0
"5",5,80918,"09:16:06",288208,77268698,"4.0.10.0",1,2,"demographics","age",0,0,0,0,0,0,"35",1,2218,0
"6",6,80918,"09:16:06",288208,77268698,"4.0.10.0",1,3,"demographics","gender",0,0,0,0,0,0,"Male",1,2998,0
"7",7,80918,"12:26:47",173822310,408892577,"4.0.10.0",1,2,"demographics","age",0,0,0,0,0,0,"27",1,3385,0
"8",8,80918,"12:26:47",173822310,408892577,"4.0.10.0",1,3,"demographics","gender",0,0,0,0,0,0,"Male",1,4675,0
"9",9,80918,"12:33:01",975290723,210361004,"4.0.10.0",1,2,"demographics","age",0,0,0,0,0,0,"45",1,2913,0
"10",10,80918,"12:33:01",975290723,210361004,"4.0.10.0",1,3,"demographics","gender",0,0,0,0,0,0,"Male",1,3962,0
"11",11,80918,"12:36:08",789152872,24223154,"4.0.10.0",1,2,"demographics","age",0,0,0,0,0,0,"23",1,3223,0
"12",12,80918,"12:36:08",789152872,24223154,"4.0.10.0",1,3,"demographics","gender",0,0,0,0,0,0,"Cis Female",1,9264,0
"13",13,80918,"12:35:22",124658429,359728694,"4.0.10.0",1,2,"demographics","age",0,0,0,0,0,0,"36",1,3127,0
"14",14,80918,"12:35:22",124658429,359728694,"4.0.10.0",1,3,"demographics","gender",0,0,0,0,0,0,"male",1,3337,0
"15",15,80918,"12:35:17",598884680,833954947,"4.0.10.0",1,2,"demographics","age",0,0,0,0,0,0,"28",1,3215,0
"16",16,80918,"12:35:17",598884680,833954947,"4.0.10.0",1,3,"demographics","gender",0,0,0,0,0,0,"female",1,1674,0
"17",17,80918,"11:38:38",61413571,880653715,"4.0.10.0",1,2,"demographics","age",0,0,0,0,0,0,"32",1,2237,0
"18",18,80918,"11:38:38",61413571,880653715,"4.0.10.0",1,3,"demographics","gender",0,0,0,0,0,0,"woman",1,2849,0
"19",19,80918,"12:45:40",763841809,418702875,"4.0.10.0",1,2,"demographics","age",0,0,0,0,0,0,"34",1,3199,0
"20",20,80918,"12:45:40",763841809,418702875,"4.0.10.0",1,3,"demographics","gender",0,0,0,0,0,0,"female",1,5453,0
"21",21,80918,"11:50:13",741409424,376635527,"4.0.10.0",1,2,"demographics","age",0,0,0,0,0,0,"24",1,5499,0
"22",22,80918,"11:50:13",741409424,376635527,"4.0.10.0",1,3,"demographics","gender",0,0,0,0,0,0,"male",1,3799,0
"23",23,80918,"09:50:58",44712698,675918708,"4.0.10.0",1,2,"demographics","age",0,0,0,0,0,0,"39",1,4959,0
"24",24,80918,"09:50:58",44712698,675918708,"4.0.10.0",1,3,"demographics","gender",0,0,0,0,0,0,"male",1,7185,0
"25",25,80918,"12:50:58",783047680,956349113,"4.0.10.0",1,2,"demographics","age",0,0,0,0,0,0,"35",1,3373,0
"26",26,80918,"12:50:58",783047680,956349113,"4.0.10.0",1,3,"demographics","gender",0,0,0,0,0,0,"Female",1,6569,0
"27",27,80918,"12:53:55",508755107,460049010,"4.0.10.0",1,2,"demographics","age",0,0,0,0,0,0,"38",1,5892,0
"28",28,80918,"12:53:55",508755107,460049010,"4.0.10.0",1,3,"demographics","gender",0,0,0,0,0,0,"Female",1,4518,0
"29",29,80918,"11:54:40",667910883,72372970,"4.0.10.0",1,2,"demographics","age",0,0,0,0,0,0,"32",1,3373,0
"30",30,80918,"11:54:40",667910883,72372970,"4.0.10.0",1,3,"demographics","gender",0,0,0,0,0,0,"male",1,1858,0
"31",31,80918,"11:54:58",822976059,73938476,"4.0.10.0",1,2,"demographics","age",0,0,0,0,0,0,"22",1,1899,0
"32",32,80918,"11:54:58",822976059,73938476,"4.0.10.0",1,3,"demographics","gender",0,0,0,0,0,0,"Male",1,2773,0
"33",33,80918,"12:55:59",60950759,37441758,"4.0.10.0",1,2,"demographics","age",0,0,0,0,0,0,"33",1,3298,0
"34",34,80918,"12:55:59",60950759,37441758,"4.0.10.0",1,3,"demographics","gender",0,0,0,0,0,0,"female",1,3693,0
"35",35,80918,"12:56:18",524045576,879040610,"4.0.10.0",1,2,"demographics","age",0,0,0,0,0,0,"27",1,9280,0
"36",36,80918,"12:56:18",524045576,879040610,"4.0.10.0",1,3,"demographics","gender",0,0,0,0,0,0,"female",1,4038,0
"37",37,80918,"11:59:48",767837566,414118202,"4.0.10.0",1,2,"demographics","age",0,0,0,0,0,0,"19",1,3636,0
"38",38,80918,"11:59:48",767837566,414118202,"4.0.10.0",1,3,"demographics","gender",0,0,0,0,0,0,"female",1,4889,0
"39",39,80918,"04:11:28",459639878,204470556,"4.0.10.0",1,2,"demographics","age",0,0,0,0,0,0,"43",1,3855,0
"40",40,80918,"04:11:28",459639878,204470556,"4.0.10.0",1,3,"demographics","gender",0,0,0,0,0,0,"male",1,6249,0
"41",41,80918,"13:04:36",726455798,612719567,"4.0.10.0",1,2,"demographics","age",0,0,0,0,0,0,"22",1,2537,0
"42",42,80918,"13:04:36",726455798,612719567,"4.0.10.0",1,3,"demographics","gender",0,0,0,0,0,0,"Male",1,2863,0
"43",43,80918,"13:05:05",989419638,257035865,"4.0.10.0",1,2,"demographics","age",0,0,0,0,0,0,"34",1,3865,0
"44",44,80918,"13:05:05",989419638,257035865,"4.0.10.0",1,3,"demographics","gender",0,0,0,0,0,0,"Female",1,5697,0
"45",45,80918,"10:06:04",782623127,861245923,"4.0.10.0",1,2,"demographics","age",0,0,0,0,0,0,"51",1,3619,0
"46",46,80918,"10:06:04",782623127,861245923,"4.0.10.0",1,3,"demographics","gender",0,0,0,0,0,0,"female",1,4267,0
"47",47,80918,"13:07:41",502145183,995276234,"4.0.10.0",1,2,"demographics","age",0,0,0,0,0,0,"18",1,4221,0
"48",48,80918,"13:07:41",502145183,995276234,"4.0.10.0",1,3,"demographics","gender",0,0,0,0,0,0,"Male",1,14844,0
"49",49,80918,"12:10:21",907233042,199138224,"4.0.10.0",1,2,"demographics","age",0,0,0,0,0,0,"26",1,3671,0
"50",50,80918,"12:10:21",907233042,199138224,"4.0.10.0",1,3,"demographics","gender",0,0,0,0,0,0,"Male",1,4341,0
"51",51,80918,"13:11:13",841380207,99792694,"4.0.10.0",1,2,"demographics","age",0,0,0,0,0,0,"20",1,2915,0
"52",52,80918,"13:11:13",841380207,99792694,"4.0.10.0",1,3,"demographics","gender",0,0,0,0,0,0,"nonbinary",1,2927,0
"53",53,80918,"11:11:29",216392615,198956190,"4.0.10.0",1,2,"demographics","age",0,0,0,0,0,0,"37",1,3863,0
"54",54,80918,"11:11:29",216392615,198956190,"4.0.10.0",1,3,"demographics","gender",0,0,0,0,0,0,"female",1,4328,0
"55",55,80918,"13:11:22",405836187,700535080,"4.0.10.0",1,2,"demographics","age",0,0,0,0,0,0,"35",1,2560,0
"56",56,80918,"13:11:22",405836187,700535080,"4.0.10.0",1,3,"demographics","gender",0,0,0,0,0,0,"male",1,2105,0
"57",57,80918,"12:12:16",833516971,51723877,"4.0.10.0",1,2,"demographics","age",0,0,0,0,0,0,"53",1,4873,0
"58",58,80918,"12:12:16",833516971,51723877,"4.0.10.0",1,3,"demographics","gender",0,0,0,0,0,0,"male",1,5908,0
"59",59,80918,"13:13:15",398881517,4793598,"4.0.10.0",1,2,"demographics","age",0,0,0,0,0,0,"26",1,1875,0
"60",60,80918,"13:13:15",398881517,4793598,"4.0.10.0",1,3,"demographics","gender",0,0,0,0,0,0,"female",1,2232,0
"61",61,80918,"10:12:08",533106182,207177671,"4.0.10.0",1,2,"demographics","age",0,0,0,0,0,0,"31",1,4499,0
"62",62,80918,"10:12:08",533106182,207177671,"4.0.10.0",1,3,"demographics","gender",0,0,0,0,0,0,"Female",1,6338,0
"63",63,80918,"13:18:18",654658603,229993324,"4.0.10.0",1,2,"demographics","age",0,0,0,0,0,0,"48",1,8119,0
"64",64,80918,"13:18:18",654658603,229993324,"4.0.10.0",1,3,"demographics","gender",0,0,0,0,0,0,"male",1,7127,0
"65",65,80918,"10:18:53",101318272,562792162,"4.0.10.0",1,2,"demographics","age",0,0,0,0,0,0,"36",1,3290,0
"66",66,80918,"10:18:53",101318272,562792162,"4.0.10.0",1,3,"demographics","gender",0,0,0,0,0,0,"Female",1,4055,0
"67",67,80918,"13:19:24",546600367,426487590,"4.0.10.0",1,2,"demographics","age",0,0,0,0,0,0,"37",1,3328,0
"68",68,80918,"13:19:24",546600367,426487590,"4.0.10.0",1,3,"demographics","gender",0,0,0,0,0,0,"female",1,3918,0
"69",69,80918,"13:21:07",615046070,724129297,"4.0.10.0",1,2,"demographics","age",0,0,0,0,0,0,"38",1,3268,0
"70",70,80918,"13:21:07",615046070,724129297,"4.0.10.0",1,3,"demographics","gender",0,0,0,0,0,0,"Male",1,8260,0
"71",71,80918,"10:22:54",906056582,834227260,"4.0.10.0",1,2,"demographics","age",0,0,0,0,0,0,"19",1,6141,0
"72",72,80918,"10:22:54",906056582,834227260,"4.0.10.0",1,3,"demographics","gender",0,0,0,0,0,0,"male",1,3725,0
"73",73,80918,"12:22:22",366732243,803549838,"4.0.10.0",1,2,"demographics","age",0,0,0,0,0,0,"23",1,4498,0
"74",74,80918,"12:22:22",366732243,803549838,"4.0.10.0",1,3,"demographics","gender",0,0,0,0,0,0,"Male",1,24471,0
"75",75,80918,"12:22:15",26689582,838309898,"4.0.10.0",1,2,"demographics","age",0,0,0,0,0,0,"23",1,3522,0
"76",76,80918,"12:22:15",26689582,838309898,"4.0.10.0",1,3,"demographics","gender",0,0,0,0,0,0,"female",1,5029,0
"77",77,80918,"13:23:49",459367856,268653392,"4.0.10.0",1,2,"demographics","age",0,0,0,0,0,0,"25",1,3161,0
"78",78,80918,"13:23:49",459367856,268653392,"4.0.10.0",1,3,"demographics","gender",0,0,0,0,0,0,"M",1,2636,0
"79",79,80918,"10:25:45",881921318,14993216,"4.0.10.0",1,2,"demographics","age",0,0,0,0,0,0,"21",1,3328,0
"80",80,80918,"10:25:45",881921318,14993216,"4.0.10.0",1,3,"demographics","gender",0,0,0,0,0,0,"Male",1,2721,0
"81",81,80918,"10:26:24",61592092,36800426,"4.0.10.0",1,2,"demographics","age",0,0,0,0,0,0,"53",1,3014,0
"82",82,80918,"10:26:24",61592092,36800426,"4.0.10.0",1,3,"demographics","gender",0,0,0,0,0,0,"female",1,3645,0
"83",83,80918,"13:27:26",481094527,942233025,"4.0.10.0",1,2,"demographics","age",0,0,0,0,0,0,"22",1,3001,0
"84",84,80918,"13:27:26",481094527,942233025,"4.0.10.0",1,3,"demographics","gender",0,0,0,0,0,0,"Male",1,2768,0
"85",85,80918,"13:27:32",416684168,387510502,"4.0.10.0",1,2,"demographics","age",0,0,0,0,0,0,"28",1,2481,0
"86",86,80918,"13:27:32",416684168,387510502,"4.0.10.0",1,3,"demographics","gender",0,0,0,0,0,0,"male",1,2372,0
"87",87,80918,"07:28:00",654121503,73899742,"4.0.10.0",1,2,"demographics","age",0,0,0,0,0,0,"38",1,2904,0
"88",88,80918,"07:28:00",654121503,73899742,"4.0.10.0",1,3,"demographics","gender",0,0,0,0,0,0,"male",1,5572,0
"89",89,80918,"13:29:39",548241995,317346405,"4.0.10.0",1,2,"demographics","age",0,0,0,0,0,0,"58",1,4517,0
"90",90,80918,"13:29:39",548241995,317346405,"4.0.10.0",1,3,"demographics","gender",0,0,0,0,0,0,"female",1,4931,0
"91",91,80918,"13:30:11",910859564,50554708,"4.0.10.0",1,2,"demographics","age",0,0,0,0,0,0,"52",1,3333,0
"92",92,80918,"13:30:11",910859564,50554708,"4.0.10.0",1,3,"demographics","gender",0,0,0,0,0,0,"Female",1,5376,0
"93",93,80918,"13:30:24",801153288,907215497,"4.0.10.0",1,2,"demographics","age",0,0,0,0,0,0,"24",1,1999,0
"94",94,80918,"13:30:24",801153288,907215497,"4.0.10.0",1,3,"demographics","gender",0,0,0,0,0,0,"female",1,1831,0
"95",95,80918,"10:30:43",386204416,712188085,"4.0.10.0",1,2,"demographics","age",0,0,0,0,0,0,"37",1,2875,0
"96",96,80918,"10:30:43",386204416,712188085,"4.0.10.0",1,3,"demographics","gender",0,0,0,0,0,0,"female",1,3474,0
"97",97,80918,"13:29:19",239847689,404330801,"4.0.10.0",1,2,"demographics","age",0,0,0,0,0,0,"38",1,8878,0
"98",98,80918,"13:29:19",239847689,404330801,"4.0.10.0",1,3,"demographics","gender",0,0,0,0,0,0,"male",1,4469,0
"99",99,80918,"13:31:15",356596624,741795876,"4.0.10.0",1,2,"demographics","age",0,0,0,0,0,0,"32",1,1829,0
"100",100,80918,"13:31:15",356596624,741795876,"4.0.10.0",1,3,"demographics","gender",0,0,0,0,0,0,"Female",1,4490,0
"101",101,80918,"10:31:50",852449859,855918927,"4.0.10.0",1,2,"demographics","age",0,0,0,0,0,0,"31",1,3101,0
"102",102,80918,"10:31:50",852449859,855918927,"4.0.10.0",1,3,"demographics","gender",0,0,0,0,0,0,"Male",1,3238,0
"103",103,80918,"11:31:54",403520209,557894060,"4.0.10.0",1,2,"demographics","age",0,0,0,0,0,0,"25",1,4184,0
"104",104,80918,"11:31:54",403520209,557894060,"4.0.10.0",1,3,"demographics","gender",0,0,0,0,0,0,"Female",1,3966,0
"105",105,80918,"12:35:35",301703936,659121413,"4.0.10.0",1,2,"demographics","age",0,0,0,0,0,0,"47",1,4092,0
"106",106,80918,"12:35:35",301703936,659121413,"4.0.10.0",1,3,"demographics","gender",0,0,0,0,0,0,"female",1,6428,0
"107",107,80918,"11:36:46",651199798,12321716,"4.0.10.0",1,2,"demographics","age",0,0,0,0,0,0,"30",1,4267,0
"108",108,80918,"11:36:46",651199798,12321716,"4.0.10.0",1,3,"demographics","gender",0,0,0,0,0,0,"Male",1,4013,0
"109",109,80918,"13:37:08",70317396,131879756,"4.0.10.0",1,2,"demographics","age",0,0,0,0,0,0,"29",1,2756,0
"110",110,80918,"13:37:08",70317396,131879756,"4.0.10.0",1,3,"demographics","gender",0,0,0,0,0,0,"female",1,3987,0
"111",111,80918,"13:37:06",712811359,164171230,"4.0.10.0",1,2,"demographics","age",0,0,0,0,0,0,"26",1,2658,0
"112",112,80918,"13:37:06",712811359,164171230,"4.0.10.0",1,3,"demographics","gender",0,0,0,0,0,0,"Male",1,3533,0
"113",113,80918,"10:37:25",183084442,702156408,"4.0.10.0",1,2,"demographics","age",0,0,0,0,0,0,"36",1,3331,0
"114",114,80918,"10:37:25",183084442,702156408,"4.0.10.0",1,3,"demographics","gender",0,0,0,0,0,0,"male",1,3428,0
"115",115,80918,"13:37:41",561121994,537270509,"4.0.10.0",1,2,"demographics","age",0,0,0,0,0,0,"32",1,5547,0
"116",116,80918,"13:37:41",561121994,537270509,"4.0.10.0",1,3,"demographics","gender",0,0,0,0,0,0,"female",1,4659,0
"117",117,80918,"13:38:59",245635327,639605524,"4.0.10.0",1,2,"demographics","age",0,0,0,0,0,0,"30",1,2815,0
"118",118,80918,"13:38:59",245635327,639605524,"4.0.10.0",1,3,"demographics","gender",0,0,0,0,0,0,"Male",1,5019,0
"119",119,80918,"13:41:00",224946354,273965715,"4.0.10.0",1,2,"demographics","age",0,0,0,0,0,0,"25",1,2473,0
"120",120,80918,"13:41:00",224946354,273965715,"4.0.10.0",1,3,"demographics","gender",0,0,0,0,0,0,"female",1,2556,0
"121",121,80918,"13:43:19",891160095,434236063,"4.0.10.0",1,2,"demographics","age",0,0,0,0,0,0,"33",1,2734,0
"122",122,80918,"13:43:19",891160095,434236063,"4.0.10.0",1,3,"demographics","gender",0,0,0,0,0,0,"Male",1,3220,0
"123",123,80918,"10:38:36",926980921,267237454,"4.0.10.0",1,2,"demographics","age",0,0,0,0,0,0,"57",1,5730,0
"124",124,80918,"10:38:36",926980921,267237454,"4.0.10.0",1,3,"demographics","gender",0,0,0,0,0,0,"female",1,10059,0
"125",125,80918,"13:44:04",542283249,198000605,"4.0.10.0",1,2,"demographics","age",0,0,0,0,0,0,"47",1,7560,0
"126",126,80918,"13:44:04",542283249,198000605,"4.0.10.0",1,3,"demographics","gender",0,0,0,0,0,0,"male",1,3098,0
"127",127,80918,"12:46:16",258628027,606371456,"4.0.10.0",1,2,"demographics","age",0,0,0,0,0,0,"45",1,4809,0
"128",128,80918,"12:46:16",258628027,606371456,"4.0.10.0",1,3,"demographics","gender",0,0,0,0,0,0,"Male",1,3606,0
"129",129,80918,"13:47:05",202776299,377181951,"4.0.10.0",1,2,"demographics","age",0,0,0,0,0,0,"31",1,3434,0
"130",130,80918,"13:47:05",202776299,377181951,"4.0.10.0",1,3,"demographics","gender",0,0,0,0,0,0,"male",1,3448,0
"131",131,80918,"10:47:37",990143466,646335740,"4.0.10.0",1,2,"demographics","age",0,0,0,0,0,0,"35",1,5705,0
"132",132,80918,"10:47:37",990143466,646335740,"4.0.10.0",1,3,"demographics","gender",0,0,0,0,0,0,"male",1,5240,0
"133",133,80918,"13:50:29",202776299,377181951,"4.0.10.0",1,2,"demographics","age",0,0,0,0,0,0,"31",1,2290,0
"134",134,80918,"13:50:29",202776299,377181951,"4.0.10.0",1,3,"demographics","gender",0,0,0,0,0,0,"male",1,3512,0
"135",135,80918,"12:52:38",398029079,570775037,"4.0.10.0",1,2,"demographics","age",0,0,0,0,0,0,"47",1,2970,0
"136",136,80918,"12:52:38",398029079,570775037,"4.0.10.0",1,3,"demographics","gender",0,0,0,0,0,0,"female",1,4423,0
"137",137,80918,"11:52:24",19568349,953519607,"4.0.10.0",1,2,"demographics","age",0,0,0,0,0,0,"33",1,2913,0
"138",138,80918,"11:52:24",19568349,953519607,"4.0.10.0",1,3,"demographics","gender",0,0,0,0,0,0,"Male",1,3688,0
"139",139,80918,"12:54:26",589177735,379626386,"4.0.10.0",1,2,"demographics","age",0,0,0,0,0,0,"56",1,3145,0
"140",140,80918,"12:54:26",589177735,379626386,"4.0.10.0",1,3,"demographics","gender",0,0,0,0,0,0,"female",1,8262,0
"141",141,80918,"19:55:05",543585022,398176801,"4.0.10.0",1,2,"demographics","age",0,0,0,0,0,0,"33",1,4443,0
"142",142,80918,"19:55:05",543585022,398176801,"4.0.10.0",1,3,"demographics","gender",0,0,0,0,0,0,"Male",1,5451,0
"143",143,80918,"10:58:41",810316050,845815607,"4.0.10.0",1,2,"demographics","age",0,0,0,0,0,0,"27",1,3600,0
"144",144,80918,"10:58:41",810316050,845815607,"4.0.10.0",1,3,"demographics","gender",0,0,0,0,0,0,"Female",1,4030,0
"145",145,80918,"12:58:53",201360590,526660660,"4.0.10.0",1,2,"demographics","age",0,0,0,0,0,0,"39",1,4748,0
"146",146,80918,"12:58:53",201360590,526660660,"4.0.10.0",1,3,"demographics","gender",0,0,0,0,0,0,"F",1,4520,0
"147",147,80918,"13:59:47",134204915,143278609,"4.0.10.0",1,2,"demographics","age",0,0,0,0,0,0,"61",1,14046,0
"148",148,80918,"13:59:47",134204915,143278609,"4.0.10.0",1,3,"demographics","gender",0,0,0,0,0,0,"female",1,3932,0
"149",149,80918,"14:01:46",838842471,343702216,"4.0.10.0",1,2,"demographics","age",0,0,0,0,0,0,"25",1,2027,0
"150",150,80918,"14:01:46",838842471,343702216,"4.0.10.0",1,3,"demographics","gender",0,0,0,0,0,0,"Female",1,5047,0
"151",151,80918,"13:03:00",50705835,593163233,"4.0.10.0",1,2,"demographics","age",0,0,0,0,0,0,"35",1,2770,0
"152",152,80918,"13:03:00",50705835,593163233,"4.0.10.0",1,3,"demographics","gender",0,0,0,0,0,0,"Male",1,3721,0
"153",153,80918,"13:04:48",522280366,648001718,"4.0.10.0",1,2,"demographics","age",0,0,0,0,0,0,"30",1,3242,0
"154",154,80918,"13:04:48",522280366,648001718,"4.0.10.0",1,3,"demographics","gender",0,0,0,0,0,0,"Male",1,4611,0
"155",155,80918,"14:08:34",586955597,213834946,"4.0.10.0",1,2,"demographics","age",0,0,0,0,0,0,"21",1,2094,0
"156",156,80918,"14:08:34",586955597,213834946,"4.0.10.0",1,3,"demographics","gender",0,0,0,0,0,0,"Male",1,8056,0
"157",157,80918,"11:08:08",4272576,354555257,"4.0.10.0",1,2,"demographics","age",0,0,0,0,0,0,"26",1,3288,0
"158",158,80918,"11:08:08",4272576,354555257,"4.0.10.0",1,3,"demographics","gender",0,0,0,0,0,0,"Female",1,4568,0
"159",159,80918,"13:08:02",784489759,618596428,"4.0.10.0",1,2,"demographics","age",0,0,0,0,0,0,"47",1,3929,0
"160",160,80918,"13:08:02",784489759,618596428,"4.0.10.0",1,3,"demographics","gender",0,0,0,0,0,0,"male",1,4302,0
"161",161,80918,"14:09:15",71854978,110689726,"4.0.10.0",1,2,"demographics","age",0,0,0,0,0,0,"34",1,3554,0
"162",162,80918,"14:09:15",71854978,110689726,"4.0.10.0",1,3,"demographics","gender",0,0,0,0,0,0,"Female",1,4206,0
"163",163,80918,"11:12:03",558774244,539618264,"4.0.10.0",1,2,"demographics","age",0,0,0,0,0,0,"25",1,2675,0
"164",164,80918,"11:12:03",558774244,539618264,"4.0.10.0",1,3,"demographics","gender",0,0,0,0,0,0,"Male",1,3734,0
"165",165,80918,"13:12:11",555815454,625842193,"4.0.10.0",1,2,"demographics","age",0,0,0,0,0,0,"31",1,3108,0
"166",166,80918,"13:12:11",555815454,625842193,"4.0.10.0",1,3,"demographics","gender",0,0,0,0,0,0,"Female",1,3653,0
"167",167,80918,"14:16:17",600944787,62576735,"4.0.10.0",1,2,"demographics","age",0,0,0,0,0,0,"30",1,2364,0
"168",168,80918,"14:16:17",600944787,62576735,"4.0.10.0",1,3,"demographics","gender",0,0,0,0,0,0,"F",1,1947,0
"169",169,80918,"14:17:29",26527329,388821475,"4.0.10.0",1,2,"demographics","age",0,0,0,0,0,0,"19",1,3209,0
"170",170,80918,"14:17:29",26527329,388821475,"4.0.10.0",1,3,"demographics","gender",0,0,0,0,0,0,"Female",1,3451,0
"171",171,80918,"11:17:49",254446389,770878703,"4.0.10.0",1,2,"demographics","age",0,0,0,0,0,0,"29",1,2892,0
"172",172,80918,"11:17:49",254446389,770878703,"4.0.10.0",1,3,"demographics","gender",0,0,0,0,0,0,"Male",1,2912,0
"173",173,80918,"13:17:55",907509803,370860758,"4.0.10.0",1,2,"demographics","age",0,0,0,0,0,0,"43",1,3686,0
"174",174,80918,"13:17:55",907509803,370860758,"4.0.10.0",1,3,"demographics","gender",0,0,0,0,0,0,"Female",1,5304,0
"175",175,80918,"11:18:41",426662379,542141740,"4.0.10.0",1,2,"demographics","age",0,0,0,0,0,0,"34",1,2442,0
"176",176,80918,"11:18:41",426662379,542141740,"4.0.10.0",1,3,"demographics","gender",0,0,0,0,0,0,"male",1,3797,0
"177",177,80918,"14:18:39",302234500,658590855,"4.0.10.0",1,2,"demographics","age",0,0,0,0,0,0,"42",1,4733,0
"178",178,80918,"14:18:39",302234500,658590855,"4.0.10.0",1,3,"demographics","gender",0,0,0,0,0,0,"Male",1,6081,0
"179",179,80918,"14:19:47",315164558,790617792,"4.0.10.0",1,2,"demographics","age",0,0,0,0,0,0,"41",1,8844,0
"180",180,80918,"14:19:47",315164558,790617792,"4.0.10.0",1,3,"demographics","gender",0,0,0,0,0,0,"female",1,7270,0
"181",181,80918,"11:21:07",983317561,989770382,"4.0.10.0",1,2,"demographics","age",0,0,0,0,0,0,"30",1,2976,0
"182",182,80918,"11:21:07",983317561,989770382,"4.0.10.0",1,3,"demographics","gender",0,0,0,0,0,0,"Male",1,3963,0
"183",183,80918,"11:21:40",426662379,542141740,"4.0.10.0",1,2,"demographics","age",0,0,0,0,0,0,"34",1,2231,0
"184",184,80918,"11:21:40",426662379,542141740,"4.0.10.0",1,3,"demographics","gender",0,0,0,0,0,0,"male",1,2883,0
"185",185,80918,"11:25:34",589256826,814418286,"4.0.10.0",1,2,"demographics","age",0,0,0,0,0,0,"26",1,3030,0
"186",186,80918,"11:25:34",589256826,814418286,"4.0.10.0",1,3,"demographics","gender",0,0,0,0,0,0,"Male",1,4520,0
"187",187,80918,"14:26:20",513534946,371116988,"4.0.10.0",1,2,"demographics","age",0,0,0,0,0,0,"29",1,3519,0
"188",188,80918,"14:26:20",513534946,371116988,"4.0.10.0",1,3,"demographics","gender",0,0,0,0,0,0,"Male",1,3625,0
"189",189,80918,"11:26:55",870447858,793073645,"4.0.10.0",1,2,"demographics","age",0,0,0,0,0,0,"21",1,5460,0
"190",190,80918,"11:26:55",870447858,793073645,"4.0.10.0",1,3,"demographics","gender",0,0,0,0,0,0,"Female",1,6735,0
"191",191,80918,"14:28:32",222159,98170356,"4.0.10.0",1,2,"demographics","age",0,0,0,0,0,0,"29",1,3718,0
"192",192,80918,"14:28:32",222159,98170356,"4.0.10.0",1,3,"demographics","gender",0,0,0,0,0,0,"Female",1,5537,0
"193",193,80918,"11:28:35",610648423,358155700,"4.0.10.0",1,2,"demographics","age",0,0,0,0,0,0,"24",1,4051,0
"194",194,80918,"11:28:35",610648423,358155700,"4.0.10.0",1,3,"demographics","gender",0,0,0,0,0,0,"Female",1,4616,0
"195",195,80918,"14:29:23",178955995,150651228,"4.0.10.0",1,2,"demographics","age",0,0,0,0,0,0,"37",1,2283,0
"196",196,80918,"14:29:23",178955995,150651228,"4.0.10.0",1,3,"demographics","gender",0,0,0,0,0,0,"male",1,3102,0
"197",197,80918,"11:29:06",429120328,760814209,"4.0.10.0",1,2,"demographics","age",0,0,0,0,0,0,"22",1,3265,0
"198",198,80918,"11:29:06",429120328,760814209,"4.0.10.0",1,3,"demographics","gender",0,0,0,0,0,0,"Male",1,3922,0
"199",199,80918,"13:29:09",893819994,204572509,"4.0.10.0",1,2,"demographics","age",0,0,0,0,0,0,"62",1,4358,0
"200",200,80918,"13:29:09",893819994,204572509,"4.0.10.0",1,3,"demographics","gender",0,0,0,0,0,0,"Female",1,10877,0
"201",201,80918,"12:30:05",501817360,700379780,"4.0.10.0",1,2,"demographics","age",0,0,0,0,0,0,"28",1,2492,0
"202",202,80918,"12:30:05",501817360,700379780,"4.0.10.0",1,3,"demographics","gender",0,0,0,0,0,0,"Male",1,3850,0
"203",203,80918,"12:30:18",412760579,775087065,"4.0.10.0",1,2,"demographics","age",0,0,0,0,0,0,"28",1,2701,0
"204",204,80918,"12:30:18",412760579,775087065,"4.0.10.0",1,3,"demographics","gender",0,0,0,0,0,0,"Female",1,5230,0
"205",205,80918,"11:37:10",818633816,901997576,"4.0.10.0",1,2,"demographics","age",0,0,0,0,0,0,"23",1,3176,0
"206",206,80918,"11:37:10",818633816,901997576,"4.0.10.0",1,3,"demographics","gender",0,0,0,0,0,0,"Female",1,5911,0
"207",207,80918,"13:39:18",655251706,84443238,"4.0.10.0",1,2,"demographics","age",0,0,0,0,0,0,"33",1,3447,0
"208",208,80918,"13:39:18",655251706,84443238,"4.0.10.0",1,3,"demographics","gender",0,0,0,0,0,0,"male",1,3495,0
"209",209,80918,"13:39:16",502536006,932465236,"4.0.10.0",1,2,"demographics","age",0,0,0,0,0,0,"19",1,3822,0
"210",210,80918,"13:39:16",502536006,932465236,"4.0.10.0",1,3,"demographics","gender",0,0,0,0,0,0,"female",1,4273,0
"211",211,80918,"13:40:18",600880696,138814248,"4.0.10.0",1,2,"demographics","age",0,0,0,0,0,0,"23",1,3053,0
"212",212,80918,"13:40:18",600880696,138814248,"4.0.10.0",1,3,"demographics","gender",0,0,0,0,0,0,"Female",1,5070,0
"213",213,80918,"13:39:58",149997378,272741273,"4.0.10.0",1,2,"demographics","age",0,0,0,0,0,0,"28",1,3509,0
"214",214,80918,"13:39:58",149997378,272741273,"4.0.10.0",1,3,"demographics","gender",0,0,0,0,0,0,"female",1,4209,0
"215",215,80918,"11:44:08",903826313,194566192,"4.0.10.0",1,2,"demographics","age",0,0,0,0,0,0,"21",1,1838,0
"216",216,80918,"11:44:08",903826313,194566192,"4.0.10.0",1,3,"demographics","gender",0,0,0,0,0,0,"Male",1,2691,0
"217",217,80918,"14:44:33",569047371,937843455,"4.0.10.0",1,2,"demographics","age",0,0,0,0,0,0,"25",1,2444,0
"218",218,80918,"14:44:33",569047371,937843455,"4.0.10.0",1,3,"demographics","gender",0,0,0,0,0,0,"female",1,2678,0
"219",219,80918,"11:45:27",903826313,194566192,"4.0.10.0",1,2,"demographics","age",0,0,0,0,0,0,"21",1,2345,0
"220",220,80918,"11:45:27",903826313,194566192,"4.0.10.0",1,3,"demographics","gender",0,0,0,0,0,0,"Male",1,2432,0
"221",221,80918,"13:45:49",409181854,318839397,"4.0.10.0",1,2,"demographics","age",0,0,0,0,0,0,"45",1,2989,0
"222",222,80918,"13:45:49",409181854,318839397,"4.0.10.0",1,3,"demographics","gender",0,0,0,0,0,0,"female",1,4341,0
"223",223,80918,"14:47:49",185317084,218358035,"4.0.10.0",1,2,"demographics","age",0,0,0,0,0,0,"26",1,3868,0
"224",224,80918,"14:47:49",185317084,218358035,"4.0.10.0",1,3,"demographics","gender",0,0,0,0,0,0,"Female",1,5652,0
"225",225,80918,"14:49:35",833807306,360411069,"4.0.10.0",1,2,"demographics","age",0,0,0,0,0,0,"23",1,3150,0
"226",226,80918,"14:49:35",833807306,360411069,"4.0.10.0",1,3,"demographics","gender",0,0,0,0,0,0,"Female",1,3622,0
"227",227,80918,"13:50:06",720492212,694856579,"4.0.10.0",1,2,"demographics","age",0,0,0,0,0,0,"55",1,3533,0
"228",228,80918,"13:50:06",720492212,694856579,"4.0.10.0",1,3,"demographics","gender",0,0,0,0,0,0,"female",1,4141,0
"229",229,80918,"13:55:56",565401713,857925846,"4.0.10.0",1,2,"demographics","age",0,0,0,0,0,0,"19",1,2532,0
"230",230,80918,"13:55:56",565401713,857925846,"4.0.10.0",1,3,"demographics","gender",0,0,0,0,0,0,"Female",1,3235,0
"231",231,80918,"14:56:05",619318213,486184649,"4.0.10.0",1,2,"demographics","age",0,0,0,0,0,0,"24",1,4284,0
"232",232,80918,"14:56:05",619318213,486184649,"4.0.10.0",1,3,"demographics","gender",0,0,0,0,0,0,"Male",1,2765,0
"233",233,80918,"14:57:11",408895922,171062326,"4.0.10.0",1,2,"demographics","age",0,0,0,0,0,0,"24",1,4394,0
"234",234,80918,"14:57:11",408895922,171062326,"4.0.10.0",1,3,"demographics","gender",0,0,0,0,0,0,"Male",1,3932,0
"235",235,80918,"15:07:50",890430092,448745278,"4.0.10.0",1,2,"demographics","age",0,0,0,0,0,0,"32",1,4668,0
"236",236,80918,"15:07:50",890430092,448745278,"4.0.10.0",1,3,"demographics","gender",0,0,0,0,0,0,"Male",1,4073,0
"237",237,80918,"14:09:12",793035629,546139743,"4.0.10.0",1,2,"demographics","age",0,0,0,0,0,0,"23",1,4395,0
"238",238,80918,"14:09:12",793035629,546139743,"4.0.10.0",1,3,"demographics","gender",0,0,0,0,0,0,"male",1,3321,0
"239",239,80918,"14:11:29",711457331,183370313,"4.0.10.0",1,2,"demographics","age",0,0,0,0,0,0,"41",1,2907,0
"240",240,80918,"14:11:29",711457331,183370313,"4.0.10.0",1,3,"demographics","gender",0,0,0,0,0,0,"Female",1,4133,0
"241",241,80918,"15:11:26",81798076,197466882,"4.0.10.0",1,2,"demographics","age",0,0,0,0,0,0,"25",1,5049,0
"242",242,80918,"15:11:26",81798076,197466882,"4.0.10.0",1,3,"demographics","gender",0,0,0,0,0,0,"female",1,4113,0
"243",243,80918,"12:12:21",732623378,670462809,"4.0.10.0",1,2,"demographics","age",0,0,0,0,0,0,"34",1,3265,0
"244",244,80918,"12:12:21",732623378,670462809,"4.0.10.0",1,3,"demographics","gender",0,0,0,0,0,0,"male",1,4842,0
"245",245,80918,"14:12:58",735025610,908843444,"4.0.10.0",1,2,"demographics","age",0,0,0,0,0,0,"25",1,2016,0
"246",246,80918,"14:12:58",735025610,908843444,"4.0.10.0",1,3,"demographics","gender",0,0,0,0,0,0,"female",1,2836,0
"247",247,80918,"15:12:48",577580936,540464023,"4.0.10.0",1,2,"demographics","age",0,0,0,0,0,0,"34",1,5401,0
"248",248,80918,"15:12:48",577580936,540464023,"4.0.10.0",1,3,"demographics","gender",0,0,0,0,0,0,"male",1,7835,0
"249",249,80918,"15:14:26",365804963,576869868,"4.0.10.0",1,2,"demographics","age",0,0,0,0,0,0,"31",1,2544,0
"250",250,80918,"15:14:26",365804963,576869868,"4.0.10.0",1,3,"demographics","gender",0,0,0,0,0,0,"Male",1,3721,0
"251",251,80918,"14:21:20",319664362,946443588,"4.0.10.0",1,2,"demographics","age",0,0,0,0,0,0,"29",1,13196,0
"252",252,80918,"14:21:20",319664362,946443588,"4.0.10.0",1,3,"demographics","gender",0,0,0,0,0,0,"Female",1,15810,0
"253",253,80918,"15:25:02",101239493,618802996,"4.0.10.0",1,2,"demographics","age",0,0,0,0,0,0,"23",1,3012,0
"254",254,80918,"15:25:02",101239493,618802996,"4.0.10.0",1,3,"demographics","gender",0,0,0,0,0,0,"female",1,2807,0
"255",255,80918,"15:28:34",591821602,209267071,"4.0.10.0",1,2,"demographics","age",0,0,0,0,0,0,"18",1,3011,0
"256",256,80918,"15:28:34",591821602,209267071,"4.0.10.0",1,3,"demographics","gender",0,0,0,0,0,0,"Male",1,4025,0
"257",257,80918,"12:33:38",799851721,615497073,"4.0.10.0",1,2,"demographics","age",0,0,0,0,0,0,"24",1,3233,0
"258",258,80918,"12:33:38",799851721,615497073,"4.0.10.0",1,3,"demographics","gender",0,0,0,0,0,0,"Female",1,2805,0
"259",259,80918,"12:35:06",286740426,514348240,"4.0.10.0",1,2,"demographics","age",0,0,0,0,0,0,"34",1,3384,0
"260",260,80918,"12:35:06",286740426,514348240,"4.0.10.0",1,3,"demographics","gender",0,0,0,0,0,0,"Female",1,3657,0
"261",261,80918,"15:36:07",248823478,331134774,"4.0.10.0",1,2,"demographics","age",0,0,0,0,0,0,"30",1,3986,0
"262",262,80918,"15:36:07",248823478,331134774,"4.0.10.0",1,3,"demographics","gender",0,0,0,0,0,0,"male",1,3563,0
"263",263,80918,"14:41:48",997256399,867743068,"4.0.10.0",1,2,"demographics","age",0,0,0,0,0,0,"40",1,6688,0
"264",264,80918,"14:41:48",997256399,867743068,"4.0.10.0",1,3,"demographics","gender",0,0,0,0,0,0,"female",1,7179,0
"265",265,80918,"14:42:22",483588149,855587217,"4.0.10.0",1,2,"demographics","age",0,0,0,0,0,0,"36",1,4598,0
"266",266,80918,"14:42:22",483588149,855587217,"4.0.10.0",1,3,"demographics","gender",0,0,0,0,0,0,"Male",1,4833,0
"267",267,80918,"15:44:18",584780966,59088105,"4.0.10.0",1,2,"demographics","age",0,0,0,0,0,0,"30",1,3361,0
"268",268,80918,"15:44:18",584780966,59088105,"4.0.10.0",1,3,"demographics","gender",0,0,0,0,0,0,"female",1,5340,0
"269",269,80918,"15:45:15",704037481,23704276,"4.0.10.0",1,2,"demographics","age",0,0,0,0,0,0,"19",1,4043,0
"270",270,80918,"15:45:15",704037481,23704276,"4.0.10.0",1,3,"demographics","gender",0,0,0,0,0,0,"female",1,3262,0
"271",271,80918,"12:44:45",736777264,128222221,"4.0.10.0",1,2,"demographics","age",0,0,0,0,0,0,"21",1,3662,0
"272",272,80918,"12:44:45",736777264,128222221,"4.0.10.0",1,3,"demographics","gender",0,0,0,0,0,0,"Male",1,5007,0
"273",273,80918,"15:47:33",813281018,609457621,"4.0.10.0",1,2,"demographics","age",0,0,0,0,0,0,"21",1,2262,0
"274",274,80918,"15:47:33",813281018,609457621,"4.0.10.0",1,3,"demographics","gender",0,0,0,0,0,0,"Female",1,3522,0
"275",275,80918,"15:48:12",501938018,901737082,"4.0.10.0",1,2,"demographics","age",0,0,0,0,0,0,"20",1,2700,0
"276",276,80918,"15:48:12",501938018,901737082,"4.0.10.0",1,3,"demographics","gender",0,0,0,0,0,0,"Female",1,3750,0
"277",277,80918,"14:49:29",42749418,456453443,"4.0.10.0",1,2,"demographics","age",0,0,0,0,0,0,"24",1,5519,0
"278",278,80918,"14:49:29",42749418,456453443,"4.0.10.0",1,3,"demographics","gender",0,0,0,0,0,0,"male",1,4586,0
"279",279,80918,"14:54:38",824256082,831875577,"4.0.10.0",1,2,"demographics","age",0,0,0,0,0,0,"34",1,4947,0
"280",280,80918,"14:54:38",824256082,831875577,"4.0.10.0",1,3,"demographics","gender",0,0,0,0,0,0,"Female",1,5329,0
"281",281,80918,"15:54:43",876999052,526087134,"4.0.10.0",1,2,"demographics","age",0,0,0,0,0,0,"29",1,5088,0
"282",282,80918,"15:54:43",876999052,526087134,"4.0.10.0",1,3,"demographics","gender",0,0,0,0,0,0,"female",1,6895,0
"283",283,80918,"12:57:15",530508677,346753407,"4.0.10.0",1,2,"demographics","age",0,0,0,0,0,0,"19",1,5343,0
"284",284,80918,"12:57:15",530508677,346753407,"4.0.10.0",1,3,"demographics","gender",0,0,0,0,0,0,"male",1,4663,0
"285",285,80918,"16:07:55",643370640,603084869,"4.0.10.0",1,2,"demographics","age",0,0,0,0,0,0,"46",1,3184,0
"286",286,80918,"16:07:55",643370640,603084869,"4.0.10.0",1,3,"demographics","gender",0,0,0,0,0,0,"female",1,3895,0
"287",287,80918,"15:07:22",375918538,806037224,"4.0.10.0",1,2,"demographics","age",0,0,0,0,0,0,"23",1,3667,0
"288",288,80918,"15:07:22",375918538,806037224,"4.0.10.0",1,3,"demographics","gender",0,0,0,0,0,0,"male",1,3879,0
"289",289,80918,"16:10:48",175015994,457179380,"4.0.10.0",1,2,"demographics","age",0,0,0,0,0,0,"20",1,3271,0
"290",290,80918,"16:10:48",175015994,457179380,"4.0.10.0",1,3,"demographics","gender",0,0,0,0,0,0,"male",1,3023,0
"291",291,80918,"15:08:34",481797087,17703893,"4.0.10.0",1,2,"demographics","age",0,0,0,0,0,0,"31",1,3293,0
"292",292,80918,"15:08:34",481797087,17703893,"4.0.10.0",1,3,"demographics","gender",0,0,0,0,0,0,"F",1,2946,0
"293",293,80918,"13:14:32",640634637,541321140,"4.0.10.0",1,2,"demographics","age",0,0,0,0,0,0,"45",1,2297,0
"294",294,80918,"13:14:32",640634637,541321140,"4.0.10.0",1,3,"demographics","gender",0,0,0,0,0,0,"male",1,4303,0
"295",295,80918,"13:16:18",267390917,934806219,"4.0.10.0",1,2,"demographics","age",0,0,0,0,0,0,"52",1,7035,0
"296",296,80918,"13:16:18",267390917,934806219,"4.0.10.0",1,3,"demographics","gender",0,0,0,0,0,0,"female",1,7483,0
"297",297,80918,"15:24:59",370427591,293682837,"4.0.10.0",1,2,"demographics","age",0,0,0,0,0,0,"18",1,3353,0
"298",298,80918,"15:24:59",370427591,293682837,"4.0.10.0",1,3,"demographics","gender",0,0,0,0,0,0,"Female",1,3176,0
"299",299,80918,"13:27:36",915574519,45250838,"4.0.10.0",1,2,"demographics","age",0,0,0,0,0,0,"23",1,5150,0
"300",300,80918,"13:27:36",915574519,45250838,"4.0.10.0",1,3,"demographics","gender",0,0,0,0,0,0,"male",1,3667,0
"301",301,80918,"13:28:14",33033264,694987987,"4.0.10.0",1,2,"demographics","age",0,0,0,0,0,0,"26",1,6701,0
"302",302,80918,"13:28:14",33033264,694987987,"4.0.10.0",1,3,"demographics","gender",0,0,0,0,0,0,"male",1,5733,0
"303",303,80918,"13:28:55",842009453,35252637,"4.0.10.0",1,2,"demographics","age",0,0,0,0,0,0,"26",1,2667,0
"304",304,80918,"13:28:55",842009453,35252637,"4.0.10.0",1,3,"demographics","gender",0,0,0,0,0,0,"Male",1,4705,0
"305",305,80918,"13:30:57",842009453,35252637,"4.0.10.0",1,2,"demographics","age",0,0,0,0,0,0,"26",1,2538,0
"306",306,80918,"13:30:57",842009453,35252637,"4.0.10.0",1,3,"demographics","gender",0,0,0,0,0,0,"Male",1,1806,0
"307",307,81018,"08:33:07",570217120,370955787,"4.0.10.0",1,2,"demographics","age",0,0,0,0,0,0,"25",1,6713,0
"308",308,81018,"08:33:07",570217120,370955787,"4.0.10.0",1,3,"demographics","gender",0,0,0,0,0,0,"Male",1,4139,0
"309",309,80918,"13:38:21",859437685,804083820,"4.0.10.0",1,2,"demographics","age",0,0,0,0,0,0,"37",1,4931,0
"310",310,80918,"13:38:21",859437685,804083820,"4.0.10.0",1,3,"demographics","gender",0,0,0,0,0,0,"Female",1,3580,0
"311",311,80918,"13:39:12",525071179,416690637,"4.0.10.0",1,2,"demographics","age",0,0,0,0,0,0,"29",1,8970,0
"312",312,80918,"13:39:12",525071179,416690637,"4.0.10.0",1,3,"demographics","gender",0,0,0,0,0,0,"woman",1,4391,0
"313",313,80918,"15:39:45",981908485,650286878,"4.0.10.0",1,2,"demographics","age",0,0,0,0,0,0,"55",1,5143,0
"314",314,80918,"15:39:45",981908485,650286878,"4.0.10.0",1,3,"demographics","gender",0,0,0,0,0,0,"female",1,8978,0
"315",315,80918,"15:55:43",179018051,926764296,"4.0.10.0",1,2,"demographics","age",0,0,0,0,0,0,"22",1,12045,0
"316",316,80918,"15:55:43",179018051,926764296,"4.0.10.0",1,3,"demographics","gender",0,0,0,0,0,0,"Female",1,5214,0
"317",317,80918,"14:03:43",794700597,471407358,"4.0.10.0",1,2,"demographics","age",0,0,0,0,0,0,"32",1,3436,0
"318",318,80918,"14:03:43",794700597,471407358,"4.0.10.0",1,3,"demographics","gender",0,0,0,0,0,0,"FEMALE",1,6088,0
"319",319,80918,"20:12:52",542394073,304405156,"4.0.10.0",1,2,"demographics","age",0,0,0,0,0,0,"22",1,4056,0
"320",320,80918,"20:12:52",542394073,304405156,"4.0.10.0",1,3,"demographics","gender",0,0,0,0,0,0,"Female",1,4184,0
"321",321,80918,"20:27:25",121430734,767963475,"4.0.10.0",1,2,"demographics","age",0,0,0,0,0,0,"41",1,4677,0
"322",322,80918,"20:27:25",121430734,767963475,"4.0.10.0",1,3,"demographics","gender",0,0,0,0,0,0,"m",1,3365,0
"323",323,80918,"19:31:59",712040084,166921097,"4.0.10.0",1,2,"demographics","age",0,0,0,0,0,0,"20",1,2924,0
"324",324,80918,"19:31:59",712040084,166921097,"4.0.10.0",1,3,"demographics","gender",0,0,0,0,0,0,"Male",1,3804,0
"325",325,80918,"17:39:14",735679594,842278169,"4.0.10.0",1,2,"demographics","age",0,0,0,0,0,0,"31",1,4382,0
"326",326,80918,"17:39:14",735679594,842278169,"4.0.10.0",1,3,"demographics","gender",0,0,0,0,0,0,"Male",1,4732,0
"327",327,80918,"20:50:23",390438783,36971546,"4.0.10.0",1,2,"demographics","age",0,0,0,0,0,0,"28",1,3739,0
"328",328,80918,"20:50:23",390438783,36971546,"4.0.10.0",1,3,"demographics","gender",0,0,0,0,0,0,"Male",1,5368,0
"329",329,80918,"20:52:54",213251399,943889616,"4.0.10.0",1,2,"demographics","age",0,0,0,0,0,0,"26",1,3696,0
"330",330,80918,"20:52:54",213251399,943889616,"4.0.10.0",1,3,"demographics","gender",0,0,0,0,0,0,"female",1,3716,0
"331",331,80918,"17:52:22",972431589,384312783,"4.0.10.0",1,2,"demographics","age",0,0,0,0,0,0,"33",1,4730,0
"332",332,80918,"17:52:22",972431589,384312783,"4.0.10.0",1,3,"demographics","gender",0,0,0,0,0,0,"Male",1,2876,0
"333",333,80918,"19:58:48",954569374,62735931,"4.0.10.0",1,2,"demographics","age",0,0,0,0,0,0,"31",1,4742,0
"334",334,80918,"19:58:48",954569374,62735931,"4.0.10.0",1,3,"demographics","gender",0,0,0,0,0,0,"Male",1,3252,0
"335",335,80918,"18:03:02",553442543,272453798,"4.0.10.0",1,2,"demographics","age",0,0,0,0,0,0,"26",1,2517,0
"336",336,80918,"18:03:02",553442543,272453798,"4.0.10.0",1,3,"demographics","gender",0,0,0,0,0,0,"Female",1,3957,0
"337",337,80918,"18:04:56",772611776,839905453,"4.0.10.0",1,2,"demographics","age",0,0,0,0,0,0,"33",1,2927,0
"338",338,80918,"18:04:56",772611776,839905453,"4.0.10.0",1,3,"demographics","gender",0,0,0,0,0,0,"female",1,3442,0
"339",339,80918,"21:08:26",174645866,357697364,"4.0.10.0",1,2,"demographics","age",0,0,0,0,0,0,"28",1,3188,0
"340",340,80918,"21:08:26",174645866,357697364,"4.0.10.0",1,3,"demographics","gender",0,0,0,0,0,0,"female",1,4489,0
"341",341,80918,"21:11:37",490319118,250482743,"4.0.10.0",1,2,"demographics","age",0,0,0,0,0,0,"37",1,4072,0
"342",342,80918,"21:11:37",490319118,250482743,"4.0.10.0",1,3,"demographics","gender",0,0,0,0,0,0,"female",1,6830,0
"343",343,80918,"20:11:45",736567388,845013425,"4.0.10.0",1,2,"demographics","age",0,0,0,0,0,0,"55",1,5007,0
"344",344,80918,"20:11:45",736567388,845013425,"4.0.10.0",1,3,"demographics","gender",0,0,0,0,0,0,"male",1,6679,0
"345",345,81018,"10:13:47",622261742,456751310,"4.0.10.0",1,2,"demographics","age",0,0,0,0,0,0,"26",1,4192,0
"346",346,81018,"10:13:47",622261742,456751310,"4.0.10.0",1,3,"demographics","gender",0,0,0,0,0,0,"Non-Binary",1,8120,0
"347",347,80918,"18:14:36",32295856,138894434,"4.0.10.0",1,2,"demographics","age",0,0,0,0,0,0,"22",1,4728,0
"348",348,80918,"18:14:36",32295856,138894434,"4.0.10.0",1,3,"demographics","gender",0,0,0,0,0,0,"Male",1,6133,0
"349",349,80918,"21:16:52",326398227,969236051,"4.0.10.0",1,2,"demographics","age",0,0,0,0,0,0,"25",1,2638,0
"350",350,80918,"21:16:52",326398227,969236051,"4.0.10.0",1,3,"demographics","gender",0,0,0,0,0,0,"Genderfluid",1,3834,0
"351",351,80918,"18:17:43",589149206,621421821,"4.0.10.0",1,2,"demographics","age",0,0,0,0,0,0,"31",1,2984,0
"352",352,80918,"18:17:43",589149206,621421821,"4.0.10.0",1,3,"demographics","gender",0,0,0,0,0,0,"female",1,2690,0
"353",353,80918,"18:18:22",53173622,85446237,"4.0.10.0",1,2,"demographics","age",0,0,0,0,0,0,"32",1,4889,0
"354",354,80918,"18:18:22",53173622,85446237,"4.0.10.0",1,3,"demographics","gender",0,0,0,0,0,0,"Female",1,4440,0
"355",355,81018,"03:18:31",520006349,352648471,"4.0.10.0",1,2,"demographics","age",0,0,0,0,0,0,"28",1,7491,0
"356",356,81018,"03:18:31",520006349,352648471,"4.0.10.0",1,3,"demographics","gender",0,0,0,0,0,0,"female",1,4725,0
"357",357,80918,"18:22:46",53173622,85446237,"4.0.10.0",1,2,"demographics","age",0,0,0,0,0,0,"32",1,2844,0
"358",358,80918,"18:22:46",53173622,85446237,"4.0.10.0",1,3,"demographics","gender",0,0,0,0,0,0,"Female",1,6527,0
"359",359,80918,"18:31:19",966707078,265910492,"4.0.10.0",1,2,"demographics","age",0,0,0,0,0,0,"41",1,3584,0
"360",360,80918,"18:31:19",966707078,265910492,"4.0.10.0",1,3,"demographics","gender",0,0,0,0,0,0,"Female",1,9986,0
"361",363,50619,"08:29:07",766524299,221569161,"5.0.14.0",1,2,"demographics","age",0,0,0,0,0,0,"27",1,4997,0
"362",364,50619,"08:29:07",766524299,221569161,"5.0.14.0",1,3,"demographics","gender",0,0,0,0,0,0,"Female",1,4330,0
"363",366,50619,"08:37:20",443068070,489509194,"5.0.14.0",1,2,"demographics","age",0,0,0,0,0,0,"25",1,2639,0
"364",367,50619,"08:37:20",443068070,489509194,"5.0.14.0",1,3,"demographics","gender",0,0,0,0,0,0,"Male",1,4745,0
"365",369,50619,"08:43:38",798125116,378070987,"5.0.14.0",1,2,"demographics","age",0,0,0,0,0,0,"41",1,4957,0
"366",370,50619,"08:43:38",798125116,378070987,"5.0.14.0",1,3,"demographics","gender",0,0,0,0,0,0,"female",1,6092,0
"367",372,50619,"08:52:38",21350401,600998133,"5.0.14.0",1,2,"demographics","age",0,0,0,0,0,0,"28",1,2796,0
"368",373,50619,"08:52:38",21350401,600998133,"5.0.14.0",1,3,"demographics","gender",0,0,0,0,0,0,"Female",1,3988,0
"369",375,50619,"08:58:55",606795821,881459079,"5.0.14.0",1,2,"demographics","age",0,0,0,0,0,0,"26",1,5080,0
"370",376,50619,"08:58:55",606795821,881459079,"5.0.14.0",1,3,"demographics","gender",0,0,0,0,0,0,"female",1,10980,0
"371",379,50619,"08:04:23",958815370,309652062,"5.0.14.0",1,2,"demographics","age",0,0,0,0,0,0,"22",1,2158,0
"372",380,50619,"08:04:23",958815370,309652062,"5.0.14.0",1,3,"demographics","gender",0,0,0,0,0,0,"female",1,9874,0
"373",382,50619,"09:06:48",203760678,555186276,"5.0.14.0",1,2,"demographics","age",0,0,0,0,0,0,"46",1,2597,0
"374",383,50619,"09:06:48",203760678,555186276,"5.0.14.0",1,3,"demographics","gender",0,0,0,0,0,0,"Male",1,3541,0
"375",385,50619,"09:12:27",808459062,159884672,"5.0.14.0",1,2,"demographics","age",0,0,0,0,0,0,"40",1,2797,0
"376",386,50619,"09:12:27",808459062,159884672,"5.0.14.0",1,3,"demographics","gender",0,0,0,0,0,0,"Female",1,4000,0
"377",NA,50619,"09:30:03",539646689,662402232,"5.0.14.0",1,2,"demographics","age",0,0,0,0,0,0,"61",1,3175,0
"378",NA,50619,"09:30:03",539646689,662402232,"5.0.14.0",1,3,"demographics","gender",0,0,0,0,0,0,"Male",1,5468,0
"379",NA,50619,"09:51:36",733753061,913008240,"5.0.14.0",1,2,"demographics","age",0,0,0,0,0,0,"28",1,5546,0
"380",NA,50619,"09:51:36",733753061,913008240,"5.0.14.0",1,3,"demographics","gender",0,0,0,0,0,0,"MALE",1,3942,0
