"date","time","subject","blockcode","blocknum","trialcode","trialnum","values.primestim","values.targetstim","correct","latency","trial.prime_positive.totalpercentcorrect","trial.prime_negative.totalpercentcorrect"
"080918","17:25:40","743970945","practice","1","prime_positive_practice","3","0","0","1","1560","0","0"
"080918","17:25:40","743970945","practice","1","intention_check_practice","4","0","0","1","1360","0","0"
"080918","17:25:40","743970945","practice","1","prime_positive_practice","5","0","0","0","508","0","0"
"080918","17:25:40","743970945","practice","1","intention_check_practice","6","0","0","1","1099","0","0"
"080918","17:25:40","743970945","practice","1","prime_negative_practice","7","0","0","0","2498","0","0"
"080918","17:25:40","743970945","practice","1","intention_check_practice","8","0","0","1","1693","0","0"
"080918","17:25:40","743970945","practice","1","prime_negative_practice","9","0","0","1","2171","0","0"
"080918","17:25:40","743970945","test","2","prime_negative","2","11","30","0","219","0","0"
"080918","17:25:40","743970945","test","2","intention_check","3","11","30","1","801","0","0"
"080918","17:25:40","743970945","test","2","prime_positive","4","9","60","0","86","0","0"
"080918","17:25:40","743970945","test","2","intention_check","5","9","60","1","2146","0","0"
"080918","11:52:48","347524095","practice","1","prime_positive_practice","3","0","0","1","1985","0","0"
"080918","11:52:48","347524095","practice","1","intention_check_practice","4","0","0","0","2500","0","0"
"080918","11:52:48","347524095","practice","1","prime_negative_practice","5","0","0","1","1867","0","0"
"080918","11:52:48","347524095","practice","1","intention_check_practice","6","0","0","0","2500","0","0"
"080918","11:52:48","347524095","practice","1","prime_positive_practice","7","0","0","0","2632","0","0"
"080918","11:52:48","347524095","practice","1","intention_check_practice","8","0","0","0","2500","0","0"
"080918","11:52:48","347524095","practice","1","prime_negative_practice","9","0","0","0","1160","0","0"
"080918","11:52:48","347524095","practice","1","intention_check_practice","10","0","0","1","712","0","0"
"080918","11:52:48","347524095","practice","1","prime_positive_practice","11","0","0","1","1067","0","0"
"080918","11:52:48","347524095","practice","1","intention_check_practice","12","0","0","0","2500","0","0"
"080918","11:52:48","347524095","practice","1","prime_negative_practice","13","0","0","0","1738","0","0"
"080918","11:52:48","347524095","practice","1","intention_check_practice","14","0","0","1","891","0","0"
"080918","11:52:48","347524095","practice","1","prime_negative_practice","15","0","0","1","901","0","0"
"080918","11:52:48","347524095","practice","1","intention_check_practice","16","0","0","0","2500","0","0"
"080918","11:52:48","347524095","practice","1","prime_positive_practice","17","0","0","1","1490","0","0"
"080918","11:52:48","347524095","practice","1","intention_check_practice","18","0","0","0","2500","0","0"
"080918","11:52:48","347524095","practice","1","prime_negative_practice","19","0","0","1","1759","0","0"
"080918","11:52:48","347524095","practice","1","intention_check_practice","20","0","0","0","2500","0","0"
"080918","11:52:48","347524095","practice","1","prime_positive_practice","21","0","0","1","786","0","0"
"080918","11:52:48","347524095","practice","1","intention_check_practice","22","0","0","1","1537","0","0"
"080918","11:52:48","347524095","test","2","prime_positive","2","6","22","1","937","100","0"
"080918","11:52:48","347524095","test","2","intention_check","3","6","22","0","2500","100","0"
"080918","11:52:48","347524095","test","2","prime_positive","4","10","62","1","675","100","0"
"080918","11:52:48","347524095","test","2","intention_check","5","10","62","0","2500","100","0"
"080918","11:52:48","347524095","test","2","prime_positive","6","4","53","0","1043","66","0"
"080918","11:52:48","347524095","test","2","intention_check","7","4","53","0","2500","66","0"
"080918","11:52:48","347524095","test","2","prime_positive","8","9","47","1","920","75","0"
"080918","11:52:48","347524095","test","2","intention_check","9","9","47","0","2500","75","0"
"080918","11:52:48","347524095","test","2","prime_negative","10","4","29","0","1132","75","0"
"080918","11:52:48","347524095","test","2","intention_check","11","4","29","1","1118","75","0"
"080918","11:52:48","347524095","test","2","prime_positive","12","3","66","1","800","80","0"
"080918","11:52:48","347524095","test","2","intention_check","13","3","66","1","975","80","0"
"080918","11:52:48","347524095","test","2","prime_negative","14","1","52","0","1426","80","0"
"080918","11:52:48","347524095","test","2","intention_check","15","1","52","0","2500","80","0"
"080918","11:52:48","347524095","test","2","prime_positive","16","5","35","1","1081","83","0"
"080918","11:52:48","347524095","test","2","intention_check","17","5","35","0","2500","83","0"
"080918","11:52:48","347524095","test","2","prime_negative","18","12","4","1","1232","83","33"
"080918","11:52:48","347524095","test","2","intention_check","19","12","4","0","2500","83","33"
"080918","11:52:48","347524095","test","2","prime_positive","20","1","68","1","1239","85","33"
"080918","11:52:48","347524095","test","2","intention_check","21","1","68","1","724","85","33"
"080918","11:52:48","347524095","test","2","prime_positive","22","4","31","0","822","75","33"
"080918","11:52:48","347524095","test","2","intention_check","23","4","31","0","2500","75","33"
"080918","11:52:48","347524095","test","2","prime_positive","24","10","56","0","2670","66","33"
"080918","11:52:48","347524095","test","2","intention_check","25","10","56","0","2500","66","33"
"080918","11:52:48","347524095","test","2","prime_positive","26","2","23","0","1364","60","33"
"080918","11:52:48","347524095","test","2","intention_check","27","2","23","0","2500","60","33"
"080918","11:52:48","347524095","test","2","prime_negative","28","6","45","1","919","60","50"
"080918","11:52:48","347524095","test","2","intention_check","29","6","45","0","2500","60","50"
"080918","11:52:48","347524095","test","2","prime_positive","30","8","44","0","883","54","50"
"080918","11:52:48","347524095","test","2","intention_check","31","8","44","1","662","54","50"
"080918","11:52:48","347524095","test","2","prime_negative","32","2","55","0","1657","54","40"
"080918","11:52:48","347524095","test","2","intention_check","33","2","55","0","2500","54","40"
"080918","11:52:48","347524095","test","2","prime_negative","34","8","60","0","872","54","33"
"080918","11:52:48","347524095","test","2","intention_check","35","8","60","1","1157","54","33"
"080918","11:52:48","347524095","test","2","prime_negative","36","9","30","0","2445","54","28"
"080918","11:52:48","347524095","test","2","intention_check","37","9","30","0","2500","54","28"
"080918","11:52:48","347524095","test","2","prime_positive","38","1","3","1","893","58","28"
"080918","11:52:48","347524095","test","2","intention_check","39","1","3","1","576","58","28"
"080918","11:52:48","347524095","test","2","prime_negative","40","9","26","0","739","58","25"
"080918","11:52:48","347524095","test","2","intention_check","41","9","26","0","2500","58","25"
"080918","11:52:48","347524095","test","2","prime_negative","42","4","61","0","894","58","22"
"080918","11:52:48","347524095","test","2","intention_check","43","4","61","0","2500","58","22"
"080918","11:52:48","347524095","test","2","prime_negative","44","3","43","0","804","58","20"
"080918","11:52:48","347524095","test","2","intention_check","45","3","43","1","588","58","20"
"080918","11:52:48","347524095","test","2","prime_positive","46","12","50","1","3126","61","20"
"080918","11:52:48","347524095","test","2","intention_check","47","12","50","0","2500","61","20"
"080918","11:52:48","347524095","test","2","prime_negative","48","6","69","0","905","61","18"
"080918","11:52:48","347524095","test","2","intention_check","49","6","69","0","2500","61","18"
"080918","11:52:48","347524095","test","2","prime_positive","50","7","33","1","998","64","18"
"080918","11:52:48","347524095","test","2","intention_check","51","7","33","0","2500","64","18"
"080918","11:52:48","347524095","test","2","prime_negative","52","1","40","0","751","64","16"
"080918","11:52:48","347524095","test","2","intention_check","53","1","40","1","463","64","16"
"080918","11:52:48","347524095","test","2","prime_negative","54","11","15","1","890","64","23"
"080918","11:52:48","347524095","test","2","intention_check","55","11","15","0","2500","64","23"
"080918","11:52:48","347524095","test","2","prime_positive","56","6","20","1","1376","66","23"
"080918","11:52:48","347524095","test","2","intention_check","57","6","20","0","2500","66","23"
"080918","11:52:48","347524095","test","2","prime_positive","58","5","37","1","1770","68","23"
"080918","11:52:48","347524095","test","2","intention_check","59","5","37","0","2500","68","23"
"080918","11:52:48","347524095","test","2","prime_positive","60","9","12","0","1180","64","23"
"080918","11:52:48","347524095","test","2","intention_check","61","9","12","0","2500","64","23"
"080918","11:52:48","347524095","test","2","prime_negative","62","12","6","1","878","64","28"
"080918","11:52:48","347524095","test","2","intention_check","63","12","6","0","2500","64","28"
"080918","11:52:48","347524095","test","2","prime_negative","64","8","36","0","684","64","26"
"080918","11:52:48","347524095","test","2","intention_check","65","8","36","0","2500","64","26"
"080918","11:52:48","347524095","test","2","prime_positive","66","3","41","1","1049","66","26"
"080918","11:52:48","347524095","test","2","intention_check","67","3","41","1","430","66","26"
"080918","11:52:48","347524095","test","2","prime_negative","68","2","27","0","1201","66","25"
"080918","11:52:48","347524095","test","2","intention_check","69","2","27","1","479","66","25"
"080918","11:52:48","347524095","test","2","prime_positive","70","11","18","1","1074","68","25"
"080918","11:52:48","347524095","test","2","intention_check","71","11","18","0","2500","68","25"
"080918","11:52:48","347524095","test","2","prime_negative","72","5","70","0","1920","68","23"
"080918","11:52:48","347524095","test","2","intention_check","73","5","70","0","2500","68","23"
"080918","11:52:48","347524095","test","2","prime_negative","74","7","38","1","1332","68","27"
"080918","11:52:48","347524095","test","2","intention_check","75","7","38","0","2500","68","27"
"080918","11:52:48","347524095","test","2","prime_negative","76","10","64","1","1423","68","31"
"080918","11:52:48","347524095","test","2","intention_check","77","10","64","0","2500","68","31"
"080918","11:52:48","347524095","test","2","prime_positive","78","1","13","1","647","70","31"
"080918","11:52:48","347524095","test","2","intention_check","79","1","13","1","452","70","31"
"080918","11:52:48","347524095","test","2","prime_negative","80","4","2","1","1167","70","35"
"080918","11:52:48","347524095","test","2","intention_check","81","4","2","0","2500","70","35"
"080918","11:52:48","347524095","test","2","prime_positive","82","4","32","1","905","71","35"
"080918","11:52:48","347524095","test","2","intention_check","83","4","32","0","2500","71","35"
"080918","11:52:48","347524095","test","2","prime_negative","84","12","17","1","1582","71","38"
"080918","11:52:48","347524095","test","2","intention_check","85","12","17","0","2500","71","38"
"080918","11:52:48","347524095","test","2","prime_negative","86","9","54","0","1616","71","36"
"080918","11:52:48","347524095","test","2","intention_check","87","9","54","1","598","71","36"
"080918","11:52:48","347524095","test","2","prime_positive","88","12","59","1","776","72","36"
"080918","11:52:48","347524095","test","2","intention_check","89","12","59","0","2500","72","36"
"080918","11:52:48","347524095","test","2","prime_positive","90","5","9","1","1722","73","36"
"080918","11:52:48","347524095","test","2","intention_check","91","5","9","1","964","73","36"
"080918","11:52:48","347524095","test","2","prime_negative","92","7","16","1","1071","73","39"
"080918","11:52:48","347524095","test","2","intention_check","93","7","16","0","2500","73","39"
"080918","11:52:48","347524095","test","2","prime_positive","94","9","67","0","917","70","39"
"080918","11:52:48","347524095","test","2","intention_check","95","9","67","0","2500","70","39"
"080918","11:52:48","347524095","test","2","prime_negative","96","1","46","0","713","70","37"
"080918","11:52:48","347524095","test","2","intention_check","97","1","46","1","380","70","37"
"080918","11:52:48","347524095","test","2","prime_positive","98","11","5","1","990","72","37"
"080918","11:52:48","347524095","test","2","intention_check","99","11","5","0","2500","72","37"
"080918","11:52:48","347524095","test","2","prime_negative","100","11","58","1","808","72","40"
"080918","11:52:48","347524095","test","2","intention_check","101","11","58","0","2500","72","40"
"080918","11:52:48","347524095","test","2","prime_negative","102","2","72","0","625","72","38"
"080918","11:52:48","347524095","test","2","intention_check","103","2","72","1","440","72","38"
"080918","11:52:48","347524095","test","2","prime_negative","104","5","21","1","866","72","40"
"080918","11:52:48","347524095","test","2","intention_check","105","5","21","0","2500","72","40"
"080918","11:52:48","347524095","test","2","prime_positive","106","10","63","1","735","73","40"
"080918","11:52:48","347524095","test","2","intention_check","107","10","63","0","2500","73","40"
"080918","11:52:48","347524095","test","2","prime_positive","108","3","1","1","1570","74","40"
"080918","11:52:48","347524095","test","2","intention_check","109","3","1","0","2500","74","40"
"080918","11:52:48","347524095","test","2","prime_negative","110","3","28","0","948","74","39"
"080918","11:52:48","347524095","test","2","intention_check","111","3","28","1","261","74","39"
"080918","11:52:48","347524095","test","2","prime_positive","112","7","39","1","656","75","39"
"080918","11:52:48","347524095","test","2","intention_check","113","7","39","0","2500","75","39"
"080918","11:52:48","347524095","test","2","prime_positive","114","8","14","0","894","72","39"
"080918","11:52:48","347524095","test","2","intention_check","115","8","14","0","2500","72","39"
"080918","11:52:48","347524095","test","2","prime_negative","116","6","71","1","1236","72","41"
"080918","11:52:48","347524095","test","2","intention_check","117","6","71","0","2500","72","41"
"080918","11:52:48","347524095","test","2","prime_positive","118","6","51","0","1059","70","41"
"080918","11:52:48","347524095","test","2","intention_check","119","6","51","0","2500","70","41"
"080918","11:52:48","347524095","test","2","prime_negative","120","10","10","1","1154","70","43"
"080918","11:52:48","347524095","test","2","intention_check","121","10","10","0","2500","70","43"
"080918","11:52:48","347524095","test","2","prime_negative","122","8","42","0","644","70","41"
"080918","11:52:48","347524095","test","2","intention_check","123","8","42","1","2226","70","41"
"080918","11:52:48","347524095","test","2","prime_positive","124","2","8","1","1124","70","41"
"080918","11:52:48","347524095","test","2","intention_check","125","2","8","1","1294","70","41"
"080918","11:52:48","347524095","test","2","prime_negative","126","8","63","1","1305","70","43"
"080918","11:52:48","347524095","test","2","intention_check","127","8","63","0","2500","70","43"
"080918","11:52:48","347524095","test","2","prime_positive","128","5","41","1","678","71","43"
"080918","11:52:48","347524095","test","2","intention_check","129","5","41","1","602","71","43"
"080918","11:52:48","347524095","test","2","prime_negative","130","5","48","1","1100","71","45"
"080918","11:52:48","347524095","test","2","intention_check","131","5","48","0","2500","71","45"
"080918","11:52:48","347524095","test","2","prime_positive","132","6","20","1","2273","72","45"
"080918","11:52:48","347524095","test","2","intention_check","133","6","20","0","2500","72","45"
"080918","11:52:48","347524095","test","2","prime_positive","134","4","51","1","847","73","45"
"080918","11:52:48","347524095","test","2","intention_check","135","4","51","0","2500","73","45"
"080918","11:52:48","347524095","test","2","prime_negative","136","4","25","0","1191","73","44"
"080918","11:52:48","347524095","test","2","intention_check","137","4","25","1","430","73","44"
"080918","11:52:48","347524095","test","2","prime_positive","138","7","40","1","1536","74","44"
"080918","11:52:48","347524095","test","2","intention_check","139","7","40","0","2500","74","44"
"080918","11:52:48","347524095","test","2","prime_positive","140","9","26","1","876","75","44"
"080918","11:52:48","347524095","test","2","intention_check","141","9","26","0","2500","75","44"
"080918","11:52:48","347524095","test","2","prime_negative","142","7","62","1","938","75","45"
"080918","11:52:48","347524095","test","2","intention_check","143","7","62","0","2500","75","45"
"080918","11:52:48","347524095","test","2","prime_negative","144","3","10","0","989","75","44"
"080918","11:52:48","347524095","test","2","intention_check","145","3","10","1","388","75","44"
"080918","09:19:05","77268698","practice","1","prime_positive_practice","3","0","0","0","704","0","0"
"080918","09:19:05","77268698","practice","1","intention_check_practice","4","0","0","0","2500","0","0"
"080918","09:19:05","77268698","practice","1","prime_positive_practice","5","0","0","1","565","0","0"
"080918","09:19:05","77268698","practice","1","intention_check_practice","6","0","0","1","765","0","0"
"080918","09:19:05","77268698","practice","1","prime_positive_practice","7","0","0","1","496","0","0"
"080918","09:19:05","77268698","practice","1","intention_check_practice","8","0","0","0","2500","0","0"
"080918","09:19:05","77268698","practice","1","prime_positive_practice","9","0","0","0","325","0","0"
"080918","09:19:05","77268698","practice","1","intention_check_practice","10","0","0","0","2500","0","0"
"080918","09:19:05","77268698","practice","1","prime_negative_practice","11","0","0","1","273","0","0"
"080918","09:19:05","77268698","practice","1","intention_check_practice","12","0","0","1","197","0","0"
"080918","09:19:05","77268698","practice","1","prime_positive_practice","13","0","0","0","456","0","0"
"080918","09:19:05","77268698","practice","1","intention_check_practice","14","0","0","0","2500","0","0"
"080918","09:19:05","77268698","practice","1","prime_negative_practice","15","0","0","1","406","0","0"
"080918","09:19:05","77268698","practice","1","intention_check_practice","16","0","0","1","1389","0","0"
"080918","09:19:05","77268698","practice","1","prime_negative_practice","17","0","0","0","312","0","0"
"080918","09:19:05","77268698","practice","1","intention_check_practice","18","0","0","0","2500","0","0"
"080918","09:19:05","77268698","practice","1","prime_negative_practice","19","0","0","0","196","0","0"
"080918","09:19:05","77268698","practice","1","intention_check_practice","20","0","0","0","2500","0","0"
"080918","09:19:05","77268698","practice","1","prime_negative_practice","21","0","0","1","37","0","0"
"080918","09:19:05","77268698","practice","1","intention_check_practice","22","0","0","0","2500","0","0"
"080918","09:19:05","77268698","test","2","prime_negative","2","12","1","0","649","0","0"
"080918","09:19:05","77268698","test","2","intention_check","3","12","1","0","2500","0","0"
"080918","09:19:05","77268698","test","2","prime_negative","4","5","5","1","568","0","50"
"080918","09:19:05","77268698","test","2","intention_check","5","5","5","0","2500","0","50"
"080918","09:19:05","77268698","test","2","prime_positive","6","3","23","0","426","0","50"
"080918","09:19:05","77268698","test","2","intention_check","7","3","23","0","2500","0","50"
"080918","09:19:05","77268698","test","2","prime_negative","8","6","55","0","842","0","33"
"080918","09:19:05","77268698","test","2","intention_check","9","6","55","0","2500","0","33"
"080918","09:19:05","77268698","test","2","prime_negative","10","7","69","1","385","0","50"
"080918","09:19:05","77268698","test","2","intention_check","11","7","69","0","2500","0","50"
"080918","09:19:05","77268698","test","2","prime_positive","12","6","27","1","770","50","50"
"080918","09:19:05","77268698","test","2","intention_check","13","6","27","1","1682","50","50"
"080918","09:19:05","77268698","test","2","prime_negative","14","11","52","0","781","50","40"
"080918","09:19:05","77268698","test","2","intention_check","15","11","52","0","2500","50","40"
"080918","09:19:05","77268698","test","2","prime_positive","16","11","64","0","455","33","40"
"080918","09:19:05","77268698","test","2","intention_check","17","11","64","0","2500","33","40"
"080918","09:19:05","77268698","test","2","prime_negative","18","9","15","1","1189","33","50"
"080918","09:19:05","77268698","test","2","intention_check","19","9","15","0","2500","33","50"
"080918","09:19:05","77268698","test","2","prime_negative","20","10","33","0","1118","33","42"
"080918","09:19:05","77268698","test","2","intention_check","21","10","33","0","2500","33","42"
"080918","09:19:05","77268698","test","2","prime_negative","22","3","17","0","866","33","37"
"080918","09:19:05","77268698","test","2","intention_check","23","3","17","1","718","33","37"
"080918","09:19:05","77268698","test","2","prime_negative","24","7","35","1","1617","33","44"
"080918","09:19:05","77268698","test","2","intention_check","25","7","35","0","2500","33","44"
"080918","09:19:05","77268698","test","2","prime_positive","26","12","20","1","721","50","44"
"080918","09:19:05","77268698","test","2","intention_check","27","12","20","0","2500","50","44"
"080918","09:19:05","77268698","test","2","prime_positive","28","4","37","1","493","60","44"
"080918","09:19:05","77268698","test","2","intention_check","29","4","37","0","2500","60","44"
"080918","09:19:05","77268698","test","2","prime_negative","30","10","14","0","274","60","40"
"080918","09:19:05","77268698","test","2","intention_check","31","10","14","1","2294","60","40"
"080918","09:19:05","77268698","test","2","prime_negative","32","4","13","1","616","60","45"
"080918","09:19:05","77268698","test","2","intention_check","33","4","13","0","2500","60","45"
"080918","09:19:05","77268698","test","2","prime_negative","34","5","7","0","472","60","41"
"080918","09:19:05","77268698","test","2","intention_check","35","5","7","0","2500","60","41"
"080918","09:19:05","77268698","test","2","prime_positive","36","9","24","1","454","66","41"
"080918","09:19:05","77268698","test","2","intention_check","37","9","24","0","2500","66","41"
"080918","09:19:05","77268698","test","2","prime_negative","38","9","43","1","605","66","46"
"080918","09:19:05","77268698","test","2","intention_check","39","9","43","0","2500","66","46"
"080918","09:19:05","77268698","test","2","prime_negative","40","6","4","1","733","66","50"
"080918","09:19:05","77268698","test","2","intention_check","41","6","4","0","2500","66","50"
"080918","09:19:05","77268698","test","2","prime_negative","42","12","67","0","249","66","46"
"080918","09:19:05","77268698","test","2","intention_check","43","12","67","0","2500","66","46"
"080918","09:19:05","77268698","test","2","prime_negative","44","1","65","0","288","66","43"
"080918","09:19:05","77268698","test","2","intention_check","45","1","65","0","2500","66","43"
"080918","09:19:05","77268698","test","2","prime_negative","46","8","19","1","309","66","47"
"080918","09:19:05","77268698","test","2","intention_check","47","8","19","0","2500","66","47"
"080918","09:19:05","77268698","test","2","prime_negative","48","2","70","0","506","66","44"
"080918","09:19:05","77268698","test","2","intention_check","49","2","70","1","780","66","44"
"080918","09:19:05","77268698","test","2","prime_negative","50","11","2","1","399","66","47"
"080918","09:19:05","77268698","test","2","intention_check","51","11","2","0","2500","66","47"
"080918","09:19:05","77268698","test","2","prime_negative","52","11","46","0","160","66","45"
"080918","09:19:05","77268698","test","2","intention_check","53","11","46","0","2500","66","45"
"080918","09:19:05","77268698","test","2","prime_negative","54","7","57","0","155","66","42"
"080918","09:19:05","77268698","test","2","intention_check","55","7","57","0","2500","66","42"
"080918","09:19:05","77268698","test","2","prime_positive","56","10","3","1","229","71","42"
"080918","09:19:05","77268698","test","2","intention_check","57","10","3","0","2500","71","42"
"080918","09:19:05","77268698","test","2","prime_positive","58","1","10","0","477","62","42"
"080918","09:19:05","77268698","test","2","intention_check","59","1","10","0","2500","62","42"
"080918","09:19:05","77268698","test","2","prime_negative","60","5","8","1","83","62","45"
"080918","09:19:05","77268698","test","2","intention_check","61","5","8","0","2500","62","45"
"080918","09:19:05","77268698","test","2","prime_positive","62","3","36","0","144","55","45"
"080918","09:19:05","77268698","test","2","intention_check","63","3","36","0","2500","55","45"
"080918","09:19:05","77268698","test","2","prime_negative","64","9","49","0","140","55","43"
"080918","09:19:05","77268698","test","2","intention_check","65","9","49","0","2500","55","43"
"080918","09:19:05","77268698","test","2","prime_negative","66","2","47","0","199","55","41"
"080918","09:19:05","77268698","test","2","intention_check","67","2","47","1","1150","55","41"
"080918","09:19:05","77268698","test","2","prime_positive","68","2","56","0","689","50","41"
"080918","09:19:05","77268698","test","2","intention_check","69","2","56","0","2500","50","41"
"080918","09:19:05","77268698","test","2","prime_negative","70","1","68","1","486","50","44"
"080918","09:19:05","77268698","test","2","intention_check","71","1","68","0","2500","50","44"
"080918","09:19:05","77268698","test","2","prime_negative","72","10","29","1","235","50","46"
"080918","09:19:05","77268698","test","2","intention_check","73","10","29","0","2500","50","46"
"080918","09:19:05","77268698","test","2","prime_negative","74","4","22","1","339","50","48"
"080918","09:19:05","77268698","test","2","intention_check","75","4","22","0","2500","50","48"
"080918","09:19:05","77268698","test","2","prime_positive","76","12","30","0","166","45","48"
"080918","09:19:05","77268698","test","2","intention_check","77","12","30","0","2500","45","48"
"080918","09:19:05","77268698","test","2","prime_negative","78","8","34","1","440","45","50"
"080918","09:19:05","77268698","test","2","intention_check","79","8","34","0","2500","45","50"
"080918","09:19:05","77268698","test","2","prime_positive","80","5","72","0","479","41","50"
"080918","09:19:05","77268698","test","2","intention_check","81","5","72","0","2500","41","50"
"080918","09:19:05","77268698","test","2","prime_positive","82","7","38","1","421","46","50"
"080918","09:19:05","77268698","test","2","intention_check","83","7","38","0","2500","46","50"
"080918","09:19:05","77268698","test","2","prime_negative","84","3","6","0","309","46","48"
"080918","09:19:05","77268698","test","2","intention_check","85","3","6","1","824","46","48"
"080918","09:19:05","77268698","test","2","prime_negative","86","6","48","1","866","46","50"
"080918","09:19:05","77268698","test","2","intention_check","87","6","48","0","2500","46","50"
"080918","09:19:05","77268698","test","2","prime_positive","88","8","9","0","432","42","50"
"080918","09:19:05","77268698","test","2","intention_check","89","8","9","0","2500","42","50"
"080918","09:19:05","77268698","test","2","prime_positive","90","11","62","1","352","46","50"
"080918","09:19:05","77268698","test","2","intention_check","91","11","62","0","2500","46","50"
"080918","09:19:05","77268698","test","2","prime_positive","92","4","53","0","418","43","50"
"080918","09:19:05","77268698","test","2","intention_check","93","4","53","0","2500","43","50"
"080918","09:19:05","77268698","test","2","prime_positive","94","6","41","0","530","41","50"
"080918","09:19:05","77268698","test","2","intention_check","95","6","41","0","2500","41","50"
"080918","09:19:05","77268698","test","2","prime_positive","96","10","21","1","558","44","50"
"080918","09:19:05","77268698","test","2","intention_check","97","10","21","0","2500","44","50"
"080918","09:19:05","77268698","test","2","prime_positive","98","9","60","1","761","47","50"
"080918","09:19:05","77268698","test","2","intention_check","99","9","60","1","1753","47","50"
"080918","09:19:05","77268698","test","2","prime_positive","100","5","11","0","380","45","50"
"080918","09:19:05","77268698","test","2","intention_check","101","5","11","0","2500","45","50"
"080918","09:19:05","77268698","test","2","prime_negative","102","12","51","1","486","45","51"
"080918","09:19:05","77268698","test","2","intention_check","103","12","51","0","2500","45","51"
"080918","09:19:05","77268698","test","2","prime_positive","104","8","59","0","403","42","51"
"080918","09:19:05","77268698","test","2","intention_check","105","8","59","0","2500","42","51"
"080918","09:19:05","77268698","test","2","prime_positive","106","9","66","1","412","45","51"
"080918","09:19:05","77268698","test","2","intention_check","107","9","66","0","2500","45","51"
"080918","09:19:05","77268698","test","2","prime_negative","108","2","31","0","580","45","50"
"080918","09:19:05","77268698","test","2","intention_check","109","2","31","0","2500","45","50"
"080918","09:19:05","77268698","test","2","prime_positive","110","4","12","1","630","47","50"
"080918","09:19:05","77268698","test","2","intention_check","111","4","12","0","2500","47","50"
"080918","09:19:05","77268698","test","2","prime_negative","112","12","54","0","270","47","48"
"080918","09:19:05","77268698","test","2","intention_check","113","12","54","0","2500","47","48"
"080918","09:19:05","77268698","test","2","prime_positive","114","1","63","0","556","45","48"
"080918","09:19:05","77268698","test","2","intention_check","115","1","63","0","2500","45","48"
"080918","09:19:05","77268698","test","2","prime_positive","116","10","44","1","527","48","48"
"080918","09:19:05","77268698","test","2","intention_check","117","10","44","0","2500","48","48"
"080918","09:19:05","77268698","test","2","prime_negative","118","3","18","0","387","48","47"
"080918","09:19:05","77268698","test","2","intention_check","119","3","18","0","2500","48","47"
"080918","09:19:05","77268698","test","2","prime_positive","120","6","58","1","268","50","47"
"080918","09:19:05","77268698","test","2","intention_check","121","6","58","0","2500","50","47"
"080918","09:19:05","77268698","test","2","prime_positive","122","2","50","0","194","48","47"
"080918","09:19:05","77268698","test","2","intention_check","123","2","50","0","2500","48","47"
"080918","09:19:05","77268698","test","2","prime_positive","124","7","28","1","411","50","47"
"080918","09:19:05","77268698","test","2","intention_check","125","7","28","1","754","50","47"
"080918","09:19:05","77268698","test","2","prime_positive","126","3","7","1","412","51","47"
"080918","09:19:05","77268698","test","2","intention_check","127","3","7","0","2500","51","47"
"080918","09:19:05","77268698","test","2","prime_negative","128","9","49","0","333","51","45"
"080918","09:19:05","77268698","test","2","intention_check","129","9","49","0","2500","51","45"
"080918","09:19:05","77268698","test","2","prime_positive","130","12","71","0","776","50","45"
"080918","09:19:05","77268698","test","2","intention_check","131","12","71","0","2500","50","45"
"080918","09:19:05","77268698","test","2","prime_positive","132","11","22","1","362","51","45"
"080918","09:19:05","77268698","test","2","intention_check","133","11","22","0","2500","51","45"
"080918","09:19:05","77268698","test","2","prime_positive","134","12","64","0","557","50","45"
"080918","09:19:05","77268698","test","2","intention_check","135","12","64","0","2500","50","45"
"080918","09:19:05","77268698","test","2","prime_positive","136","3","6","0","599","48","45"
"080918","09:19:05","77268698","test","2","intention_check","137","3","6","0","2500","48","45"
"080918","09:19:05","77268698","test","2","prime_positive","138","8","21","1","696","50","45"
"080918","09:19:05","77268698","test","2","intention_check","139","8","21","0","2500","50","45"
"080918","09:19:05","77268698","test","2","prime_positive","140","9","68","0","653","48","45"
"080918","09:19:05","77268698","test","2","intention_check","141","9","68","0","2500","48","45"
"080918","09:19:05","77268698","test","2","prime_positive","142","6","67","0","636","47","45"
"080918","09:19:05","77268698","test","2","intention_check","143","6","67","0","2500","47","45"
"080918","09:19:05","77268698","test","2","prime_negative","144","11","46","1","227","47","47"
"080918","09:19:05","77268698","test","2","intention_check","145","11","46","0","2500","47","47"
"080918","12:29:46","408892577","practice","1","prime_positive_practice","3","0","0","1","1668","0","0"
"080918","12:29:46","408892577","practice","1","intention_check_practice","4","0","0","0","2500","0","0"
"080918","12:29:46","408892577","practice","1","prime_positive_practice","5","0","0","1","530","0","0"
"080918","12:29:46","408892577","practice","1","intention_check_practice","6","0","0","0","2500","0","0"
"080918","12:29:46","408892577","practice","1","prime_negative_practice","7","0","0","1","798","0","0"
"080918","12:29:46","408892577","practice","1","intention_check_practice","8","0","0","0","2500","0","0"
"080918","12:29:46","408892577","practice","1","prime_positive_practice","9","0","0","0","287","0","0"
"080918","12:29:46","408892577","practice","1","intention_check_practice","10","0","0","0","2500","0","0"
"080918","12:29:46","408892577","practice","1","prime_negative_practice","11","0","0","1","852","0","0"
"080918","12:29:46","408892577","practice","1","intention_check_practice","12","0","0","0","2500","0","0"
"080918","12:29:46","408892577","practice","1","prime_positive_practice","13","0","0","1","1138","0","0"
"080918","12:29:46","408892577","practice","1","intention_check_practice","14","0","0","1","1140","0","0"
"080918","12:29:46","408892577","practice","1","prime_negative_practice","15","0","0","1","550","0","0"
"080918","12:29:46","408892577","practice","1","intention_check_practice","16","0","0","0","2500","0","0"
"080918","12:29:46","408892577","practice","1","prime_positive_practice","17","0","0","1","985","0","0"
"080918","12:29:46","408892577","practice","1","intention_check_practice","18","0","0","0","2500","0","0"
"080918","12:29:46","408892577","practice","1","prime_negative_practice","19","0","0","0","154","0","0"
"080918","12:29:46","408892577","practice","1","intention_check_practice","20","0","0","0","2500","0","0"
"080918","12:29:46","408892577","practice","1","prime_negative_practice","21","0","0","0","284","0","0"
"080918","12:29:46","408892577","practice","1","intention_check_practice","22","0","0","0","2500","0","0"
"080918","12:29:46","408892577","test","2","prime_positive","2","10","48","1","109","100","0"
"080918","12:29:46","408892577","test","2","intention_check","3","10","48","0","2500","100","0"
"080918","12:29:46","408892577","test","2","prime_positive","4","9","63","0","313","50","0"
"080918","12:29:46","408892577","test","2","intention_check","5","9","63","0","2500","50","0"
"080918","12:29:46","408892577","test","2","prime_positive","6","7","8","0","302","33","0"
"080918","12:29:46","408892577","test","2","intention_check","7","7","8","0","2500","33","0"
"080918","12:29:46","408892577","test","2","prime_negative","8","8","37","1","27","33","100"
"080918","12:29:46","408892577","test","2","intention_check","9","8","37","0","2500","33","100"
"080918","12:29:46","408892577","test","2","prime_negative","10","2","18","1","650","33","100"
"080918","12:29:46","408892577","test","2","intention_check","11","2","18","0","2500","33","100"
"080918","12:29:46","408892577","test","2","prime_positive","12","2","43","0","289","25","100"
"080918","12:29:46","408892577","test","2","intention_check","13","2","43","0","2500","25","100"
"080918","12:29:46","408892577","test","2","prime_positive","14","4","72","0","430","20","100"
"080918","12:29:46","408892577","test","2","intention_check","15","4","72","0","2500","20","100"
"080918","12:29:46","408892577","test","2","prime_negative","16","1","52","1","1198","20","100"
"080918","12:29:46","408892577","test","2","intention_check","17","1","52","0","2500","20","100"
"080918","12:29:46","408892577","test","2","prime_negative","18","12","56","0","335","20","75"
"080918","12:29:46","408892577","test","2","intention_check","19","12","56","0","2500","20","75"
"080918","12:29:46","408892577","test","2","prime_negative","20","10","34","1","298","20","80"
"080918","12:29:46","408892577","test","2","intention_check","21","10","34","0","2500","20","80"
"080918","12:29:46","408892577","test","2","prime_negative","22","3","50","0","176","20","66"
"080918","12:29:46","408892577","test","2","intention_check","23","3","50","0","2500","20","66"
"080918","12:29:46","408892577","test","2","prime_positive","24","11","14","1","249","33","66"
"080918","12:29:46","408892577","test","2","intention_check","25","11","14","0","2500","33","66"
"080918","12:29:46","408892577","test","2","prime_negative","26","11","57","1","480","33","71"
"080918","12:29:46","408892577","test","2","intention_check","27","11","57","0","2500","33","71"
"080918","12:29:46","408892577","test","2","prime_positive","28","3","49","0","310","28","71"
"080918","12:29:46","408892577","test","2","intention_check","29","3","49","0","2500","28","71"
"080918","12:29:46","408892577","test","2","prime_negative","30","6","16","0","307","28","62"
"080918","12:29:46","408892577","test","2","intention_check","31","6","16","0","2500","28","62"
"080918","12:29:46","408892577","test","2","prime_positive","32","12","13","0","223","25","62"
"080918","12:29:46","408892577","test","2","intention_check","33","12","13","0","2500","25","62"
"080918","12:29:46","408892577","test","2","prime_negative","34","2","25","1","23","25","66"
"080918","12:29:46","408892577","test","2","intention_check","35","2","25","0","2500","25","66"
"080918","12:29:46","408892577","test","2","prime_negative","36","5","54","1","335","25","70"
"080918","12:29:46","408892577","test","2","intention_check","37","5","54","0","2500","25","70"
"080918","12:29:46","408892577","test","2","prime_negative","38","10","59","0","338","25","63"
"080918","12:29:46","408892577","test","2","intention_check","39","10","59","1","843","25","63"
"080918","12:29:46","408892577","test","2","prime_negative","40","3","41","1","382","25","66"
"080918","12:29:46","408892577","test","2","intention_check","41","3","41","0","2500","25","66"
"080918","12:29:46","408892577","test","2","prime_negative","42","4","1","1","328","25","69"
"080918","12:29:46","408892577","test","2","intention_check","43","4","1","0","2500","25","69"
"080918","12:29:46","408892577","test","2","prime_positive","44","7","12","0","148","22","69"
"080918","12:29:46","408892577","test","2","intention_check","45","7","12","0","2500","22","69"
"080918","12:29:46","408892577","test","2","prime_negative","46","12","17","0","303","22","64"
"080918","12:29:46","408892577","test","2","intention_check","47","12","17","0","2500","22","64"
"080918","12:29:46","408892577","test","2","prime_positive","48","4","36","1","435","30","64"
"080918","12:29:46","408892577","test","2","intention_check","49","4","36","0","2500","30","64"
"080918","12:29:46","408892577","test","2","prime_negative","50","1","21","0","323","30","60"
"080918","12:29:46","408892577","test","2","intention_check","51","1","21","0","2500","30","60"
"080918","12:29:46","408892577","test","2","prime_negative","52","8","33","0","359","30","56"
"080918","12:29:46","408892577","test","2","intention_check","53","8","33","0","2500","30","56"
"080918","12:29:46","408892577","test","2","prime_positive","54","8","68","1","1113","36","56"
"080918","12:29:46","408892577","test","2","intention_check","55","8","68","0","2500","36","56"
"080918","12:29:46","408892577","test","2","prime_positive","56","5","61","0","446","33","56"
"080918","12:29:46","408892577","test","2","intention_check","57","5","61","0","2500","33","56"
"080918","12:29:46","408892577","test","2","prime_positive","58","6","26","1","3245","38","56"
"080918","12:29:46","408892577","test","2","intention_check","59","6","26","0","2500","38","56"
"080918","12:29:46","408892577","test","2","prime_negative","60","11","28","1","372","38","58"
"080918","12:29:46","408892577","test","2","intention_check","61","11","28","0","2500","38","58"
"080918","12:29:46","408892577","test","2","prime_positive","62","2","5","0","414","35","58"
"080918","12:29:46","408892577","test","2","intention_check","63","2","5","0","2500","35","58"
"080918","12:29:46","408892577","test","2","prime_positive","64","1","69","1","382","40","58"
"080918","12:29:46","408892577","test","2","intention_check","65","1","69","0","2500","40","58"
"080918","12:29:46","408892577","test","2","prime_positive","66","11","45","1","688","43","58"
"080918","12:29:46","408892577","test","2","intention_check","67","11","45","0","2500","43","58"
"080918","12:29:46","408892577","test","2","prime_positive","68","10","31","0","285","41","58"
"080918","12:29:46","408892577","test","2","intention_check","69","10","31","0","2500","41","58"
"080918","12:29:46","408892577","test","2","prime_positive","70","3","51","1","1298","44","58"
"080918","12:29:46","408892577","test","2","intention_check","71","3","51","0","2500","44","58"
"080918","12:29:46","408892577","test","2","prime_negative","72","7","46","0","296","44","55"
"080918","12:29:46","408892577","test","2","intention_check","73","7","46","0","2500","44","55"
"080918","12:29:46","408892577","test","2","prime_positive","74","9","60","1","213","47","55"
"080918","12:29:46","408892577","test","2","intention_check","75","9","60","0","2500","47","55"
"080918","12:29:46","408892577","test","2","prime_negative","76","9","24","1","310","47","57"
"080918","12:29:46","408892577","test","2","intention_check","77","9","24","0","2500","47","57"
"080918","12:29:46","408892577","test","2","prime_positive","78","9","53","0","290","45","57"
"080918","12:29:46","408892577","test","2","intention_check","79","9","53","0","2500","45","57"
"080918","12:29:46","408892577","test","2","prime_negative","80","7","70","1","375","45","60"
"080918","12:29:46","408892577","test","2","intention_check","81","7","70","0","2500","45","60"
"080918","12:29:46","408892577","test","2","prime_positive","82","11","29","0","2849","42","60"
"080918","12:29:46","408892577","test","2","intention_check","83","11","29","0","2500","42","60"
"080918","12:29:46","408892577","test","2","prime_negative","84","4","11","1","1464","42","61"
"080918","12:29:46","408892577","test","2","intention_check","85","4","11","0","2500","42","61"
"080918","12:29:46","408892577","test","2","prime_positive","86","7","6","1","3407","45","61"
"080918","12:29:46","408892577","test","2","intention_check","87","7","6","0","2500","45","61"
"080918","12:29:46","408892577","test","2","prime_positive","88","1","7","0","639","43","61"
"080918","12:29:46","408892577","test","2","intention_check","89","1","7","0","2500","43","61"
"080918","12:29:46","408892577","test","2","prime_negative","90","6","20","0","2342","43","59"
"080918","12:29:46","408892577","test","2","intention_check","91","6","20","0","2500","43","59"
"080918","12:29:46","408892577","test","2","prime_positive","92","12","22","1","802","45","59"
"080918","12:29:46","408892577","test","2","intention_check","93","12","22","0","2500","45","59"
"080918","12:29:46","408892577","test","2","prime_positive","94","10","39","1","1554","48","59"
"080918","12:29:46","408892577","test","2","intention_check","95","10","39","0","2500","48","59"
"080918","12:29:46","408892577","test","2","prime_negative","96","11","44","0","620","48","56"
"080918","12:29:46","408892577","test","2","intention_check","97","11","44","0","2500","48","56"
"080918","12:29:46","408892577","test","2","prime_negative","98","2","62","1","300","48","58"
"080918","12:29:46","408892577","test","2","intention_check","99","2","62","0","2500","48","58"
"080918","12:29:46","408892577","test","2","prime_positive","100","5","4","1","497","50","58"
"080918","12:29:46","408892577","test","2","intention_check","101","5","4","1","860","50","58"
"080918","12:29:46","408892577","test","2","prime_negative","102","9","55","0","423","50","56"
"080918","12:29:46","408892577","test","2","intention_check","103","9","55","0","2500","50","56"
"080918","12:29:46","408892577","test","2","prime_negative","104","8","42","1","807","50","57"
"080918","12:29:46","408892577","test","2","intention_check","105","8","42","0","2500","50","57"
"080918","12:29:46","408892577","test","2","prime_negative","106","5","40","1","375","50","59"
"080918","12:29:46","408892577","test","2","intention_check","107","5","40","0","2500","50","59"
"080918","12:29:46","408892577","test","2","prime_negative","108","12","2","0","505","50","57"
"080918","12:29:46","408892577","test","2","intention_check","109","12","2","0","2500","50","57"
"080918","12:29:46","408892577","test","2","prime_positive","110","4","10","1","462","51","57"
"080918","12:29:46","408892577","test","2","intention_check","111","4","10","0","2500","51","57"
"080918","12:29:46","408892577","test","2","prime_negative","112","3","30","0","468","51","55"
"080918","12:29:46","408892577","test","2","intention_check","113","3","30","0","2500","51","55"
"080918","12:29:46","408892577","test","2","prime_negative","114","1","64","1","235","51","56"
"080918","12:29:46","408892577","test","2","intention_check","115","1","64","0","2500","51","56"
"080918","12:29:46","408892577","test","2","prime_positive","116","3","47","1","169","53","56"
"080918","12:29:46","408892577","test","2","intention_check","117","3","47","0","2500","53","56"
"080918","12:29:46","408892577","test","2","prime_negative","118","10","23","1","339","53","58"
"080918","12:29:46","408892577","test","2","intention_check","119","10","23","0","2500","53","58"
"080918","12:29:46","408892577","test","2","prime_positive","120","8","71","0","526","51","58"
"080918","12:29:46","408892577","test","2","intention_check","121","8","71","0","2500","51","58"
"080918","12:29:46","408892577","test","2","prime_positive","122","2","65","1","322","53","58"
"080918","12:29:46","408892577","test","2","intention_check","123","2","65","0","2500","53","58"
"080918","12:29:46","408892577","test","2","prime_positive","124","6","27","0","366","51","58"
"080918","12:29:46","408892577","test","2","intention_check","125","6","27","0","2500","51","58"
"080918","12:29:46","408892577","test","2","prime_positive","126","9","21","1","424","53","58"
"080918","12:29:46","408892577","test","2","intention_check","127","9","21","0","2500","53","58"
"080918","12:29:46","408892577","test","2","prime_negative","128","10","52","1","360","53","59"
"080918","12:29:46","408892577","test","2","intention_check","129","10","52","0","2500","53","59"
"080918","12:29:46","408892577","test","2","prime_positive","130","12","70","0","642","51","59"
"080918","12:29:46","408892577","test","2","intention_check","131","12","70","0","2500","51","59"
"080918","12:29:46","408892577","test","2","prime_positive","132","3","53","1","441","52","59"
"080918","12:29:46","408892577","test","2","intention_check","133","3","53","1","679","52","59"
"080918","12:29:46","408892577","test","2","prime_positive","134","4","29","1","513","54","59"
"080918","12:29:46","408892577","test","2","intention_check","135","4","29","0","2500","54","59"
"080918","12:29:46","408892577","test","2","prime_negative","136","3","3","0","262","54","57"
"080918","12:29:46","408892577","test","2","intention_check","137","3","3","1","874","54","57"
"080918","12:29:46","408892577","test","2","prime_negative","138","11","5","1","381","54","58"
"080918","12:29:46","408892577","test","2","intention_check","139","11","5","0","2500","54","58"
"080918","12:29:46","408892577","test","2","prime_negative","140","1","47","0","599","54","57"
"080918","12:29:46","408892577","test","2","intention_check","141","1","47","0","2500","54","57"
"080918","12:29:46","408892577","test","2","prime_positive","142","8","43","1","409","55","57"
"080918","12:29:46","408892577","test","2","intention_check","143","8","43","0","2500","55","57"
"080918","12:29:46","408892577","test","2","prime_negative","144","6","44","1","561","55","58"
"080918","12:29:46","408892577","test","2","intention_check","145","6","44","0","2500","55","58"
"080918","12:37:21","210361004","practice","1","prime_negative_practice","3","0","0","1","4070","0","0"
"080918","12:37:21","210361004","practice","1","intention_check_practice","4","0","0","0","2500","0","0"
"080918","12:37:21","210361004","practice","1","prime_negative_practice","5","0","0","1","910","0","0"
"080918","12:37:21","210361004","practice","1","intention_check_practice","6","0","0","0","2500","0","0"
"080918","12:37:21","210361004","practice","1","prime_positive_practice","7","0","0","0","656","0","0"
"080918","12:37:21","210361004","practice","1","intention_check_practice","8","0","0","0","2500","0","0"
"080918","12:37:21","210361004","practice","1","prime_positive_practice","9","0","0","1","610","0","0"
"080918","12:37:21","210361004","practice","1","intention_check_practice","10","0","0","0","2500","0","0"
"080918","12:37:21","210361004","practice","1","prime_positive_practice","11","0","0","0","770","0","0"
"080918","12:37:21","210361004","practice","1","intention_check_practice","12","0","0","0","2500","0","0"
"080918","12:37:21","210361004","practice","1","prime_negative_practice","13","0","0","0","835","0","0"
"080918","12:37:21","210361004","practice","1","intention_check_practice","14","0","0","0","2500","0","0"
"080918","12:37:21","210361004","practice","1","prime_positive_practice","15","0","0","0","753","0","0"
"080918","12:37:21","210361004","practice","1","intention_check_practice","16","0","0","0","2500","0","0"
"080918","12:37:21","210361004","practice","1","prime_negative_practice","17","0","0","0","884","0","0"
"080918","12:37:21","210361004","practice","1","intention_check_practice","18","0","0","0","2500","0","0"
"080918","12:37:21","210361004","practice","1","prime_positive_practice","19","0","0","0","773","0","0"
"080918","12:37:21","210361004","practice","1","intention_check_practice","20","0","0","0","2500","0","0"
"080918","12:37:21","210361004","practice","1","prime_negative_practice","21","0","0","1","629","0","0"
"080918","12:37:21","210361004","practice","1","intention_check_practice","22","0","0","0","2500","0","0"
"080918","12:37:21","210361004","test","2","prime_positive","2","10","25","1","803","100","0"
"080918","12:37:21","210361004","test","2","intention_check","3","10","25","0","2500","100","0"
"080918","12:37:21","210361004","test","2","prime_positive","4","11","66","1","665","100","0"
"080918","12:37:21","210361004","test","2","intention_check","5","11","66","0","2500","100","0"
"080918","12:37:21","210361004","test","2","prime_positive","6","3","13","1","522","100","0"
"080918","12:37:21","210361004","test","2","intention_check","7","3","13","0","2500","100","0"
"080918","12:37:21","210361004","test","2","prime_negative","8","8","72","1","559","100","100"
"080918","12:37:21","210361004","test","2","intention_check","9","8","72","0","2500","100","100"
"080918","12:37:21","210361004","test","2","prime_positive","10","4","17","1","542","100","100"
"080918","12:37:21","210361004","test","2","intention_check","11","4","17","0","2500","100","100"
"080918","12:37:21","210361004","test","2","prime_positive","12","8","2","1","1434","100","100"
"080918","12:37:21","210361004","test","2","intention_check","13","8","2","0","2500","100","100"
"080918","12:37:21","210361004","test","2","prime_positive","14","7","32","1","668","100","100"
"080918","12:37:21","210361004","test","2","intention_check","15","7","32","0","2500","100","100"
"080918","12:37:21","210361004","test","2","prime_negative","16","11","68","1","505","100","100"
"080918","12:37:21","210361004","test","2","intention_check","17","11","68","0","2500","100","100"
"080918","12:37:21","210361004","test","2","prime_negative","18","9","33","1","663","100","100"
"080918","12:37:21","210361004","test","2","intention_check","19","9","33","0","2500","100","100"
"080918","12:37:21","210361004","test","2","prime_positive","20","1","5","0","554","85","100"
"080918","12:37:21","210361004","test","2","intention_check","21","1","5","0","2500","85","100"
"080918","12:37:21","210361004","test","2","prime_positive","22","4","6","1","771","87","100"
"080918","12:37:21","210361004","test","2","intention_check","23","4","6","0","2500","87","100"
"080918","12:37:21","210361004","test","2","prime_positive","24","8","16","0","529","77","100"
"080918","12:37:21","210361004","test","2","intention_check","25","8","16","0","2500","77","100"
"080918","12:37:21","210361004","test","2","prime_positive","26","9","15","0","850","70","100"
"080918","12:37:21","210361004","test","2","intention_check","27","9","15","0","2500","70","100"
"080918","12:37:21","210361004","test","2","prime_negative","28","10","8","1","1556","70","100"
"080918","12:37:21","210361004","test","2","intention_check","29","10","8","0","2500","70","100"
"080918","12:37:21","210361004","test","2","prime_negative","30","5","23","1","607","70","100"
"080918","12:37:21","210361004","test","2","intention_check","31","5","23","0","2500","70","100"
"080918","12:37:21","210361004","test","2","prime_negative","32","1","64","0","508","70","83"
"080918","12:37:21","210361004","test","2","intention_check","33","1","64","0","2500","70","83"
"080918","12:37:21","210361004","test","2","prime_positive","34","6","19","0","803","63","83"
"080918","12:37:21","210361004","test","2","intention_check","35","6","19","0","2500","63","83"
"080918","12:37:21","210361004","test","2","prime_positive","36","7","61","0","661","58","83"
"080918","12:37:21","210361004","test","2","intention_check","37","7","61","0","2500","58","83"
"080918","12:37:21","210361004","test","2","prime_negative","38","12","54","1","669","58","85"
"080918","12:37:21","210361004","test","2","intention_check","39","12","54","0","2500","58","85"
"080918","12:37:21","210361004","test","2","prime_positive","40","5","31","0","627","53","85"
"080918","12:37:21","210361004","test","2","intention_check","41","5","31","0","2500","53","85"
"080918","12:37:21","210361004","test","2","prime_negative","42","1","29","1","700","53","87"
"080918","12:37:21","210361004","test","2","intention_check","43","1","29","0","2500","53","87"
"080918","12:37:21","210361004","test","2","prime_negative","44","5","38","1","626","53","88"
"080918","12:37:21","210361004","test","2","intention_check","45","5","38","0","2500","53","88"
"080918","12:37:21","210361004","test","2","prime_negative","46","12","46","1","638","53","90"
"080918","12:37:21","210361004","test","2","intention_check","47","12","46","0","2500","53","90"
"080918","12:37:21","210361004","test","2","prime_negative","48","11","50","0","645","53","81"
"080918","12:37:21","210361004","test","2","intention_check","49","11","50","0","2500","53","81"
"080918","12:37:21","210361004","test","2","prime_negative","50","10","71","0","756","53","75"
"080918","12:37:21","210361004","test","2","intention_check","51","10","71","0","2500","53","75"
"080918","12:37:21","210361004","test","2","prime_negative","52","4","45","0","559","53","69"
"080918","12:37:21","210361004","test","2","intention_check","53","4","45","0","2500","53","69"
"080918","12:37:21","210361004","test","2","prime_positive","54","2","35","1","1291","57","69"
"080918","12:37:21","210361004","test","2","intention_check","55","2","35","0","2500","57","69"
"080918","12:37:21","210361004","test","2","prime_negative","56","7","42","0","921","57","64"
"080918","12:37:21","210361004","test","2","intention_check","57","7","42","0","2500","57","64"
"080918","12:37:21","210361004","test","2","prime_negative","58","9","30","1","615","57","66"
"080918","12:37:21","210361004","test","2","intention_check","59","9","30","0","2500","57","66"
"080918","12:37:21","210361004","test","2","prime_negative","60","2","11","1","696","57","68"
"080918","12:37:21","210361004","test","2","intention_check","61","2","11","0","2500","57","68"
"080918","12:37:21","210361004","test","2","prime_positive","62","3","60","0","817","53","68"
"080918","12:37:21","210361004","test","2","intention_check","63","3","60","0","2500","53","68"
"080918","12:37:21","210361004","test","2","prime_positive","64","11","47","0","681","50","68"
"080918","12:37:21","210361004","test","2","intention_check","65","11","47","0","2500","50","68"
"080918","12:37:21","210361004","test","2","prime_positive","66","1","67","0","627","47","68"
"080918","12:37:21","210361004","test","2","intention_check","67","1","67","0","2500","47","68"
"080918","12:37:21","210361004","test","2","prime_positive","68","12","34","0","794","44","68"
"080918","12:37:21","210361004","test","2","intention_check","69","12","34","0","2500","44","68"
"080918","12:37:21","210361004","test","2","prime_negative","70","8","65","0","581","44","64"
"080918","12:37:21","210361004","test","2","intention_check","71","8","65","0","2500","44","64"
"080918","12:37:21","210361004","test","2","prime_positive","72","10","53","0","940","42","64"
"080918","12:37:21","210361004","test","2","intention_check","73","10","53","0","2500","42","64"
"080918","12:37:21","210361004","test","2","prime_negative","74","6","40","0","2625","42","61"
"080918","12:37:21","210361004","test","2","intention_check","75","6","40","0","2500","42","61"
"080918","12:37:21","210361004","test","2","prime_positive","76","3","44","0","741","40","61"
"080918","12:37:21","210361004","test","2","intention_check","77","3","44","0","2500","40","61"
"080918","12:37:21","210361004","test","2","prime_positive","78","10","48","0","579","38","61"
"080918","12:37:21","210361004","test","2","intention_check","79","10","48","0","2500","38","61"
"080918","12:37:21","210361004","test","2","prime_negative","80","3","52","0","862","38","57"
"080918","12:37:21","210361004","test","2","intention_check","81","3","52","0","2500","38","57"
"080918","12:37:21","210361004","test","2","prime_positive","82","12","21","1","621","40","57"
"080918","12:37:21","210361004","test","2","intention_check","83","12","21","0","2500","40","57"
"080918","12:37:21","210361004","test","2","prime_positive","84","9","63","0","733","39","57"
"080918","12:37:21","210361004","test","2","intention_check","85","9","63","0","2500","39","57"
"080918","12:37:21","210361004","test","2","prime_negative","86","11","39","1","566","39","60"
"080918","12:37:21","210361004","test","2","intention_check","87","11","39","0","2500","39","60"
"080918","12:37:21","210361004","test","2","prime_positive","88","1","3","1","658","41","60"
"080918","12:37:21","210361004","test","2","intention_check","89","1","3","0","2500","41","60"
"080918","12:37:21","210361004","test","2","prime_negative","90","4","1","0","622","41","57"
"080918","12:37:21","210361004","test","2","intention_check","91","4","1","0","2500","41","57"
"080918","12:37:21","210361004","test","2","prime_positive","92","5","51","0","1155","40","57"
"080918","12:37:21","210361004","test","2","intention_check","93","5","51","0","2500","40","57"
"080918","12:37:21","210361004","test","2","prime_negative","94","12","58","1","1248","40","59"
"080918","12:37:21","210361004","test","2","intention_check","95","12","58","0","2500","40","59"
"080918","12:37:21","210361004","test","2","prime_negative","96","5","4","0","1335","40","56"
"080918","12:37:21","210361004","test","2","intention_check","97","5","4","0","2500","40","56"
"080918","12:37:21","210361004","test","2","prime_positive","98","7","22","1","808","42","56"
"080918","12:37:21","210361004","test","2","intention_check","99","7","22","0","2500","42","56"
"080918","12:37:21","210361004","test","2","prime_positive","100","11","27","1","527","44","56"
"080918","12:37:21","210361004","test","2","intention_check","101","11","27","0","2500","44","56"
"080918","12:37:21","210361004","test","2","prime_positive","102","4","24","1","522","46","56"
"080918","12:37:21","210361004","test","2","intention_check","103","4","24","0","2500","46","56"
"080918","12:37:21","210361004","test","2","prime_positive","104","8","18","1","1937","48","56"
"080918","12:37:21","210361004","test","2","intention_check","105","8","18","0","2500","48","56"
"080918","12:37:21","210361004","test","2","prime_negative","106","2","56","0","943","48","54"
"080918","12:37:21","210361004","test","2","intention_check","107","2","56","0","2500","48","54"
"080918","12:37:21","210361004","test","2","prime_negative","108","3","55","0","711","48","52"
"080918","12:37:21","210361004","test","2","intention_check","109","3","55","0","2500","48","52"
"080918","12:37:21","210361004","test","2","prime_negative","110","1","7","0","1235","48","50"
"080918","12:37:21","210361004","test","2","intention_check","111","1","7","0","2500","48","50"
"080918","12:37:21","210361004","test","2","prime_positive","112","2","36","1","566","50","50"
"080918","12:37:21","210361004","test","2","intention_check","113","2","36","0","2500","50","50"
"080918","12:37:21","210361004","test","2","prime_negative","114","6","28","1","1885","50","51"
"080918","12:37:21","210361004","test","2","intention_check","115","6","28","0","2500","50","51"
"080918","12:37:21","210361004","test","2","prime_negative","116","7","12","1","1419","50","53"
"080918","12:37:21","210361004","test","2","intention_check","117","7","12","0","2500","50","53"
"080918","12:37:21","210361004","test","2","prime_positive","118","6","9","1","463","51","53"
"080918","12:37:21","210361004","test","2","intention_check","119","6","9","0","2500","51","53"
"080918","12:37:21","210361004","test","2","prime_negative","120","9","26","0","538","51","51"
"080918","12:37:21","210361004","test","2","intention_check","121","9","26","0","2500","51","51"
"080918","12:37:21","210361004","test","2","prime_negative","122","10","59","1","676","51","53"
"080918","12:37:21","210361004","test","2","intention_check","123","10","59","0","2500","51","53"
"080918","12:37:21","210361004","test","2","prime_negative","124","8","10","0","701","51","51"
"080918","12:37:21","210361004","test","2","intention_check","125","8","10","0","2500","51","51"
"080918","12:37:21","210361004","test","2","prime_positive","126","5","48","0","501","50","51"
"080918","12:37:21","210361004","test","2","intention_check","127","5","48","0","2500","50","51"
"080918","12:37:21","210361004","test","2","prime_positive","128","9","1","0","642","48","51"
"080918","12:37:21","210361004","test","2","intention_check","129","9","1","0","2500","48","51"
"080918","12:37:21","210361004","test","2","prime_negative","130","12","56","0","454","48","50"
"080918","12:37:21","210361004","test","2","intention_check","131","12","56","0","2500","48","50"
"080918","12:37:21","210361004","test","2","prime_positive","132","3","13","1","786","50","50"
"080918","12:37:21","210361004","test","2","intention_check","133","3","13","0","2500","50","50"
"080918","12:37:21","210361004","test","2","prime_negative","134","6","62","0","598","50","48"
"080918","12:37:21","210361004","test","2","intention_check","135","6","62","0","2500","50","48"
"080918","12:37:21","210361004","test","2","prime_negative","136","2","7","0","1436","50","47"
"080918","12:37:21","210361004","test","2","intention_check","137","2","7","0","2500","50","47"
"080918","12:37:21","210361004","test","2","prime_positive","138","4","37","1","865","51","47"
"080918","12:37:21","210361004","test","2","intention_check","139","4","37","0","2500","51","47"
"080918","12:37:21","210361004","test","2","prime_positive","140","6","6","1","1055","52","47"
"080918","12:37:21","210361004","test","2","intention_check","141","6","6","0","2500","52","47"
"080918","12:37:21","210361004","test","2","prime_negative","142","3","42","0","645","52","45"
"080918","12:37:21","210361004","test","2","intention_check","143","3","42","0","2500","52","45"
"080918","12:37:21","210361004","test","2","prime_negative","144","9","49","1","739","52","47"
"080918","12:37:21","210361004","test","2","intention_check","145","9","49","0","2500","52","47"
"080918","12:39:37","24223154","practice","1","prime_positive_practice","3","0","0","1","463","0","0"
"080918","12:39:37","24223154","practice","1","intention_check_practice","4","0","0","0","2500","0","0"
"080918","12:39:37","24223154","practice","1","prime_negative_practice","5","0","0","1","6103","0","0"
"080918","12:39:37","24223154","practice","1","intention_check_practice","6","0","0","0","2500","0","0"
"080918","12:39:37","24223154","practice","1","prime_negative_practice","7","0","0","1","5170","0","0"
"080918","12:39:37","24223154","practice","1","intention_check_practice","8","0","0","0","2500","0","0"
"080918","12:39:37","24223154","practice","1","prime_positive_practice","9","0","0","1","1402","0","0"
"080918","12:39:37","24223154","practice","1","intention_check_practice","10","0","0","0","2500","0","0"
"080918","12:39:37","24223154","practice","1","prime_negative_practice","11","0","0","0","2473","0","0"
"080918","12:39:37","24223154","practice","1","intention_check_practice","12","0","0","1","428","0","0"
"080918","12:39:37","24223154","practice","1","prime_negative_practice","13","0","0","0","1649","0","0"
"080918","12:39:37","24223154","practice","1","intention_check_practice","14","0","0","1","180","0","0"
"080918","12:39:37","24223154","practice","1","prime_positive_practice","15","0","0","1","1390","0","0"
"080918","12:39:37","24223154","practice","1","intention_check_practice","16","0","0","1","706","0","0"
"080918","12:39:37","24223154","practice","1","prime_positive_practice","17","0","0","1","1621","0","0"
"080918","12:39:37","24223154","practice","1","intention_check_practice","18","0","0","1","288","0","0"
"080918","12:39:37","24223154","practice","1","prime_negative_practice","19","0","0","0","1144","0","0"
"080918","12:39:37","24223154","practice","1","intention_check_practice","20","0","0","1","69","0","0"
"080918","12:39:37","24223154","practice","1","prime_positive_practice","21","0","0","1","759","0","0"
"080918","12:39:37","24223154","practice","1","intention_check_practice","22","0","0","1","83","0","0"
"080918","12:39:37","24223154","test","2","prime_negative","2","12","5","0","1892","0","0"
"080918","12:39:37","24223154","test","2","intention_check","3","12","5","1","142","0","0"
"080918","12:39:37","24223154","test","2","prime_positive","4","1","22","1","936","100","0"
"080918","12:39:37","24223154","test","2","intention_check","5","1","22","1","29","100","0"
"080918","12:39:37","24223154","test","2","prime_positive","6","10","10","1","959","100","0"
"080918","12:39:37","24223154","test","2","intention_check","7","10","10","0","2500","100","0"
"080918","12:39:37","24223154","test","2","prime_negative","8","8","40","0","1315","100","0"
"080918","12:39:37","24223154","test","2","intention_check","9","8","40","1","2449","100","0"
"080918","12:39:37","24223154","test","2","prime_negative","10","11","9","1","1259","100","33"
"080918","12:39:37","24223154","test","2","intention_check","11","11","9","0","2500","100","33"
"080918","12:39:37","24223154","test","2","prime_positive","12","5","38","1","854","100","33"
"080918","12:39:37","24223154","test","2","intention_check","13","5","38","1","54","100","33"
"080918","12:39:37","24223154","test","2","prime_positive","14","2","13","1","741","100","33"
"080918","12:39:37","24223154","test","2","intention_check","15","2","13","1","42","100","33"
"080918","12:39:37","24223154","test","2","prime_negative","16","1","57","0","1162","100","25"
"080918","12:39:37","24223154","test","2","intention_check","17","1","57","0","2500","100","25"
"080918","12:39:37","24223154","test","2","prime_positive","18","9","28","1","587","100","25"
"080918","12:39:37","24223154","test","2","intention_check","19","9","28","1","1053","100","25"
"080918","12:39:37","24223154","test","2","prime_positive","20","8","65","0","1110","83","25"
"080918","12:39:37","24223154","test","2","intention_check","21","8","65","0","2500","83","25"
"080918","12:39:37","24223154","test","2","prime_negative","22","6","18","0","1022","83","20"
"080918","12:39:37","24223154","test","2","intention_check","23","6","18","0","2500","83","20"
"080918","12:39:37","24223154","test","2","prime_negative","24","9","11","1","723","83","33"
"080918","12:39:37","24223154","test","2","intention_check","25","9","11","1","2425","83","33"
"080918","12:39:37","24223154","test","2","prime_positive","26","12","12","1","714","85","33"
"080918","12:39:37","24223154","test","2","intention_check","27","12","12","0","2500","85","33"
"080918","12:39:37","24223154","test","2","prime_negative","28","2","53","0","1293","85","28"
"080918","12:39:37","24223154","test","2","intention_check","29","2","53","1","28","85","28"
"080918","12:39:37","24223154","test","2","prime_negative","30","11","30","1","1209","85","37"
"080918","12:39:37","24223154","test","2","intention_check","31","11","30","0","2500","85","37"
"080918","12:39:37","24223154","test","2","prime_negative","32","3","54","0","1049","85","33"
"080918","12:39:37","24223154","test","2","intention_check","33","3","54","1","1978","85","33"
"080918","12:39:37","24223154","test","2","prime_positive","34","8","71","0","1115","75","33"
"080918","12:39:37","24223154","test","2","intention_check","35","8","71","0","2500","75","33"
"080918","12:39:37","24223154","test","2","prime_negative","36","10","69","1","1647","75","40"
"080918","12:39:37","24223154","test","2","intention_check","37","10","69","0","2500","75","40"
"080918","12:39:37","24223154","test","2","prime_positive","38","9","42","1","659","77","40"
"080918","12:39:37","24223154","test","2","intention_check","39","9","42","0","2500","77","40"
"080918","12:39:37","24223154","test","2","prime_negative","40","9","64","1","1659","77","45"
"080918","12:39:37","24223154","test","2","intention_check","41","9","64","0","2500","77","45"
"080918","12:39:37","24223154","test","2","prime_negative","42","5","6","1","896","77","50"
"080918","12:39:37","24223154","test","2","intention_check","43","5","6","0","2500","77","50"
"080918","12:39:37","24223154","test","2","prime_positive","44","7","33","1","733","80","50"
"080918","12:39:37","24223154","test","2","intention_check","45","7","33","0","2500","80","50"
"080918","12:39:37","24223154","test","2","prime_positive","46","3","66","1","856","81","50"
"080918","12:39:37","24223154","test","2","intention_check","47","3","66","1","10","81","50"
"080918","12:39:37","24223154","test","2","prime_negative","48","7","8","1","1017","81","53"
"080918","12:39:37","24223154","test","2","intention_check","49","7","8","0","2500","81","53"
"080918","12:39:37","24223154","test","2","prime_negative","50","4","50","1","1098","81","57"
"080918","12:39:37","24223154","test","2","intention_check","51","4","50","0","2500","81","57"
"080918","12:39:37","24223154","test","2","prime_negative","52","12","68","1","944","81","60"
"080918","12:39:37","24223154","test","2","intention_check","53","12","68","0","2500","81","60"
"080918","12:39:37","24223154","test","2","prime_negative","54","8","63","1","1308","81","62"
"080918","12:39:37","24223154","test","2","intention_check","55","8","63","0","2500","81","62"
"080918","12:39:37","24223154","test","2","prime_negative","56","6","52","1","1371","81","64"
"080918","12:39:37","24223154","test","2","intention_check","57","6","52","0","2500","81","64"
"080918","12:39:37","24223154","test","2","prime_negative","58","2","23","0","991","81","61"
"080918","12:39:37","24223154","test","2","intention_check","59","2","23","0","2500","81","61"
"080918","12:39:37","24223154","test","2","prime_negative","60","1","48","1","845","81","63"
"080918","12:39:37","24223154","test","2","intention_check","61","1","48","0","2500","81","63"
"080918","12:39:37","24223154","test","2","prime_negative","62","4","49","1","856","81","65"
"080918","12:39:37","24223154","test","2","intention_check","63","4","49","0","2500","81","65"
"080918","12:39:37","24223154","test","2","prime_positive","64","10","72","0","972","75","65"
"080918","12:39:37","24223154","test","2","intention_check","65","10","72","0","2500","75","65"
"080918","12:39:37","24223154","test","2","prime_negative","66","1","17","1","1480","75","66"
"080918","12:39:37","24223154","test","2","intention_check","67","1","17","0","2500","75","66"
"080918","12:39:37","24223154","test","2","prime_negative","68","7","7","1","661","75","68"
"080918","12:39:37","24223154","test","2","intention_check","69","7","7","0","2500","75","68"
"080918","12:39:37","24223154","test","2","prime_positive","70","12","47","1","939","76","68"
"080918","12:39:37","24223154","test","2","intention_check","71","12","47","0","2500","76","68"
"080918","12:39:37","24223154","test","2","prime_positive","72","5","44","1","738","78","68"
"080918","12:39:37","24223154","test","2","intention_check","73","5","44","0","2500","78","68"
"080918","12:39:37","24223154","test","2","prime_negative","74","11","56","1","665","78","69"
"080918","12:39:37","24223154","test","2","intention_check","75","11","56","0","2500","78","69"
"080918","12:39:37","24223154","test","2","prime_positive","76","1","45","1","589","80","69"
"080918","12:39:37","24223154","test","2","intention_check","77","1","45","0","2500","80","69"
"080918","12:39:37","24223154","test","2","prime_positive","78","6","67","0","809","75","69"
"080918","12:39:37","24223154","test","2","intention_check","79","6","67","0","2500","75","69"
"080918","12:39:37","24223154","test","2","prime_positive","80","4","20","1","580","76","69"
"080918","12:39:37","24223154","test","2","intention_check","81","4","20","0","2500","76","69"
"080918","12:39:37","24223154","test","2","prime_negative","82","10","51","1","673","76","70"
"080918","12:39:37","24223154","test","2","intention_check","83","10","51","0","2500","76","70"
"080918","12:39:37","24223154","test","2","prime_positive","84","2","37","1","580","77","70"
"080918","12:39:37","24223154","test","2","intention_check","85","2","37","0","2500","77","70"
"080918","12:39:37","24223154","test","2","prime_positive","86","11","61","1","527","78","70"
"080918","12:39:37","24223154","test","2","intention_check","87","11","61","0","2500","78","70"
"080918","12:39:37","24223154","test","2","prime_positive","88","2","24","1","506","80","70"
"080918","12:39:37","24223154","test","2","intention_check","89","2","24","0","2500","80","70"
"080918","12:39:37","24223154","test","2","prime_positive","90","7","19","1","497","80","70"
"080918","12:39:37","24223154","test","2","intention_check","91","7","19","0","2500","80","70"
"080918","12:39:37","24223154","test","2","prime_positive","92","12","46","1","515","81","70"
"080918","12:39:37","24223154","test","2","intention_check","93","12","46","0","2500","81","70"
"080918","12:39:37","24223154","test","2","prime_negative","94","6","2","1","880","81","72"
"080918","12:39:37","24223154","test","2","intention_check","95","6","2","0","2500","81","72"
"080918","12:39:37","24223154","test","2","prime_negative","96","2","41","1","684","81","73"
"080918","12:39:37","24223154","test","2","intention_check","97","2","41","0","2500","81","73"
"080918","12:39:37","24223154","test","2","prime_positive","98","3","36","1","499","82","73"
"080918","12:39:37","24223154","test","2","intention_check","99","3","36","0","2500","82","73"
"080918","12:39:37","24223154","test","2","prime_positive","100","9","4","0","1645","79","73"
"080918","12:39:37","24223154","test","2","intention_check","101","9","4","0","2500","79","73"
"080918","12:39:37","24223154","test","2","prime_positive","102","4","62","1","656","80","73"
"080918","12:39:37","24223154","test","2","intention_check","103","4","62","0","2500","80","73"
"080918","12:39:37","24223154","test","2","prime_positive","104","1","58","1","996","80","73"
"080918","12:39:37","24223154","test","2","intention_check","105","1","58","0","2500","80","73"
"080918","12:39:37","24223154","test","2","prime_negative","106","8","55","0","677","80","70"
"080918","12:39:37","24223154","test","2","intention_check","107","8","55","0","2500","80","70"
"080918","12:39:37","24223154","test","2","prime_positive","108","10","21","1","466","81","70"
"080918","12:39:37","24223154","test","2","intention_check","109","10","21","0","2500","81","70"
"080918","12:39:37","24223154","test","2","prime_negative","110","12","39","1","682","81","71"
"080918","12:39:37","24223154","test","2","intention_check","111","12","39","0","2500","81","71"
"080918","12:39:37","24223154","test","2","prime_negative","112","9","35","1","700","81","72"
"080918","12:39:37","24223154","test","2","intention_check","113","9","35","0","2500","81","72"
"080918","12:39:37","24223154","test","2","prime_negative","114","5","3","0","824","81","70"
"080918","12:39:37","24223154","test","2","intention_check","115","5","3","1","426","81","70"
"080918","12:39:37","24223154","test","2","prime_positive","116","6","70","1","707","82","70"
"080918","12:39:37","24223154","test","2","intention_check","117","6","70","0","2500","82","70"
"080918","12:39:37","24223154","test","2","prime_positive","118","5","34","1","539","82","70"
"080918","12:39:37","24223154","test","2","intention_check","119","5","34","0","2500","82","70"
"080918","12:39:37","24223154","test","2","prime_positive","120","8","29","1","519","83","70"
"080918","12:39:37","24223154","test","2","intention_check","121","8","29","0","2500","83","70"
"080918","12:39:37","24223154","test","2","prime_positive","122","11","60","1","614","83","70"
"080918","12:39:37","24223154","test","2","intention_check","123","11","60","0","2500","83","70"
"080918","12:39:37","24223154","test","2","prime_positive","124","10","16","1","693","84","70"
"080918","12:39:37","24223154","test","2","intention_check","125","10","16","0","2500","84","70"
"080918","12:39:37","24223154","test","2","prime_positive","126","8","31","1","500","84","70"
"080918","12:39:37","24223154","test","2","intention_check","127","8","31","0","2500","84","70"
"080918","12:39:37","24223154","test","2","prime_positive","128","1","37","1","631","85","70"
"080918","12:39:37","24223154","test","2","intention_check","129","1","37","0","2500","85","70"
"080918","12:39:37","24223154","test","2","prime_negative","130","3","4","1","1396","85","70"
"080918","12:39:37","24223154","test","2","intention_check","131","3","4","0","2500","85","70"
"080918","12:39:37","24223154","test","2","prime_negative","132","12","15","1","393","85","71"
"080918","12:39:37","24223154","test","2","intention_check","133","12","15","0","2500","85","71"
"080918","12:39:37","24223154","test","2","prime_negative","134","3","64","0","769","85","69"
"080918","12:39:37","24223154","test","2","intention_check","135","3","64","0","2500","85","69"
"080918","12:39:37","24223154","test","2","prime_positive","136","6","62","1","414","85","69"
"080918","12:39:37","24223154","test","2","intention_check","137","6","62","0","2500","85","69"
"080918","12:39:37","24223154","test","2","prime_negative","138","8","54","1","695","85","70"
"080918","12:39:37","24223154","test","2","intention_check","139","8","54","0","2500","85","70"
"080918","12:39:37","24223154","test","2","prime_negative","140","1","17","1","968","85","71"
"080918","12:39:37","24223154","test","2","intention_check","141","1","17","0","2500","85","71"
"080918","12:39:37","24223154","test","2","prime_negative","142","4","50","1","470","85","72"
"080918","12:39:37","24223154","test","2","intention_check","143","4","50","0","2500","85","72"
"080918","12:39:37","24223154","test","2","prime_positive","144","4","68","1","626","86","72"
"080918","12:39:37","24223154","test","2","intention_check","145","4","68","0","2500","86","72"
"080918","12:39:42","833954947","practice","1","prime_negative_practice","3","0","0","0","1216","0","0"
"080918","12:39:42","833954947","practice","1","intention_check_practice","4","0","0","0","2500","0","0"
"080918","12:39:42","833954947","practice","1","prime_negative_practice","5","0","0","0","2106","0","0"
"080918","12:39:42","833954947","practice","1","intention_check_practice","6","0","0","1","699","0","0"
"080918","12:39:42","833954947","practice","1","prime_positive_practice","7","0","0","1","1987","0","0"
"080918","12:39:42","833954947","practice","1","intention_check_practice","8","0","0","0","2500","0","0"
"080918","12:39:42","833954947","practice","1","prime_positive_practice","9","0","0","0","2919","0","0"
"080918","12:39:42","833954947","practice","1","intention_check_practice","10","0","0","0","2500","0","0"
"080918","12:39:42","833954947","practice","1","prime_positive_practice","11","0","0","0","1436","0","0"
"080918","12:39:42","833954947","practice","1","intention_check_practice","12","0","0","0","2500","0","0"
"080918","12:39:42","833954947","practice","1","prime_negative_practice","13","0","0","1","1814","0","0"
"080918","12:39:42","833954947","practice","1","intention_check_practice","14","0","0","0","2500","0","0"
"080918","12:39:42","833954947","practice","1","prime_negative_practice","15","0","0","1","1646","0","0"
"080918","12:39:42","833954947","practice","1","intention_check_practice","16","0","0","0","2500","0","0"
"080918","12:39:42","833954947","practice","1","prime_positive_practice","17","0","0","1","932","0","0"
"080918","12:39:42","833954947","practice","1","intention_check_practice","18","0","0","1","1114","0","0"
"080918","12:39:42","833954947","practice","1","prime_positive_practice","19","0","0","1","804","0","0"
"080918","12:39:42","833954947","practice","1","intention_check_practice","20","0","0","1","854","0","0"
"080918","12:39:42","833954947","practice","1","prime_negative_practice","21","0","0","1","863","0","0"
"080918","12:39:42","833954947","practice","1","intention_check_practice","22","0","0","0","2500","0","0"
"080918","12:39:42","833954947","test","2","prime_positive","2","5","60","1","1697","100","0"
"080918","12:39:42","833954947","test","2","intention_check","3","5","60","1","1585","100","0"
"080918","12:39:42","833954947","test","2","prime_positive","4","11","4","0","1315","50","0"
"080918","12:39:42","833954947","test","2","intention_check","5","11","4","0","2500","50","0"
"080918","12:39:42","833954947","test","2","prime_negative","6","8","69","0","1693","50","0"
"080918","12:39:42","833954947","test","2","intention_check","7","8","69","1","782","50","0"
"080918","12:39:42","833954947","test","2","prime_negative","8","12","67","0","1327","50","0"
"080918","12:39:42","833954947","test","2","intention_check","9","12","67","1","662","50","0"
"080918","12:39:42","833954947","test","2","prime_positive","10","3","63","1","996","66","0"
"080918","12:39:42","833954947","test","2","intention_check","11","3","63","1","799","66","0"
"080918","12:39:42","833954947","test","2","prime_negative","12","11","55","0","1981","66","0"
"080918","12:39:42","833954947","test","2","intention_check","13","11","55","1","611","66","0"
"080918","12:39:42","833954947","test","2","prime_negative","14","9","41","0","972","66","0"
"080918","12:39:42","833954947","test","2","intention_check","15","9","41","1","552","66","0"
"080918","12:39:42","833954947","test","2","prime_positive","16","10","32","1","778","75","0"
"080918","12:39:42","833954947","test","2","intention_check","17","10","32","0","2500","75","0"
"080918","12:39:42","833954947","test","2","prime_negative","18","10","27","1","1249","75","20"
"080918","12:39:42","833954947","test","2","intention_check","19","10","27","0","2500","75","20"
"080918","12:39:42","833954947","test","2","prime_negative","20","4","10","0","1844","75","16"
"080918","12:39:42","833954947","test","2","intention_check","21","4","10","1","903","75","16"
"080918","12:39:42","833954947","test","2","prime_positive","22","1","43","0","1606","60","16"
"080918","12:39:42","833954947","test","2","intention_check","23","1","43","0","2500","60","16"
"080918","12:39:42","833954947","test","2","prime_positive","24","9","53","0","1303","50","16"
"080918","12:39:42","833954947","test","2","intention_check","25","9","53","0","2500","50","16"
"080918","12:39:42","833954947","test","2","prime_positive","26","2","21","1","871","57","16"
"080918","12:39:42","833954947","test","2","intention_check","27","2","21","1","639","57","16"
"080918","12:39:42","833954947","test","2","prime_negative","28","6","68","1","936","57","28"
"080918","12:39:42","833954947","test","2","intention_check","29","6","68","0","2500","57","28"
"080918","12:39:42","833954947","test","2","prime_negative","30","9","33","1","982","57","37"
"080918","12:39:42","833954947","test","2","intention_check","31","9","33","0","2500","57","37"
"080918","12:39:42","833954947","test","2","prime_negative","32","4","28","1","1759","57","44"
"080918","12:39:42","833954947","test","2","intention_check","33","4","28","0","2500","57","44"
"080918","12:39:42","833954947","test","2","prime_negative","34","10","51","1","1147","57","50"
"080918","12:39:42","833954947","test","2","intention_check","35","10","51","0","2500","57","50"
"080918","12:39:42","833954947","test","2","prime_negative","36","11","35","1","1108","57","54"
"080918","12:39:42","833954947","test","2","intention_check","37","11","35","0","2500","57","54"
"080918","12:39:42","833954947","test","2","prime_positive","38","10","47","1","1307","62","54"
"080918","12:39:42","833954947","test","2","intention_check","39","10","47","0","2500","62","54"
"080918","12:39:42","833954947","test","2","prime_negative","40","8","6","1","1013","62","58"
"080918","12:39:42","833954947","test","2","intention_check","41","8","6","0","2500","62","58"
"080918","12:39:42","833954947","test","2","prime_positive","42","7","9","1","732","66","58"
"080918","12:39:42","833954947","test","2","intention_check","43","7","9","1","584","66","58"
"080918","12:39:42","833954947","test","2","prime_negative","44","7","66","1","874","66","61"
"080918","12:39:42","833954947","test","2","intention_check","45","7","66","0","2500","66","61"
"080918","12:39:42","833954947","test","2","prime_positive","46","9","26","0","1722","60","61"
"080918","12:39:42","833954947","test","2","intention_check","47","9","26","0","2500","60","61"
"080918","12:39:42","833954947","test","2","prime_positive","48","2","16","1","1314","63","61"
"080918","12:39:42","833954947","test","2","intention_check","49","2","16","1","641","63","61"
"080918","12:39:42","833954947","test","2","prime_positive","50","4","39","1","786","66","61"
"080918","12:39:42","833954947","test","2","intention_check","51","4","39","0","2500","66","61"
"080918","12:39:42","833954947","test","2","prime_negative","52","3","14","0","1025","66","57"
"080918","12:39:42","833954947","test","2","intention_check","53","3","14","1","571","66","57"
"080918","12:39:42","833954947","test","2","prime_negative","54","1","40","1","956","66","60"
"080918","12:39:42","833954947","test","2","intention_check","55","1","40","0","2500","66","60"
"080918","12:39:42","833954947","test","2","prime_negative","56","12","50","0","962","66","56"
"080918","12:39:42","833954947","test","2","intention_check","57","12","50","0","2500","66","56"
"080918","12:39:42","833954947","test","2","prime_negative","58","6","42","0","1202","66","52"
"080918","12:39:42","833954947","test","2","intention_check","59","6","42","0","2500","66","52"
"080918","12:39:42","833954947","test","2","prime_positive","60","5","54","1","710","69","52"
"080918","12:39:42","833954947","test","2","intention_check","61","5","54","1","756","69","52"
"080918","12:39:42","833954947","test","2","prime_positive","62","12","11","1","3430","71","52"
"080918","12:39:42","833954947","test","2","intention_check","63","12","11","1","620","71","52"
"080918","12:39:42","833954947","test","2","prime_negative","64","5","59","0","1634","71","50"
"080918","12:39:42","833954947","test","2","intention_check","65","5","59","1","701","71","50"
"080918","12:39:42","833954947","test","2","prime_positive","66","11","24","1","678","73","50"
"080918","12:39:42","833954947","test","2","intention_check","67","11","24","1","534","73","50"
"080918","12:39:42","833954947","test","2","prime_negative","68","2","57","1","1444","73","52"
"080918","12:39:42","833954947","test","2","intention_check","69","2","57","0","2500","73","52"
"080918","12:39:42","833954947","test","2","prime_negative","70","5","46","1","835","73","55"
"080918","12:39:42","833954947","test","2","intention_check","71","5","46","0","2500","73","55"
"080918","12:39:42","833954947","test","2","prime_negative","72","10","72","1","751","73","57"
"080918","12:39:42","833954947","test","2","intention_check","73","10","72","0","2500","73","57"
"080918","12:39:42","833954947","test","2","prime_positive","74","1","13","1","763","75","57"
"080918","12:39:42","833954947","test","2","intention_check","75","1","13","0","2500","75","57"
"080918","12:39:42","833954947","test","2","prime_negative","76","7","64","0","863","75","54"
"080918","12:39:42","833954947","test","2","intention_check","77","7","64","1","526","75","54"
"080918","12:39:42","833954947","test","2","prime_negative","78","9","3","1","2960","75","56"
"080918","12:39:42","833954947","test","2","intention_check","79","9","3","0","2500","75","56"
"080918","12:39:42","833954947","test","2","prime_negative","80","1","30","1","727","75","58"
"080918","12:39:42","833954947","test","2","intention_check","81","1","30","0","2500","75","58"
"080918","12:39:42","833954947","test","2","prime_positive","82","6","49","1","685","76","58"
"080918","12:39:42","833954947","test","2","intention_check","83","6","49","1","508","76","58"
"080918","12:39:42","833954947","test","2","prime_negative","84","2","29","1","574","76","60"
"080918","12:39:42","833954947","test","2","intention_check","85","2","29","0","2500","76","60"
"080918","12:39:42","833954947","test","2","prime_positive","86","8","15","0","1310","72","60"
"080918","12:39:42","833954947","test","2","intention_check","87","8","15","0","2500","72","60"
"080918","12:39:42","833954947","test","2","prime_negative","88","11","22","1","775","72","61"
"080918","12:39:42","833954947","test","2","intention_check","89","11","22","0","2500","72","61"
"080918","12:39:42","833954947","test","2","prime_positive","90","3","61","1","592","73","61"
"080918","12:39:42","833954947","test","2","intention_check","91","3","61","1","603","73","61"
"080918","12:39:42","833954947","test","2","prime_negative","92","12","37","1","795","73","62"
"080918","12:39:42","833954947","test","2","intention_check","93","12","37","0","2500","73","62"
"080918","12:39:42","833954947","test","2","prime_positive","94","3","2","1","1225","75","62"
"080918","12:39:42","833954947","test","2","intention_check","95","3","2","0","2500","75","62"
"080918","12:39:42","833954947","test","2","prime_positive","96","7","44","0","877","71","62"
"080918","12:39:42","833954947","test","2","intention_check","97","7","44","0","2500","71","62"
"080918","12:39:42","833954947","test","2","prime_positive","98","9","62","0","917","68","62"
"080918","12:39:42","833954947","test","2","intention_check","99","9","62","0","2500","68","62"
"080918","12:39:42","833954947","test","2","prime_negative","100","4","8","1","850","68","64"
"080918","12:39:42","833954947","test","2","intention_check","101","4","8","0","2500","68","64"
"080918","12:39:42","833954947","test","2","prime_negative","102","3","1","1","803","68","65"
"080918","12:39:42","833954947","test","2","intention_check","103","3","1","0","2500","68","65"
"080918","12:39:42","833954947","test","2","prime_positive","104","11","5","0","1615","65","65"
"080918","12:39:42","833954947","test","2","intention_check","105","11","5","0","2500","65","65"
"080918","12:39:42","833954947","test","2","prime_positive","106","10","71","1","1339","66","65"
"080918","12:39:42","833954947","test","2","intention_check","107","10","71","1","1082","66","65"
"080918","12:39:42","833954947","test","2","prime_negative","108","6","20","0","1115","66","63"
"080918","12:39:42","833954947","test","2","intention_check","109","6","20","1","1050","66","63"
"080918","12:39:42","833954947","test","2","prime_negative","110","8","7","1","843","66","64"
"080918","12:39:42","833954947","test","2","intention_check","111","8","7","0","2500","66","64"
"080918","12:39:42","833954947","test","2","prime_positive","112","6","70","1","733","68","64"
"080918","12:39:42","833954947","test","2","intention_check","113","6","70","1","730","68","64"
"080918","12:39:42","833954947","test","2","prime_positive","114","2","52","1","683","69","64"
"080918","12:39:42","833954947","test","2","intention_check","115","2","52","1","538","69","64"
"080918","12:39:42","833954947","test","2","prime_positive","116","5","18","1","1100","70","64"
"080918","12:39:42","833954947","test","2","intention_check","117","5","18","1","507","70","64"
"080918","12:39:42","833954947","test","2","prime_positive","118","8","34","0","1369","67","64"
"080918","12:39:42","833954947","test","2","intention_check","119","8","34","0","2500","67","64"
"080918","12:39:42","833954947","test","2","prime_positive","120","1","12","0","1247","65","64"
"080918","12:39:42","833954947","test","2","intention_check","121","1","12","0","2500","65","64"
"080918","12:39:42","833954947","test","2","prime_positive","122","4","36","1","753","66","64"
"080918","12:39:42","833954947","test","2","intention_check","123","4","36","0","2500","66","64"
"080918","12:39:42","833954947","test","2","prime_positive","124","12","19","0","897","64","64"
"080918","12:39:42","833954947","test","2","intention_check","125","12","19","0","2500","64","64"
"080918","12:39:42","833954947","test","2","prime_negative","126","12","54","1","801","64","65"
"080918","12:39:42","833954947","test","2","intention_check","127","12","54","0","2500","64","65"
"080918","12:39:42","833954947","test","2","prime_positive","128","12","1","0","2898","62","65"
"080918","12:39:42","833954947","test","2","intention_check","129","12","1","0","2500","62","65"
"080918","12:39:42","833954947","test","2","prime_positive","130","3","50","1","849","63","65"
"080918","12:39:42","833954947","test","2","intention_check","131","3","50","0","2500","63","65"
"080918","12:39:42","833954947","test","2","prime_positive","132","2","5","1","1605","64","65"
"080918","12:39:42","833954947","test","2","intention_check","133","2","5","0","2500","64","65"
"080918","12:39:42","833954947","test","2","prime_positive","134","7","67","0","959","62","65"
"080918","12:39:42","833954947","test","2","intention_check","135","7","67","0","2500","62","65"
"080918","12:39:42","833954947","test","2","prime_negative","136","7","39","1","684","62","66"
"080918","12:39:42","833954947","test","2","intention_check","137","7","39","0","2500","62","66"
"080918","12:39:42","833954947","test","2","prime_positive","138","1","40","0","853","61","66"
"080918","12:39:42","833954947","test","2","intention_check","139","1","40","0","2500","61","66"
"080918","12:39:42","833954947","test","2","prime_negative","140","6","8","0","1105","61","64"
"080918","12:39:42","833954947","test","2","intention_check","141","6","8","0","2500","61","64"
"080918","12:39:42","833954947","test","2","prime_negative","142","9","17","1","688","61","65"
"080918","12:39:42","833954947","test","2","intention_check","143","9","17","0","2500","61","65"
"080918","12:39:42","833954947","test","2","prime_negative","144","1","34","0","1094","61","63"
"080918","12:39:42","833954947","test","2","intention_check","145","1","34","0","2500","61","63"
"080918","12:40:22","359728694","practice","1","prime_negative_practice","3","0","0","1","1032","0","0"
"080918","12:40:22","359728694","practice","1","intention_check_practice","4","0","0","0","2500","0","0"
"080918","12:40:22","359728694","practice","1","prime_positive_practice","5","0","0","1","3487","0","0"
"080918","12:40:22","359728694","practice","1","intention_check_practice","6","0","0","0","2500","0","0"
"080918","12:40:22","359728694","practice","1","prime_negative_practice","7","0","0","0","997","0","0"
"080918","12:40:22","359728694","practice","1","intention_check_practice","8","0","0","0","2500","0","0"
"080918","12:40:22","359728694","practice","1","prime_positive_practice","9","0","0","1","1254","0","0"
"080918","12:40:22","359728694","practice","1","intention_check_practice","10","0","0","0","2500","0","0"
"080918","12:40:22","359728694","practice","1","prime_negative_practice","11","0","0","1","989","0","0"
"080918","12:40:22","359728694","practice","1","intention_check_practice","12","0","0","0","2500","0","0"
"080918","12:40:22","359728694","practice","1","prime_positive_practice","13","0","0","1","895","0","0"
"080918","12:40:22","359728694","practice","1","intention_check_practice","14","0","0","0","2500","0","0"
"080918","12:40:22","359728694","practice","1","prime_positive_practice","15","0","0","1","756","0","0"
"080918","12:40:22","359728694","practice","1","intention_check_practice","16","0","0","0","2500","0","0"
"080918","12:40:22","359728694","practice","1","prime_positive_practice","17","0","0","0","679","0","0"
"080918","12:40:22","359728694","practice","1","intention_check_practice","18","0","0","0","2500","0","0"
"080918","12:40:22","359728694","practice","1","prime_negative_practice","19","0","0","1","765","0","0"
"080918","12:40:22","359728694","practice","1","intention_check_practice","20","0","0","0","2500","0","0"
"080918","12:40:22","359728694","practice","1","prime_negative_practice","21","0","0","0","1080","0","0"
"080918","12:40:22","359728694","practice","1","intention_check_practice","22","0","0","1","1740","0","0"
"080918","12:40:22","359728694","test","2","prime_negative","2","8","61","0","981","0","0"
"080918","12:40:22","359728694","test","2","intention_check","3","8","61","0","2500","0","0"
"080918","12:40:22","359728694","test","2","prime_negative","4","5","60","1","727","0","50"
"080918","12:40:22","359728694","test","2","intention_check","5","5","60","0","2500","0","50"
"080918","12:40:22","359728694","test","2","prime_negative","6","10","67","1","1340","0","66"
"080918","12:40:22","359728694","test","2","intention_check","7","10","67","0","2500","0","66"
"080918","12:40:22","359728694","test","2","prime_positive","8","9","28","0","703","0","66"
"080918","12:40:22","359728694","test","2","intention_check","9","9","28","0","2500","0","66"
"080918","12:40:22","359728694","test","2","prime_positive","10","11","46","0","708","0","66"
"080918","12:40:22","359728694","test","2","intention_check","11","11","46","0","2500","0","66"
"080918","12:40:22","359728694","test","2","prime_positive","12","10","31","1","857","33","66"
"080918","12:40:22","359728694","test","2","intention_check","13","10","31","0","2500","33","66"
"080918","12:40:22","359728694","test","2","prime_positive","14","12","71","0","1320","25","66"
"080918","12:40:22","359728694","test","2","intention_check","15","12","71","0","2500","25","66"
"080918","12:40:22","359728694","test","2","prime_negative","16","7","42","0","763","25","50"
"080918","12:40:22","359728694","test","2","intention_check","17","7","42","0","2500","25","50"
"080918","12:40:22","359728694","test","2","prime_positive","18","1","69","0","654","20","50"
"080918","12:40:22","359728694","test","2","intention_check","19","1","69","0","2500","20","50"
"080918","12:40:22","359728694","test","2","prime_negative","20","9","34","0","973","20","40"
