"date","time","group","subject","build","blocknum","trialnum","blockcode","trialcode","pretrialpause","posttrialpause","windowcenter","trialduration","trialtimeout","blocktimeout","response","correct","latency","inwindow"
"080918","17:27:01","320555493","743970945","4.0.10.0","1","1","end_of_study_questions_ufirst","politics","0","0","0","0","0","0","somewhat democratic","1","5552","0"
"080918","17:27:01","320555493","743970945","4.0.10.0","1","2","end_of_study_questions_ufirst","awareness","0","0","0","0","0","0","all","1","8907","0"
"080918","17:27:01","320555493","743970945","4.0.10.0","1","3","end_of_study_questions_ufirst","demand","0","0","0","0","0","0","My responses were genuinely based on whether I was influenced or not","1","4547","0"
"080918","17:27:01","320555493","743970945","4.0.10.0","1","4","end_of_study_questions_ufirst","influence_general","0","0","0","0","0","0","most","1","9999","0"
"080918","17:27:01","320555493","743970945","4.0.10.0","1","5","end_of_study_questions_ufirst","unintentionality","0","0","0","0","0","0","about half","1","5514","0"
"080918","17:27:01","320555493","743970945","4.0.10.0","1","6","end_of_study_questions_ufirst","intentionality","0","0","0","0","0","0","all","1","4588","0"
"080918","17:27:01","320555493","743970945","4.0.10.0","1","7","end_of_study_questions_ufirst","self_exclusion_1","0","0","0","0","0","0","No, exclude my data (please specify why):","1","5046","0"
"080918","17:27:01","320555493","743970945","4.0.10.0","1","7","end_of_study_questions_ufirst","self_exclusion_1other","0","0","0","0","0","0","q","1","5046","0"
"080918","11:59:55","39586963","347524095","4.0.10.0","1","1","end_of_study_questions_ufirst","politics","0","0","0","0","0","0","somewhat democratic","1","7442","0"
"080918","11:59:55","39586963","347524095","4.0.10.0","1","2","end_of_study_questions_ufirst","awareness","0","0","0","0","0","0","all","1","22643","0"
"080918","11:59:55","39586963","347524095","4.0.10.0","1","3","end_of_study_questions_ufirst","demand","0","0","0","0","0","0","My responses were genuinely based on whether I was influenced or not","1","18209","0"
"080918","11:59:55","39586963","347524095","4.0.10.0","1","4","end_of_study_questions_ufirst","influence_general","0","0","0","0","0","0","less than half","1","9194","0"
"080918","11:59:55","39586963","347524095","4.0.10.0","1","5","end_of_study_questions_ufirst","unintentionality","0","0","0","0","0","0","a few","1","8900","0"
"080918","11:59:55","39586963","347524095","4.0.10.0","1","6","end_of_study_questions_ufirst","intentionality","0","0","0","0","0","0","none","1","15305","0"
"080918","11:59:55","39586963","347524095","4.0.10.0","1","7","end_of_study_questions_ufirst","self_exclusion_1","0","0","0","0","0","0","Yes, use my data","1","4063","0"
"080918","11:59:55","39586963","347524095","4.0.10.0","1","7","end_of_study_questions_ufirst","self_exclusion_1other","0","0","0","0","0","0","","1","4063","0"
"080918","09:25:12","288208","77268698","4.0.10.0","1","1","end_of_study_questions_ifirst","politics","0","0","0","0","0","0","a little democratic","1","6016","0"
"080918","09:25:12","288208","77268698","4.0.10.0","1","2","end_of_study_questions_ifirst","awareness","0","0","0","0","0","0","all","1","26167","0"
"080918","09:25:12","288208","77268698","4.0.10.0","1","3","end_of_study_questions_ifirst","demand","0","0","0","0","0","0","My responses were genuinely based on whether I was influenced or not","1","9382","0"
"080918","09:25:12","288208","77268698","4.0.10.0","1","4","end_of_study_questions_ifirst","influence_general","0","0","0","0","0","0","less than half","1","10844","0"
"080918","09:25:12","288208","77268698","4.0.10.0","1","5","end_of_study_questions_ifirst","intentionality","0","0","0","0","0","0","a few","1","6725","0"
"080918","09:25:12","288208","77268698","4.0.10.0","1","6","end_of_study_questions_ifirst","unintentionality","0","0","0","0","0","0","a few","1","6951","0"
"080918","09:25:12","288208","77268698","4.0.10.0","1","7","end_of_study_questions_ifirst","self_exclusion_1","0","0","0","0","0","0","Yes, use my data","1","8951","0"
"080918","09:25:12","288208","77268698","4.0.10.0","1","7","end_of_study_questions_ifirst","self_exclusion_1other","0","0","0","0","0","0","","1","8951","0"
"080918","12:36:00","173822310","408892577","4.0.10.0","1","1","end_of_study_questions_ufirst","politics","0","0","0","0","0","0","very democratic","1","4854","0"
"080918","12:36:00","173822310","408892577","4.0.10.0","1","2","end_of_study_questions_ufirst","awareness","0","0","0","0","0","0","all","1","8360","0"
"080918","12:36:00","173822310","408892577","4.0.10.0","1","3","end_of_study_questions_ufirst","demand","0","0","0","0","0","0","I'm not sure or don't know why I responded the way I did","1","6120","0"
"080918","12:36:00","173822310","408892577","4.0.10.0","1","4","end_of_study_questions_ufirst","influence_general","0","0","0","0","0","0","a few","1","6016","0"
"080918","12:36:00","173822310","408892577","4.0.10.0","1","5","end_of_study_questions_ufirst","unintentionality","0","0","0","0","0","0","a few","1","5159","0"
"080918","12:36:00","173822310","408892577","4.0.10.0","1","6","end_of_study_questions_ufirst","intentionality","0","0","0","0","0","0","a few","1","6916","0"
"080918","12:36:00","173822310","408892577","4.0.10.0","1","7","end_of_study_questions_ufirst","self_exclusion_1","0","0","0","0","0","0","Yes, use my data","1","3789","0"
"080918","12:36:00","173822310","408892577","4.0.10.0","1","7","end_of_study_questions_ufirst","self_exclusion_1other","0","0","0","0","0","0","","1","3789","0"
"080918","12:43:54","975290723","210361004","4.0.10.0","1","1","end_of_study_questions_ifirst","politics","0","0","0","0","0","0","very democratic","1","4089","0"
"080918","12:43:54","975290723","210361004","4.0.10.0","1","2","end_of_study_questions_ifirst","awareness","0","0","0","0","0","0","all","1","17116","0"
"080918","12:43:54","975290723","210361004","4.0.10.0","1","3","end_of_study_questions_ifirst","demand","0","0","0","0","0","0","My responses were genuinely based on whether I was influenced or not","1","12835","0"
"080918","12:43:54","975290723","210361004","4.0.10.0","1","4","end_of_study_questions_ifirst","influence_general","0","0","0","0","0","0","none","1","10945","0"
"080918","12:43:54","975290723","210361004","4.0.10.0","1","5","end_of_study_questions_ifirst","intentionality","0","0","0","0","0","0","none","1","6560","0"
"080918","12:43:54","975290723","210361004","4.0.10.0","1","6","end_of_study_questions_ifirst","unintentionality","0","0","0","0","0","0","none","1","7329","0"
"080918","12:43:54","975290723","210361004","4.0.10.0","1","7","end_of_study_questions_ifirst","self_exclusion_1","0","0","0","0","0","0","Yes, use my data","1","12352","0"
"080918","12:43:54","975290723","210361004","4.0.10.0","1","7","end_of_study_questions_ifirst","self_exclusion_1other","0","0","0","0","0","0","","1","12352","0"
"080918","12:46:24","789152872","24223154","4.0.10.0","1","1","end_of_study_questions_ifirst","politics","0","0","0","0","0","0","very democratic","1","4565","0"
"080918","12:46:24","789152872","24223154","4.0.10.0","1","2","end_of_study_questions_ifirst","awareness","0","0","0","0","0","0","all","1","16691","0"
"080918","12:46:24","789152872","24223154","4.0.10.0","1","3","end_of_study_questions_ifirst","demand","0","0","0","0","0","0","My responses were genuinely based on whether I was influenced or not","1","11858","0"
"080918","12:46:24","789152872","24223154","4.0.10.0","1","4","end_of_study_questions_ifirst","influence_general","0","0","0","0","0","0","less than half","1","4857","0"
"080918","12:46:24","789152872","24223154","4.0.10.0","1","5","end_of_study_questions_ifirst","intentionality","0","0","0","0","0","0","a few","1","7784","0"
"080918","12:46:24","789152872","24223154","4.0.10.0","1","6","end_of_study_questions_ifirst","unintentionality","0","0","0","0","0","0","a few","1","4371","0"
"080918","12:46:24","789152872","24223154","4.0.10.0","1","7","end_of_study_questions_ifirst","self_exclusion_1","0","0","0","0","0","0","Yes, use my data","1","5804","0"
"080918","12:46:24","789152872","24223154","4.0.10.0","1","7","end_of_study_questions_ifirst","self_exclusion_1other","0","0","0","0","0","0","","1","5804","0"
"080918","12:46:35","598884680","833954947","4.0.10.0","1","1","end_of_study_questions_ufirst","politics","0","0","0","0","0","0","very democratic","1","4316","0"
"080918","12:46:35","598884680","833954947","4.0.10.0","1","2","end_of_study_questions_ufirst","awareness","0","0","0","0","0","0","all","1","9311","0"
"080918","12:46:35","598884680","833954947","4.0.10.0","1","3","end_of_study_questions_ufirst","demand","0","0","0","0","0","0","My responses were genuinely based on whether I was influenced or not","1","8653","0"
"080918","12:46:35","598884680","833954947","4.0.10.0","1","4","end_of_study_questions_ufirst","influence_general","0","0","0","0","0","0","more than half","1","5142","0"
"080918","12:46:35","598884680","833954947","4.0.10.0","1","5","end_of_study_questions_ufirst","unintentionality","0","0","0","0","0","0","most","1","5647","0"
"080918","12:46:35","598884680","833954947","4.0.10.0","1","6","end_of_study_questions_ufirst","intentionality","0","0","0","0","0","0","about half","1","7120","0"
"080918","12:46:35","598884680","833954947","4.0.10.0","1","7","end_of_study_questions_ufirst","self_exclusion_1","0","0","0","0","0","0","Yes, use my data","1","9978","0"
"080918","12:46:35","598884680","833954947","4.0.10.0","1","7","end_of_study_questions_ufirst","self_exclusion_1other","0","0","0","0","0","0","","1","9978","0"
"080918","12:47:03","124658429","359728694","4.0.10.0","1","1","end_of_study_questions_ifirst","politics","0","0","0","0","0","0","very democratic","1","4764","0"
"080918","12:47:03","124658429","359728694","4.0.10.0","1","2","end_of_study_questions_ifirst","awareness","0","0","0","0","0","0","all","1","20795","0"
"080918","12:47:03","124658429","359728694","4.0.10.0","1","3","end_of_study_questions_ifirst","demand","0","0","0","0","0","0","My responses were genuinely based on whether I was influenced or not","1","16203","0"
"080918","12:47:03","124658429","359728694","4.0.10.0","1","4","end_of_study_questions_ifirst","influence_general","0","0","0","0","0","0","a few","1","6960","0"
"080918","12:47:03","124658429","359728694","4.0.10.0","1","5","end_of_study_questions_ifirst","intentionality","0","0","0","0","0","0","a few","1","13765","0"
"080918","12:47:03","124658429","359728694","4.0.10.0","1","6","end_of_study_questions_ifirst","unintentionality","0","0","0","0","0","0","a few","1","14283","0"
"080918","12:47:03","124658429","359728694","4.0.10.0","1","7","end_of_study_questions_ifirst","self_exclusion_1","0","0","0","0","0","0","Yes, use my data","1","10984","0"
"080918","12:47:03","124658429","359728694","4.0.10.0","1","7","end_of_study_questions_ifirst","self_exclusion_1other","0","0","0","0","0","0","","1","10984","0"
"080918","11:49:09","61413571","880653715","4.0.10.0","1","1","end_of_study_questions_ufirst","politics","0","0","0","0","0","0","a little democratic","1","3906","0"
"080918","11:49:09","61413571","880653715","4.0.10.0","1","2","end_of_study_questions_ufirst","awareness","0","0","0","0","0","0","all","1","26211","0"
"080918","11:49:09","61413571","880653715","4.0.10.0","1","3","end_of_study_questions_ufirst","demand","0","0","0","0","0","0","I'm not sure or don't know why I responded the way I did","1","12480","0"
"080918","11:49:09","61413571","880653715","4.0.10.0","1","4","end_of_study_questions_ufirst","influence_general","0","0","0","0","0","0","less than half","1","6824","0"
"080918","11:49:09","61413571","880653715","4.0.10.0","1","5","end_of_study_questions_ufirst","unintentionality","0","0","0","0","0","0","about half","1","10497","0"
"080918","11:49:09","61413571","880653715","4.0.10.0","1","6","end_of_study_questions_ufirst","intentionality","0","0","0","0","0","0","a few","1","5808","0"
"080918","11:49:09","61413571","880653715","4.0.10.0","1","7","end_of_study_questions_ufirst","self_exclusion_1","0","0","0","0","0","0","Yes, use my data","1","10256","0"
"080918","11:49:09","61413571","880653715","4.0.10.0","1","7","end_of_study_questions_ufirst","self_exclusion_1other","0","0","0","0","0","0","","1","10256","0"
"080918","12:55:47","763841809","418702875","4.0.10.0","1","1","end_of_study_questions_ufirst","politics","0","0","0","0","0","0","very democratic","1","10887","0"
"080918","12:55:47","763841809","418702875","4.0.10.0","1","2","end_of_study_questions_ufirst","awareness","0","0","0","0","0","0","all","1","21133","0"
"080918","12:55:47","763841809","418702875","4.0.10.0","1","3","end_of_study_questions_ufirst","demand","0","0","0","0","0","0","My responses were genuinely based on whether I was influenced or not","1","38581","0"
"080918","12:55:47","763841809","418702875","4.0.10.0","1","4","end_of_study_questions_ufirst","influence_general","0","0","0","0","0","0","none","1","10523","0"
"080918","12:55:47","763841809","418702875","4.0.10.0","1","5","end_of_study_questions_ufirst","unintentionality","0","0","0","0","0","0","a few","1","17293","0"
"080918","12:55:47","763841809","418702875","4.0.10.0","1","6","end_of_study_questions_ufirst","intentionality","0","0","0","0","0","0","none","1","10536","0"
"080918","12:55:47","763841809","418702875","4.0.10.0","1","7","end_of_study_questions_ufirst","self_exclusion_1","0","0","0","0","0","0","Yes, use my data","1","9074","0"
"080918","12:55:47","763841809","418702875","4.0.10.0","1","7","end_of_study_questions_ufirst","self_exclusion_1other","0","0","0","0","0","0","","1","9074","0"
"080918","11:58:50","741409424","376635527","4.0.10.0","1","1","end_of_study_questions_ufirst","politics","0","0","0","0","0","0","a little democratic","1","8572","0"
"080918","11:58:50","741409424","376635527","4.0.10.0","1","2","end_of_study_questions_ufirst","awareness","0","0","0","0","0","0","all","1","25606","0"
"080918","11:58:50","741409424","376635527","4.0.10.0","1","3","end_of_study_questions_ufirst","demand","0","0","0","0","0","0","My responses were genuinely based on whether I was influenced or not","1","8291","0"
"080918","11:58:50","741409424","376635527","4.0.10.0","1","4","end_of_study_questions_ufirst","influence_general","0","0","0","0","0","0","none","1","9468","0"
"080918","11:58:50","741409424","376635527","4.0.10.0","1","5","end_of_study_questions_ufirst","unintentionality","0","0","0","0","0","0","none","1","5030","0"
"080918","11:58:50","741409424","376635527","4.0.10.0","1","6","end_of_study_questions_ufirst","intentionality","0","0","0","0","0","0","none","1","5969","0"
"080918","11:58:50","741409424","376635527","4.0.10.0","1","7","end_of_study_questions_ufirst","self_exclusion_1","0","0","0","0","0","0","Yes, use my data","1","4055","0"
"080918","11:58:50","741409424","376635527","4.0.10.0","1","7","end_of_study_questions_ufirst","self_exclusion_1other","0","0","0","0","0","0","","1","4055","0"
"080918","10:00:58","44712698","675918708","4.0.10.0","1","1","end_of_study_questions_ifirst","politics","0","0","0","0","0","0","a little democratic","1","8736","0"
"080918","10:00:58","44712698","675918708","4.0.10.0","1","2","end_of_study_questions_ifirst","awareness","0","0","0","0","0","0","all","1","47014","0"
"080918","10:00:58","44712698","675918708","4.0.10.0","1","3","end_of_study_questions_ifirst","demand","0","0","0","0","0","0","My responses were genuinely based on whether I was influenced or not","1","15883","0"
"080918","10:00:58","44712698","675918708","4.0.10.0","1","4","end_of_study_questions_ifirst","influence_general","0","0","0","0","0","0","less than half","1","10379","0"
"080918","10:00:58","44712698","675918708","4.0.10.0","1","5","end_of_study_questions_ifirst","intentionality","0","0","0","0","0","0","a few","1","8718","0"
"080918","10:00:58","44712698","675918708","4.0.10.0","1","6","end_of_study_questions_ifirst","unintentionality","0","0","0","0","0","0","a few","1","8009","0"
"080918","10:00:58","44712698","675918708","4.0.10.0","1","7","end_of_study_questions_ifirst","self_exclusion_1","0","0","0","0","0","0","Yes, use my data","1","18729","0"
"080918","10:00:58","44712698","675918708","4.0.10.0","1","7","end_of_study_questions_ifirst","self_exclusion_1other","0","0","0","0","0","0","","1","18729","0"
"080918","13:02:38","783047680","956349113","4.0.10.0","1","1","end_of_study_questions_ufirst","politics","0","0","0","0","0","0","somewhat democratic","1","7761","0"
"080918","13:02:38","783047680","956349113","4.0.10.0","1","2","end_of_study_questions_ufirst","awareness","0","0","0","0","0","0","all","1","16277","0"
"080918","13:02:38","783047680","956349113","4.0.10.0","1","3","end_of_study_questions_ufirst","demand","0","0","0","0","0","0","My responses were genuinely based on whether I was influenced or not","1","12093","0"
"080918","13:02:38","783047680","956349113","4.0.10.0","1","4","end_of_study_questions_ufirst","influence_general","0","0","0","0","0","0","all","1","6206","0"
"080918","13:02:38","783047680","956349113","4.0.10.0","1","5","end_of_study_questions_ufirst","unintentionality","0","0","0","0","0","0","all","1","6549","0"
"080918","13:02:38","783047680","956349113","4.0.10.0","1","6","end_of_study_questions_ufirst","intentionality","0","0","0","0","0","0","most","1","7079","0"
"080918","13:02:38","783047680","956349113","4.0.10.0","1","7","end_of_study_questions_ufirst","self_exclusion_1","0","0","0","0","0","0","Yes, use my data","1","5235","0"
"080918","13:02:38","783047680","956349113","4.0.10.0","1","7","end_of_study_questions_ufirst","self_exclusion_1other","0","0","0","0","0","0","","1","5235","0"
"080918","12:03:40","822976059","73938476","4.0.10.0","1","1","end_of_study_questions_ifirst","politics","0","0","0","0","0","0","somewhat democratic","1","4748","0"
"080918","12:03:40","822976059","73938476","4.0.10.0","1","2","end_of_study_questions_ifirst","awareness","0","0","0","0","0","0","all","1","9578","0"
"080918","12:03:40","822976059","73938476","4.0.10.0","1","3","end_of_study_questions_ifirst","demand","0","0","0","0","0","0","My responses were genuinely based on whether I was influenced or not","1","5916","0"
"080918","12:03:40","822976059","73938476","4.0.10.0","1","4","end_of_study_questions_ifirst","influence_general","0","0","0","0","0","0","most","1","4465","0"
"080918","12:03:40","822976059","73938476","4.0.10.0","1","5","end_of_study_questions_ifirst","intentionality","0","0","0","0","0","0","about half","1","10998","0"
"080918","12:03:40","822976059","73938476","4.0.10.0","1","6","end_of_study_questions_ifirst","unintentionality","0","0","0","0","0","0","more than half","1","2795","0"
"080918","12:03:40","822976059","73938476","4.0.10.0","1","7","end_of_study_questions_ifirst","self_exclusion_1","0","0","0","0","0","0","No, exclude my data (please specify why):","1","37607","0"
"080918","12:03:40","822976059","73938476","4.0.10.0","1","7","end_of_study_questions_ifirst","self_exclusion_1other","0","0","0","0","0","0","I think I was too influenced by the pictures rather than the symbols","1","37607","0"
"080918","12:04:09","667910883","72372970","4.0.10.0","1","1","end_of_study_questions_ifirst","politics","0","0","0","0","0","0","very democratic","1","3931","0"
"080918","12:04:09","667910883","72372970","4.0.10.0","1","2","end_of_study_questions_ifirst","awareness","0","0","0","0","0","0","all","1","18871","0"
"080918","12:04:09","667910883","72372970","4.0.10.0","1","3","end_of_study_questions_ifirst","demand","0","0","0","0","0","0","My responses were genuinely based on whether I was influenced or not","1","17664","0"
"080918","12:04:09","667910883","72372970","4.0.10.0","1","4","end_of_study_questions_ifirst","influence_general","0","0","0","0","0","0","about half","1","7799","0"
"080918","12:04:09","667910883","72372970","4.0.10.0","1","5","end_of_study_questions_ifirst","intentionality","0","0","0","0","0","0","none","1","13506","0"
"080918","12:04:09","667910883","72372970","4.0.10.0","1","6","end_of_study_questions_ifirst","unintentionality","0","0","0","0","0","0","about half","1","5968","0"
"080918","12:04:09","667910883","72372970","4.0.10.0","1","7","end_of_study_questions_ifirst","self_exclusion_1","0","0","0","0","0","0","Yes, use my data","1","19128","0"
"080918","12:04:09","667910883","72372970","4.0.10.0","1","7","end_of_study_questions_ifirst","self_exclusion_1other","0","0","0","0","0","0","","1","19128","0"
"080918","13:05:23","60950759","37441758","4.0.10.0","1","1","end_of_study_questions_ifirst","politics","0","0","0","0","0","0","very democratic","1","4580","0"
"080918","13:05:23","60950759","37441758","4.0.10.0","1","2","end_of_study_questions_ifirst","awareness","0","0","0","0","0","0","all","1","7319","0"
"080918","13:05:23","60950759","37441758","4.0.10.0","1","3","end_of_study_questions_ifirst","demand","0","0","0","0","0","0","My responses were genuinely based on whether I was influenced or not","1","8494","0"
"080918","13:05:23","60950759","37441758","4.0.10.0","1","4","end_of_study_questions_ifirst","influence_general","0","0","0","0","0","0","all","1","6462","0"
"080918","13:05:23","60950759","37441758","4.0.10.0","1","5","end_of_study_questions_ifirst","intentionality","0","0","0","0","0","0","most","1","20230","0"
"080918","13:05:23","60950759","37441758","4.0.10.0","1","6","end_of_study_questions_ifirst","unintentionality","0","0","0","0","0","0","none","1","6384","0"
"080918","13:05:23","60950759","37441758","4.0.10.0","1","7","end_of_study_questions_ifirst","self_exclusion_1","0","0","0","0","0","0","Yes, use my data","1","14297","0"
"080918","13:05:23","60950759","37441758","4.0.10.0","1","7","end_of_study_questions_ifirst","self_exclusion_1other","0","0","0","0","0","0","","1","14297","0"
"080918","13:06:11","524045576","879040610","4.0.10.0","1","1","end_of_study_questions_ifirst","politics","0","0","0","0","0","0","very democratic","1","5704","0"
"080918","13:06:11","524045576","879040610","4.0.10.0","1","2","end_of_study_questions_ifirst","awareness","0","0","0","0","0","0","all","1","6730","0"
"080918","13:06:11","524045576","879040610","4.0.10.0","1","3","end_of_study_questions_ifirst","demand","0","0","0","0","0","0","My responses were genuinely based on whether I was influenced or not","1","6850","0"
"080918","13:06:11","524045576","879040610","4.0.10.0","1","4","end_of_study_questions_ifirst","influence_general","0","0","0","0","0","0","less than half","1","5532","0"
"080918","13:06:11","524045576","879040610","4.0.10.0","1","5","end_of_study_questions_ifirst","intentionality","0","0","0","0","0","0","more than half","1","8871","0"
"080918","13:06:11","524045576","879040610","4.0.10.0","1","6","end_of_study_questions_ifirst","unintentionality","0","0","0","0","0","0","less than half","1","6128","0"
"080918","13:06:11","524045576","879040610","4.0.10.0","1","7","end_of_study_questions_ifirst","self_exclusion_1","0","0","0","0","0","0","Yes, use my data","1","4300","0"
"080918","13:06:11","524045576","879040610","4.0.10.0","1","7","end_of_study_questions_ifirst","self_exclusion_1other","0","0","0","0","0","0","","1","4300","0"
"080918","12:10:30","767837566","414118202","4.0.10.0","1","1","end_of_study_questions_ifirst","politics","0","0","0","0","0","0","very democratic","1","5130","0"
"080918","12:10:30","767837566","414118202","4.0.10.0","1","2","end_of_study_questions_ifirst","awareness","0","0","0","0","0","0","all","1","32331","0"
"080918","12:10:30","767837566","414118202","4.0.10.0","1","3","end_of_study_questions_ifirst","demand","0","0","0","0","0","0","My responses were genuinely based on whether I was influenced or not","1","48848","0"
"080918","12:10:30","767837566","414118202","4.0.10.0","1","4","end_of_study_questions_ifirst","influence_general","0","0","0","0","0","0","about half","1","27637","0"
"080918","12:10:30","767837566","414118202","4.0.10.0","1","5","end_of_study_questions_ifirst","intentionality","0","0","0","0","0","0","a few","1","10530","0"
"080918","12:10:30","767837566","414118202","4.0.10.0","1","6","end_of_study_questions_ifirst","unintentionality","0","0","0","0","0","0","less than half","1","6791","0"
"080918","12:10:30","767837566","414118202","4.0.10.0","1","7","end_of_study_questions_ifirst","self_exclusion_1","0","0","0","0","0","0","Yes, use my data","1","21665","0"
"080918","12:10:30","767837566","414118202","4.0.10.0","1","7","end_of_study_questions_ifirst","self_exclusion_1other","0","0","0","0","0","0","","1","21665","0"
"080918","04:25:12","459639878","204470556","4.0.10.0","1","1","end_of_study_questions_ifirst","politics","0","0","0","0","0","0","somewhat democratic","1","7537","0"
"080918","04:25:12","459639878","204470556","4.0.10.0","1","2","end_of_study_questions_ifirst","awareness","0","0","0","0","0","0","all","1","24458","0"
"080918","04:25:12","459639878","204470556","4.0.10.0","1","3","end_of_study_questions_ifirst","demand","0","0","0","0","0","0","My responses were based on what I thought the researcher wanted me to say","1","25287","0"
"080918","04:25:12","459639878","204470556","4.0.10.0","1","4","end_of_study_questions_ifirst","influence_general","0","0","0","0","0","0","more than half","1","7961","0"
"080918","04:25:12","459639878","204470556","4.0.10.0","1","5","end_of_study_questions_ifirst","intentionality","0","0","0","0","0","0","all","1","10399","0"
"080918","04:25:12","459639878","204470556","4.0.10.0","1","6","end_of_study_questions_ifirst","unintentionality","0","0","0","0","0","0","all","1","8990","0"
"080918","04:25:12","459639878","204470556","4.0.10.0","1","7","end_of_study_questions_ifirst","self_exclusion_1","0","0","0","0","0","0","Yes, use my data","1","6040","0"
"080918","04:25:12","459639878","204470556","4.0.10.0","1","7","end_of_study_questions_ifirst","self_exclusion_1other","0","0","0","0","0","0","","1","6040","0"
"080918","13:14:37","726455798","612719567","4.0.10.0","1","1","end_of_study_questions_ufirst","politics","0","0","0","0","0","0","very democratic","1","10622","0"
"080918","13:14:37","726455798","612719567","4.0.10.0","1","2","end_of_study_questions_ufirst","awareness","0","0","0","0","0","0","all","1","15200","0"
"080918","13:14:37","726455798","612719567","4.0.10.0","1","3","end_of_study_questions_ufirst","demand","0","0","0","0","0","0","My responses were genuinely based on whether I was influenced or not","1","24443","0"
"080918","13:14:37","726455798","612719567","4.0.10.0","1","4","end_of_study_questions_ufirst","influence_general","0","0","0","0","0","0","all","1","5672","0"
"080918","13:14:37","726455798","612719567","4.0.10.0","1","5","end_of_study_questions_ufirst","unintentionality","0","0","0","0","0","0","less than half","1","10354","0"
"080918","13:14:37","726455798","612719567","4.0.10.0","1","6","end_of_study_questions_ufirst","intentionality","0","0","0","0","0","0","most","1","5578","0"
"080918","13:14:37","726455798","612719567","4.0.10.0","1","7","end_of_study_questions_ufirst","self_exclusion_1","0","0","0","0","0","0","Yes, use my data","1","5584","0"
"080918","13:14:37","726455798","612719567","4.0.10.0","1","7","end_of_study_questions_ufirst","self_exclusion_1other","0","0","0","0","0","0","","1","5584","0"
"080918","13:14:38","989419638","257035865","4.0.10.0","1","1","end_of_study_questions_ufirst","politics","0","0","0","0","0","0","somewhat democratic","1","8857","0"
"080918","13:14:38","989419638","257035865","4.0.10.0","1","2","end_of_study_questions_ufirst","awareness","0","0","0","0","0","0","all","1","19302","0"
"080918","13:14:38","989419638","257035865","4.0.10.0","1","3","end_of_study_questions_ufirst","demand","0","0","0","0","0","0","My responses were genuinely based on whether I was influenced or not","1","13331","0"
"080918","13:14:38","989419638","257035865","4.0.10.0","1","4","end_of_study_questions_ufirst","influence_general","0","0","0","0","0","0","about half","1","7689","0"
"080918","13:14:38","989419638","257035865","4.0.10.0","1","5","end_of_study_questions_ufirst","unintentionality","0","0","0","0","0","0","a few","1","17973","0"
"080918","13:14:38","989419638","257035865","4.0.10.0","1","6","end_of_study_questions_ufirst","intentionality","0","0","0","0","0","0","about half","1","13171","0"
"080918","13:14:38","989419638","257035865","4.0.10.0","1","7","end_of_study_questions_ufirst","self_exclusion_1","0","0","0","0","0","0","Yes, use my data","1","10300","0"
"080918","13:14:38","989419638","257035865","4.0.10.0","1","7","end_of_study_questions_ufirst","self_exclusion_1other","0","0","0","0","0","0","","1","10300","0"
"080918","10:16:08","782623127","861245923","4.0.10.0","1","1","end_of_study_questions_ufirst","politics","0","0","0","0","0","0","very democratic","1","4403","0"
"080918","10:16:08","782623127","861245923","4.0.10.0","1","2","end_of_study_questions_ufirst","awareness","0","0","0","0","0","0","all","1","14277","0"
"080918","10:16:08","782623127","861245923","4.0.10.0","1","3","end_of_study_questions_ufirst","demand","0","0","0","0","0","0","My responses were genuinely based on whether I was influenced or not","1","14407","0"
"080918","10:16:08","782623127","861245923","4.0.10.0","1","4","end_of_study_questions_ufirst","influence_general","0","0","0","0","0","0","about half","1","7057","0"
"080918","10:16:08","782623127","861245923","4.0.10.0","1","5","end_of_study_questions_ufirst","unintentionality","0","0","0","0","0","0","most","1","15231","0"
"080918","10:16:08","782623127","861245923","4.0.10.0","1","6","end_of_study_questions_ufirst","intentionality","0","0","0","0","0","0","none","1","19243","0"
"080918","10:16:08","782623127","861245923","4.0.10.0","1","7","end_of_study_questions_ufirst","self_exclusion_1","0","0","0","0","0","0","Yes, use my data","1","4132","0"
"080918","10:16:08","782623127","861245923","4.0.10.0","1","7","end_of_study_questions_ufirst","self_exclusion_1other","0","0","0","0","0","0","","1","4132","0"
"080918","13:21:35","398881517","4793598","4.0.10.0","1","1","end_of_study_questions_ifirst","politics","0","0","0","0","0","0","somewhat democratic","1","3594","0"
"080918","13:21:35","398881517","4793598","4.0.10.0","1","2","end_of_study_questions_ifirst","awareness","0","0","0","0","0","0","all","1","8549","0"
"080918","13:21:35","398881517","4793598","4.0.10.0","1","3","end_of_study_questions_ifirst","demand","0","0","0","0","0","0","My responses were genuinely based on whether I was influenced or not","1","6459","0"
"080918","13:21:35","398881517","4793598","4.0.10.0","1","4","end_of_study_questions_ifirst","influence_general","0","0","0","0","0","0","a few","1","4795","0"
"080918","13:21:35","398881517","4793598","4.0.10.0","1","5","end_of_study_questions_ifirst","intentionality","0","0","0","0","0","0","a few","1","3963","0"
"080918","13:21:35","398881517","4793598","4.0.10.0","1","6","end_of_study_questions_ifirst","unintentionality","0","0","0","0","0","0","a few","1","8369","0"
"080918","13:21:35","398881517","4793598","4.0.10.0","1","7","end_of_study_questions_ifirst","self_exclusion_1","0","0","0","0","0","0","Yes, use my data","1","2536","0"
"080918","13:21:35","398881517","4793598","4.0.10.0","1","7","end_of_study_questions_ifirst","self_exclusion_1other","0","0","0","0","0","0","","1","2536","0"
"080918","12:20:53","907233042","199138224","4.0.10.0","1","1","end_of_study_questions_ifirst","politics","0","0","0","0","0","0","somewhat democratic","1","6146","0"
"080918","12:20:53","907233042","199138224","4.0.10.0","1","2","end_of_study_questions_ifirst","awareness","0","0","0","0","0","0","all","1","22387","0"
"080918","12:20:53","907233042","199138224","4.0.10.0","1","3","end_of_study_questions_ifirst","demand","0","0","0","0","0","0","My responses were genuinely based on whether I was influenced or not","1","17089","0"
"080918","12:20:53","907233042","199138224","4.0.10.0","1","4","end_of_study_questions_ifirst","influence_general","0","0","0","0","0","0","a few","1","8039","0"
"080918","12:20:53","907233042","199138224","4.0.10.0","1","5","end_of_study_questions_ifirst","intentionality","0","0","0","0","0","0","a few","1","8206","0"
"080918","12:20:53","907233042","199138224","4.0.10.0","1","6","end_of_study_questions_ifirst","unintentionality","0","0","0","0","0","0","a few","1","8739","0"
"080918","12:20:53","907233042","199138224","4.0.10.0","1","7","end_of_study_questions_ifirst","self_exclusion_1","0","0","0","0","0","0","Yes, use my data","1","17567","0"
"080918","12:20:53","907233042","199138224","4.0.10.0","1","7","end_of_study_questions_ifirst","self_exclusion_1other","0","0","0","0","0","0","","1","17567","0"
"080918","13:20:30","502145183","995276234","4.0.10.0","1","1","end_of_study_questions_ifirst","politics","0","0","0","0","0","0","neither/moderate","1","9769","0"
"080918","13:20:30","502145183","995276234","4.0.10.0","1","2","end_of_study_questions_ifirst","awareness","0","0","0","0","0","0","all","1","24686","0"
"080918","13:20:30","502145183","995276234","4.0.10.0","1","3","end_of_study_questions_ifirst","demand","0","0","0","0","0","0","My responses were genuinely based on whether I was influenced or not","1","24900","0"
"080918","13:20:30","502145183","995276234","4.0.10.0","1","4","end_of_study_questions_ifirst","influence_general","0","0","0","0","0","0","a few","1","18662","0"
"080918","13:20:30","502145183","995276234","4.0.10.0","1","5","end_of_study_questions_ifirst","intentionality","0","0","0","0","0","0","none","1","18599","0"
"080918","13:20:30","502145183","995276234","4.0.10.0","1","6","end_of_study_questions_ifirst","unintentionality","0","0","0","0","0","0","a few","1","8210","0"
"080918","13:20:30","502145183","995276234","4.0.10.0","1","7","end_of_study_questions_ifirst","self_exclusion_1","0","0","0","0","0","0","Yes, use my data","1","22956","0"
"080918","13:20:30","502145183","995276234","4.0.10.0","1","7","end_of_study_questions_ifirst","self_exclusion_1other","0","0","0","0","0","0","","1","22956","0"
"080918","13:20:23","841380207","99792694","4.0.10.0","1","1","end_of_study_questions_ifirst","politics","0","0","0","0","0","0","very democratic","1","4132","0"
"080918","13:20:23","841380207","99792694","4.0.10.0","1","2","end_of_study_questions_ifirst","awareness","0","0","0","0","0","0","all","1","17792","0"
"080918","13:20:23","841380207","99792694","4.0.10.0","1","3","end_of_study_questions_ifirst","demand","0","0","0","0","0","0","I'm not sure or don't know why I responded the way I did","1","10616","0"
"080918","13:20:23","841380207","99792694","4.0.10.0","1","4","end_of_study_questions_ifirst","influence_general","0","0","0","0","0","0","about half","1","6673","0"
"080918","13:20:23","841380207","99792694","4.0.10.0","1","5","end_of_study_questions_ifirst","intentionality","0","0","0","0","0","0","none","1","9840","0"
"080918","13:20:23","841380207","99792694","4.0.10.0","1","6","end_of_study_questions_ifirst","unintentionality","0","0","0","0","0","0","about half","1","7044","0"
"080918","13:20:23","841380207","99792694","4.0.10.0","1","7","end_of_study_questions_ifirst","self_exclusion_1","0","0","0","0","0","0","No, exclude my data (please specify why):","1","101601","0"
"080918","13:20:23","841380207","99792694","4.0.10.0","1","7","end_of_study_questions_ifirst","self_exclusion_1other","0","0","0","0","0","0","I have no idea if what I was doing was right. Pleasant vs. unpleasantness seemed pretty arbitrary, and all of the symbols look at least somewhat pleasant to me, and although I did not do any of the tasks with any set intention (/I tried to cooperate), my answers seemed almost arbitrary.","1","101601","0"
"080918","10:22:23","533106182","207177671","4.0.10.0","1","1","end_of_study_questions_ufirst","politics","0","0","0","0","0","0","very democratic","1","4870","0"
"080918","10:22:23","533106182","207177671","4.0.10.0","1","2","end_of_study_questions_ufirst","awareness","0","0","0","0","0","0","all","1","14128","0"
"080918","10:22:23","533106182","207177671","4.0.10.0","1","3","end_of_study_questions_ufirst","demand","0","0","0","0","0","0","My responses were genuinely based on whether I was influenced or not","1","15768","0"
"080918","10:22:23","533106182","207177671","4.0.10.0","1","4","end_of_study_questions_ufirst","influence_general","0","0","0","0","0","0","more than half","1","14616","0"
"080918","10:22:23","533106182","207177671","4.0.10.0","1","5","end_of_study_questions_ufirst","unintentionality","0","0","0","0","0","0","about half","1","15282","0"
"080918","10:22:23","533106182","207177671","4.0.10.0","1","6","end_of_study_questions_ufirst","intentionality","0","0","0","0","0","0","none","1","13404","0"
"080918","10:22:23","533106182","207177671","4.0.10.0","1","7","end_of_study_questions_ufirst","self_exclusion_1","0","0","0","0","0","0","Yes, use my data","1","4921","0"
"080918","10:22:23","533106182","207177671","4.0.10.0","1","7","end_of_study_questions_ufirst","self_exclusion_1other","0","0","0","0","0","0","","1","4921","0"
"080918","12:23:24","833516971","51723877","4.0.10.0","1","1","end_of_study_questions_ufirst","politics","0","0","0","0","0","0","somewhat democratic","1","9072","0"
"080918","12:23:24","833516971","51723877","4.0.10.0","1","2","end_of_study_questions_ufirst","awareness","0","0","0","0","0","0","all","1","22763","0"
"080918","12:23:24","833516971","51723877","4.0.10.0","1","3","end_of_study_questions_ufirst","demand","0","0","0","0","0","0","My responses were genuinely based on whether I was influenced or not","1","12424","0"
"080918","12:23:24","833516971","51723877","4.0.10.0","1","4","end_of_study_questions_ufirst","influence_general","0","0","0","0","0","0","a few","1","16091","0"
"080918","12:23:24","833516971","51723877","4.0.10.0","1","5","end_of_study_questions_ufirst","unintentionality","0","0","0","0","0","0","a few","1","24923","0"
"080918","12:23:24","833516971","51723877","4.0.10.0","1","6","end_of_study_questions_ufirst","intentionality","0","0","0","0","0","0","none","1","6073","0"
"080918","12:23:24","833516971","51723877","4.0.10.0","1","7","end_of_study_questions_ufirst","self_exclusion_1","0","0","0","0","0","0","Yes, use my data","1","5267","0"
"080918","12:23:24","833516971","51723877","4.0.10.0","1","7","end_of_study_questions_ufirst","self_exclusion_1other","0","0","0","0","0","0","","1","5267","0"
"080918","13:24:02","405836187","700535080","4.0.10.0","1","1","end_of_study_questions_ifirst","politics","0","0","0","0","0","0","very democratic","1","4060","0"
"080918","13:24:02","405836187","700535080","4.0.10.0","1","2","end_of_study_questions_ifirst","awareness","0","0","0","0","0","0","all","1","17262","0"
"080918","13:24:02","405836187","700535080","4.0.10.0","1","3","end_of_study_questions_ifirst","demand","0","0","0","0","0","0","I'm not sure or don't know why I responded the way I did","1","27336","0"
"080918","13:24:02","405836187","700535080","4.0.10.0","1","4","end_of_study_questions_ifirst","influence_general","0","0","0","0","0","0","more than half","1","6863","0"
"080918","13:24:02","405836187","700535080","4.0.10.0","1","5","end_of_study_questions_ifirst","intentionality","0","0","0","0","0","0","a few","1","4990","0"
"080918","13:24:02","405836187","700535080","4.0.10.0","1","6","end_of_study_questions_ifirst","unintentionality","0","0","0","0","0","0","about half","1","6234","0"
"080918","13:24:02","405836187","700535080","4.0.10.0","1","7","end_of_study_questions_ifirst","self_exclusion_1","0","0","0","0","0","0","Yes, use my data","1","8607","0"
"080918","13:24:02","405836187","700535080","4.0.10.0","1","7","end_of_study_questions_ifirst","self_exclusion_1other","0","0","0","0","0","0","","1","8607","0"
"080918","13:28:39","654658603","229993324","4.0.10.0","1","1","end_of_study_questions_ifirst","politics","0","0","0","0","0","0","very democratic","1","5034","0"
"080918","13:28:39","654658603","229993324","4.0.10.0","1","2","end_of_study_questions_ifirst","awareness","0","0","0","0","0","0","all","1","28092","0"
"080918","13:28:39","654658603","229993324","4.0.10.0","1","3","end_of_study_questions_ifirst","demand","0","0","0","0","0","0","My responses were genuinely based on whether I was influenced or not","1","24404","0"
"080918","13:28:39","654658603","229993324","4.0.10.0","1","4","end_of_study_questions_ifirst","influence_general","0","0","0","0","0","0","all","1","10675","0"
"080918","13:28:39","654658603","229993324","4.0.10.0","1","5","end_of_study_questions_ifirst","intentionality","0","0","0","0","0","0","none","1","28000","0"
"080918","13:28:39","654658603","229993324","4.0.10.0","1","6","end_of_study_questions_ifirst","unintentionality","0","0","0","0","0","0","all","1","10568","0"
"080918","13:28:39","654658603","229993324","4.0.10.0","1","7","end_of_study_questions_ifirst","self_exclusion_1","0","0","0","0","0","0","Yes, use my data","1","12891","0"
"080918","13:28:39","654658603","229993324","4.0.10.0","1","7","end_of_study_questions_ifirst","self_exclusion_1other","0","0","0","0","0","0","","1","12891","0"
"080918","11:22:06","216392615","198956190","4.0.10.0","1","1","end_of_study_questions_ifirst","politics","0","0","0","0","0","0","very democratic","1","5736","0"
"080918","11:22:06","216392615","198956190","4.0.10.0","1","2","end_of_study_questions_ifirst","awareness","0","0","0","0","0","0","all","1","21422","0"
"080918","11:22:06","216392615","198956190","4.0.10.0","1","3","end_of_study_questions_ifirst","demand","0","0","0","0","0","0","My responses were genuinely based on whether I was influenced or not","1","15282","0"
"080918","11:22:06","216392615","198956190","4.0.10.0","1","4","end_of_study_questions_ifirst","influence_general","0","0","0","0","0","0","more than half","1","14282","0"
"080918","11:22:06","216392615","198956190","4.0.10.0","1","5","end_of_study_questions_ifirst","intentionality","0","0","0","0","0","0","none","1","7211","0"
"080918","11:22:06","216392615","198956190","4.0.10.0","1","6","end_of_study_questions_ifirst","unintentionality","0","0","0","0","0","0","about half","1","12383","0"
"080918","11:22:06","216392615","198956190","4.0.10.0","1","7","end_of_study_questions_ifirst","self_exclusion_1","0","0","0","0","0","0","No, exclude my data (please specify why):","1","175377","0"
"080918","11:22:06","216392615","198956190","4.0.10.0","1","7","end_of_study_questions_ifirst","self_exclusion_1other","0","0","0","0","0","0","I'm not sure the test was working as intended. The pictures flashed very quickly and then disappeared, and this was unexpected to me. The fastness of it made me think the test was broken, so I felt hurried and unsure if I was doing it properly. If this fast presentation was actually intentional, then I do think you can fairly use my data. ","1","175377","0"
"080918","10:28:16","101318272","562792162","4.0.10.0","1","1","end_of_study_questions_ifirst","politics","0","0","0","0","0","0","very democratic","1","39531","0"
"080918","10:28:16","101318272","562792162","4.0.10.0","1","2","end_of_study_questions_ifirst","awareness","0","0","0","0","0","0","all","1","14482","0"
"080918","10:28:16","101318272","562792162","4.0.10.0","1","3","end_of_study_questions_ifirst","demand","0","0","0","0","0","0","My responses were genuinely based on whether I was influenced or not","1","11238","0"
"080918","10:28:16","101318272","562792162","4.0.10.0","1","4","end_of_study_questions_ifirst","influence_general","0","0","0","0","0","0","about half","1","6095","0"
"080918","10:28:16","101318272","562792162","4.0.10.0","1","5","end_of_study_questions_ifirst","intentionality","0","0","0","0","0","0","none","1","8747","0"
"080918","10:28:16","101318272","562792162","4.0.10.0","1","6","end_of_study_questions_ifirst","unintentionality","0","0","0","0","0","0","about half","1","7027","0"
"080918","10:28:16","101318272","562792162","4.0.10.0","1","7","end_of_study_questions_ifirst","self_exclusion_1","0","0","0","0","0","0","Yes, use my data","1","11497","0"
"080918","10:28:16","101318272","562792162","4.0.10.0","1","7","end_of_study_questions_ifirst","self_exclusion_1other","0","0","0","0","0","0","","1","11497","0"
"080918","13:30:32","615046070","724129297","4.0.10.0","1","1","end_of_study_questions_ufirst","politics","0","0","0","0","0","0","a little democratic","1","7606","0"
"080918","13:30:32","615046070","724129297","4.0.10.0","1","2","end_of_study_questions_ufirst","awareness","0","0","0","0","0","0","most","1","18853","0"
"080918","13:30:32","615046070","724129297","4.0.10.0","1","3","end_of_study_questions_ufirst","demand","0","0","0","0","0","0","My responses were genuinely based on whether I was influenced or not","1","10870","0"
"080918","13:30:32","615046070","724129297","4.0.10.0","1","4","end_of_study_questions_ufirst","influence_general","0","0","0","0","0","0","none","1","11903","0"
"080918","13:30:32","615046070","724129297","4.0.10.0","1","5","end_of_study_questions_ufirst","unintentionality","0","0","0","0","0","0","none","1","7150","0"
"080918","13:30:32","615046070","724129297","4.0.10.0","1","6","end_of_study_questions_ufirst","intentionality","0","0","0","0","0","0","none","1","6815","0"
"080918","13:30:32","615046070","724129297","4.0.10.0","1","7","end_of_study_questions_ufirst","self_exclusion_1","0","0","0","0","0","0","Yes, use my data","1","4822","0"
"080918","13:30:32","615046070","724129297","4.0.10.0","1","7","end_of_study_questions_ufirst","self_exclusion_1other","0","0","0","0","0","0","","1","4822","0"
"080918","13:31:11","546600367","426487590","4.0.10.0","1","1","end_of_study_questions_ifirst","politics","0","0","0","0","0","0","somewhat democratic","1","4670","0"
"080918","13:31:11","546600367","426487590","4.0.10.0","1","2","end_of_study_questions_ifirst","awareness","0","0","0","0","0","0","all","1","22023","0"
"080918","13:31:11","546600367","426487590","4.0.10.0","1","3","end_of_study_questions_ifirst","demand","0","0","0","0","0","0","My responses were genuinely based on whether I was influenced or not","1","16631","0"
"080918","13:31:11","546600367","426487590","4.0.10.0","1","4","end_of_study_questions_ifirst","influence_general","0","0","0","0","0","0","less than half","1","6280","0"
"080918","13:31:11","546600367","426487590","4.0.10.0","1","5","end_of_study_questions_ifirst","intentionality","0","0","0","0","0","0","none","1","10436","0"
"080918","13:31:11","546600367","426487590","4.0.10.0","1","6","end_of_study_questions_ifirst","unintentionality","0","0","0","0","0","0","about half","1","11151","0"
"080918","13:31:11","546600367","426487590","4.0.10.0","1","7","end_of_study_questions_ifirst","self_exclusion_1","0","0","0","0","0","0","Yes, use my data","1","12291","0"
"080918","13:31:11","546600367","426487590","4.0.10.0","1","7","end_of_study_questions_ifirst","self_exclusion_1other","0","0","0","0","0","0","","1","12291","0"
"080918","12:32:42","366732243","803549838","4.0.10.0","1","1","end_of_study_questions_ifirst","politics","0","0","0","0","0","0","very democratic","1","3459","0"
"080918","12:32:42","366732243","803549838","4.0.10.0","1","2","end_of_study_questions_ifirst","awareness","0","0","0","0","0","0","most","1","6895","0"
"080918","12:32:42","366732243","803549838","4.0.10.0","1","3","end_of_study_questions_ifirst","demand","0","0","0","0","0","0","My responses were genuinely based on whether I was influenced or not","1","6847","0"
"080918","12:32:42","366732243","803549838","4.0.10.0","1","4","end_of_study_questions_ifirst","influence_general","0","0","0","0","0","0","all","1","6101","0"
"080918","12:32:42","366732243","803549838","4.0.10.0","1","5","end_of_study_questions_ifirst","intentionality","0","0","0","0","0","0","all","1","3580","0"
"080918","12:32:42","366732243","803549838","4.0.10.0","1","6","end_of_study_questions_ifirst","unintentionality","0","0","0","0","0","0","all","1","4757","0"
"080918","12:32:42","366732243","803549838","4.0.10.0","1","7","end_of_study_questions_ifirst","self_exclusion_1","0","0","0","0","0","0","Yes, use my data","1","3913","0"
"080918","12:32:42","366732243","803549838","4.0.10.0","1","7","end_of_study_questions_ifirst","self_exclusion_1other","0","0","0","0","0","0","","1","3913","0"
"080918","10:32:25","906056582","834227260","4.0.10.0","1","1","end_of_study_questions_ifirst","politics","0","0","0","0","0","0","a little democratic","1","5361","0"
"080918","10:32:25","906056582","834227260","4.0.10.0","1","2","end_of_study_questions_ifirst","awareness","0","0","0","0","0","0","all","1","12073","0"
"080918","10:32:25","906056582","834227260","4.0.10.0","1","3","end_of_study_questions_ifirst","demand","0","0","0","0","0","0","My responses were genuinely based on whether I was influenced or not","1","6936","0"
"080918","10:32:25","906056582","834227260","4.0.10.0","1","4","end_of_study_questions_ifirst","influence_general","0","0","0","0","0","0","less than half","1","9430","0"
"080918","10:32:25","906056582","834227260","4.0.10.0","1","5","end_of_study_questions_ifirst","intentionality","0","0","0","0","0","0","a few","1","5560","0"
"080918","10:32:25","906056582","834227260","4.0.10.0","1","6","end_of_study_questions_ifirst","unintentionality","0","0","0","0","0","0","about half","1","7931","0"
"080918","10:32:25","906056582","834227260","4.0.10.0","1","7","end_of_study_questions_ifirst","self_exclusion_1","0","0","0","0","0","0","Yes, use my data","1","29580","0"
"080918","10:32:25","906056582","834227260","4.0.10.0","1","7","end_of_study_questions_ifirst","self_exclusion_1other","0","0","0","0","0","0","","1","29580","0"
"080918","12:33:52","26689582","838309898","4.0.10.0","1","1","end_of_study_questions_ifirst","politics","0","0","0","0","0","0","a little democratic","1","6456","0"
"080918","12:33:52","26689582","838309898","4.0.10.0","1","2","end_of_study_questions_ifirst","awareness","0","0","0","0","0","0","all","1","21652","0"
"080918","12:33:52","26689582","838309898","4.0.10.0","1","3","end_of_study_questions_ifirst","demand","0","0","0","0","0","0","My responses were genuinely based on whether I was influenced or not","1","12403","0"
"080918","12:33:52","26689582","838309898","4.0.10.0","1","4","end_of_study_questions_ifirst","influence_general","0","0","0","0","0","0","less than half","1","9192","0"
"080918","12:33:52","26689582","838309898","4.0.10.0","1","5","end_of_study_questions_ifirst","intentionality","0","0","0","0","0","0","none","1","8935","0"
"080918","12:33:52","26689582","838309898","4.0.10.0","1","6","end_of_study_questions_ifirst","unintentionality","0","0","0","0","0","0","less than half","1","10749","0"
"080918","12:33:52","26689582","838309898","4.0.10.0","1","7","end_of_study_questions_ifirst","self_exclusion_1","0","0","0","0","0","0","Yes, use my data","1","11565","0"
"080918","12:33:52","26689582","838309898","4.0.10.0","1","7","end_of_study_questions_ifirst","self_exclusion_1other","0","0","0","0","0","0","","1","11565","0"
"080918","13:35:52","459367856","268653392","4.0.10.0","1","1","end_of_study_questions_ifirst","politics","0","0","0","0","0","0","very democratic","1","2514","0"
"080918","13:35:52","459367856","268653392","4.0.10.0","1","2","end_of_study_questions_ifirst","awareness","0","0","0","0","0","0","about half","1","2588","0"
"080918","13:35:52","459367856","268653392","4.0.10.0","1","3","end_of_study_questions_ifirst","demand","0","0","0","0","0","0","My responses were genuinely based on whether I was influenced or not","1","11165","0"
"080918","13:35:52","459367856","268653392","4.0.10.0","1","4","end_of_study_questions_ifirst","influence_general","0","0","0","0","0","0","more than half","1","4598","0"
"080918","13:35:52","459367856","268653392","4.0.10.0","1","5","end_of_study_questions_ifirst","intentionality","0","0","0","0","0","0","about half","1","1866","0"
"080918","13:35:52","459367856","268653392","4.0.10.0","1","6","end_of_study_questions_ifirst","unintentionality","0","0","0","0","0","0","about half","1","1401","0"
"080918","13:35:52","459367856","268653392","4.0.10.0","1","7","end_of_study_questions_ifirst","self_exclusion_1","0","0","0","0","0","0","Yes, use my data","1","6403","0"
"080918","13:35:52","459367856","268653392","4.0.10.0","1","7","end_of_study_questions_ifirst","self_exclusion_1other","0","0","0","0","0","0","","1","6403","0"
"080918","10:36:17","61592092","36800426","4.0.10.0","1","1","end_of_study_questions_ifirst","politics","0","0","0","0","0","0","very democratic","1","6100","0"
"080918","10:36:17","61592092","36800426","4.0.10.0","1","2","end_of_study_questions_ifirst","awareness","0","0","0","0","0","0","all","1","16481","0"
"080918","10:36:17","61592092","36800426","4.0.10.0","1","3","end_of_study_questions_ifirst","demand","0","0","0","0","0","0","My responses were genuinely based on whether I was influenced or not","1","14440","0"
"080918","10:36:17","61592092","36800426","4.0.10.0","1","4","end_of_study_questions_ifirst","influence_general","0","0","0","0","0","0","less than half","1","6296","0"
"080918","10:36:17","61592092","36800426","4.0.10.0","1","5","end_of_study_questions_ifirst","intentionality","0","0","0","0","0","0","none","1","7405","0"
"080918","10:36:17","61592092","36800426","4.0.10.0","1","6","end_of_study_questions_ifirst","unintentionality","0","0","0","0","0","0","less than half","1","8627","0"
"080918","10:36:17","61592092","36800426","4.0.10.0","1","7","end_of_study_questions_ifirst","self_exclusion_1","0","0","0","0","0","0","Yes, use my data","1","6445","0"
"080918","10:36:17","61592092","36800426","4.0.10.0","1","7","end_of_study_questions_ifirst","self_exclusion_1other","0","0","0","0","0","0","","1","6445","0"
"080918","13:36:58","416684168","387510502","4.0.10.0","1","1","end_of_study_questions_ifirst","politics","0","0","0","0","0","0","neither/moderate","1","3529","0"
"080918","13:36:58","416684168","387510502","4.0.10.0","1","2","end_of_study_questions_ifirst","awareness","0","0","0","0","0","0","more than half","1","7163","0"
"080918","13:36:58","416684168","387510502","4.0.10.0","1","3","end_of_study_questions_ifirst","demand","0","0","0","0","0","0","My responses were genuinely based on whether I was influenced or not","1","5119","0"
"080918","13:36:58","416684168","387510502","4.0.10.0","1","4","end_of_study_questions_ifirst","influence_general","0","0","0","0","0","0","more than half","1","4278","0"
"080918","13:36:58","416684168","387510502","4.0.10.0","1","5","end_of_study_questions_ifirst","intentionality","0","0","0","0","0","0","more than half","1","3957","0"
"080918","13:36:58","416684168","387510502","4.0.10.0","1","6","end_of_study_questions_ifirst","unintentionality","0","0","0","0","0","0","about half","1","2147","0"
"080918","13:36:58","416684168","387510502","4.0.10.0","1","7","end_of_study_questions_ifirst","self_exclusion_1","0","0","0","0","0","0","Yes, use my data","1","4112","0"
"080918","13:36:58","416684168","387510502","4.0.10.0","1","7","end_of_study_questions_ifirst","self_exclusion_1other","0","0","0","0","0","0","","1","4112","0"
"080918","10:36:44","881921318","14993216","4.0.10.0","1","1","end_of_study_questions_ifirst","politics","0","0","0","0","0","0","somewhat democratic","1","7312","0"
"080918","10:36:44","881921318","14993216","4.0.10.0","1","2","end_of_study_questions_ifirst","awareness","0","0","0","0","0","0","all","1","14276","0"
"080918","10:36:44","881921318","14993216","4.0.10.0","1","3","end_of_study_questions_ifirst","demand","0","0","0","0","0","0","My responses were genuinely based on whether I was influenced or not","1","13645","0"
"080918","10:36:44","881921318","14993216","4.0.10.0","1","4","end_of_study_questions_ifirst","influence_general","0","0","0","0","0","0","about half","1","6401","0"
"080918","10:36:44","881921318","14993216","4.0.10.0","1","5","end_of_study_questions_ifirst","intentionality","0","0","0","0","0","0","a few","1","9751","0"
"080918","10:36:44","881921318","14993216","4.0.10.0","1","6","end_of_study_questions_ifirst","unintentionality","0","0","0","0","0","0","less than half","1","6584","0"
"080918","10:36:44","881921318","14993216","4.0.10.0","1","7","end_of_study_questions_ifirst","self_exclusion_1","0","0","0","0","0","0","Yes, use my data","1","12239","0"
"080918","10:36:44","881921318","14993216","4.0.10.0","1","7","end_of_study_questions_ifirst","self_exclusion_1other","0","0","0","0","0","0","","1","12239","0"
"080918","07:36:36","654121503","73899742","4.0.10.0","1","1","end_of_study_questions_ifirst","politics","0","0","0","0","0","0","very democratic","1","4206","0"
"080918","07:36:36","654121503","73899742","4.0.10.0","1","2","end_of_study_questions_ifirst","awareness","0","0","0","0","0","0","all","1","13016","0"
"080918","07:36:36","654121503","73899742","4.0.10.0","1","3","end_of_study_questions_ifirst","demand","0","0","0","0","0","0","My responses were genuinely based on whether I was influenced or not","1","7481","0"
"080918","07:36:36","654121503","73899742","4.0.10.0","1","4","end_of_study_questions_ifirst","influence_general","0","0","0","0","0","0","about half","1","26528","0"
"080918","07:36:36","654121503","73899742","4.0.10.0","1","5","end_of_study_questions_ifirst","intentionality","0","0","0","0","0","0","more than half","1","8355","0"
"080918","07:36:36","654121503","73899742","4.0.10.0","1","6","end_of_study_questions_ifirst","unintentionality","0","0","0","0","0","0","most","1","10926","0"
"080918","07:36:36","654121503","73899742","4.0.10.0","1","7","end_of_study_questions_ifirst","self_exclusion_1","0","0","0","0","0","0","Yes, use my data","1","6212","0"
"080918","07:36:36","654121503","73899742","4.0.10.0","1","7","end_of_study_questions_ifirst","self_exclusion_1other","0","0","0","0","0","0","","1","6212","0"
"080918","13:38:23","481094527","942233025","4.0.10.0","1","1","end_of_study_questions_ufirst","politics","0","0","0","0","0","0","a little democratic","1","4457","0"
"080918","13:38:23","481094527","942233025","4.0.10.0","1","2","end_of_study_questions_ufirst","awareness","0","0","0","0","0","0","all","1","13794","0"
"080918","13:38:23","481094527","942233025","4.0.10.0","1","3","end_of_study_questions_ufirst","demand","0","0","0","0","0","0","My responses were genuinely based on whether I was influenced or not","1","10059","0"
"080918","13:38:23","481094527","942233025","4.0.10.0","1","4","end_of_study_questions_ufirst","influence_general","0","0","0","0","0","0","about half","1","7600","0"
"080918","13:38:23","481094527","942233025","4.0.10.0","1","5","end_of_study_questions_ufirst","unintentionality","0","0","0","0","0","0","about half","1","3742","0"
"080918","13:38:23","481094527","942233025","4.0.10.0","1","6","end_of_study_questions_ufirst","intentionality","0","0","0","0","0","0","none","1","6907","0"
"080918","13:38:23","481094527","942233025","4.0.10.0","1","7","end_of_study_questions_ufirst","self_exclusion_1","0","0","0","0","0","0","Yes, use my data","1","3844","0"
"080918","13:38:23","481094527","942233025","4.0.10.0","1","7","end_of_study_questions_ufirst","self_exclusion_1other","0","0","0","0","0","0","","1","3844","0"
"080918","13:38:47","801153288","907215497","4.0.10.0","1","1","end_of_study_questions_ufirst","politics","0","0","0","0","0","0","very democratic","1","8113","0"
"080918","13:38:47","801153288","907215497","4.0.10.0","1","2","end_of_study_questions_ufirst","awareness","0","0","0","0","0","0","all","1","13626","0"
"080918","13:38:47","801153288","907215497","4.0.10.0","1","3","end_of_study_questions_ufirst","demand","0","0","0","0","0","0","My responses were genuinely based on whether I was influenced or not","1","19138","0"
"080918","13:38:47","801153288","907215497","4.0.10.0","1","4","end_of_study_questions_ufirst","influence_general","0","0","0","0","0","0","all","1","40330","0"
"080918","13:38:47","801153288","907215497","4.0.10.0","1","5","end_of_study_questions_ufirst","unintentionality","0","0","0","0","0","0","all","1","8640","0"
"080918","13:38:47","801153288","907215497","4.0.10.0","1","6","end_of_study_questions_ufirst","intentionality","0","0","0","0","0","0","all","1","9305","0"
"080918","13:38:47","801153288","907215497","4.0.10.0","1","7","end_of_study_questions_ufirst","self_exclusion_1","0","0","0","0","0","0","Yes, use my data","1","8453","0"
"080918","13:38:47","801153288","907215497","4.0.10.0","1","7","end_of_study_questions_ufirst","self_exclusion_1other","0","0","0","0","0","0","","1","8453","0"
"080918","13:40:03","356596624","741795876","4.0.10.0","1","1","end_of_study_questions_ifirst","politics","0","0","0","0","0","0","somewhat democratic","1","20047","0"
"080918","13:40:03","356596624","741795876","4.0.10.0","1","2","end_of_study_questions_ifirst","awareness","0","0","0","0","0","0","all","1","10059","0"
"080918","13:40:03","356596624","741795876","4.0.10.0","1","3","end_of_study_questions_ifirst","demand","0","0","0","0","0","0","My responses were genuinely based on whether I was influenced or not","1","7478","0"
"080918","13:40:03","356596624","741795876","4.0.10.0","1","4","end_of_study_questions_ifirst","influence_general","0","0","0","0","0","0","more than half","1","6776","0"
"080918","13:40:03","356596624","741795876","4.0.10.0","1","5","end_of_study_questions_ifirst","intentionality","0","0","0","0","0","0","a few","1","10887","0"
"080918","13:40:03","356596624","741795876","4.0.10.0","1","6","end_of_study_questions_ifirst","unintentionality","0","0","0","0","0","0","about half","1","9170","0"
"080918","13:40:03","356596624","741795876","4.0.10.0","1","7","end_of_study_questions_ifirst","self_exclusion_1","0","0","0","0","0","0","Yes, use my data","1","14920","0"
"080918","13:40:03","356596624","741795876","4.0.10.0","1","7","end_of_study_questions_ifirst","self_exclusion_1other","0","0","0","0","0","0","","1","14920","0"
"080918","13:40:09","910859564","50554708","4.0.10.0","1","1","end_of_study_questions_ifirst","politics","0","0","0","0","0","0","somewhat democratic","1","9857","0"
"080918","13:40:09","910859564","50554708","4.0.10.0","1","2","end_of_study_questions_ifirst","awareness","0","0","0","0","0","0","all","1","25101","0"
"080918","13:40:09","910859564","50554708","4.0.10.0","1","3","end_of_study_questions_ifirst","demand","0","0","0","0","0","0","My responses were genuinely based on whether I was influenced or not","1","20586","0"
"080918","13:40:09","910859564","50554708","4.0.10.0","1","4","end_of_study_questions_ifirst","influence_general","0","0","0","0","0","0","a few","1","7869","0"
"080918","13:40:09","910859564","50554708","4.0.10.0","1","5","end_of_study_questions_ifirst","intentionality","0","0","0","0","0","0","a few","1","11632","0"
"080918","13:40:09","910859564","50554708","4.0.10.0","1","6","end_of_study_questions_ifirst","unintentionality","0","0","0","0","0","0","none","1","13018","0"
"080918","13:40:09","910859564","50554708","4.0.10.0","1","7","end_of_study_questions_ifirst","self_exclusion_1","0","0","0","0","0","0","Yes, use my data","1","20955","0"
"080918","13:40:09","910859564","50554708","4.0.10.0","1","7","end_of_study_questions_ifirst","self_exclusion_1other","0","0","0","0","0","0","","1","20955","0"
"080918","10:40:59","852449859","855918927","4.0.10.0","1","1","end_of_study_questions_ufirst","politics","0","0","0","0","0","0","somewhat democratic","1","11736","0"
"080918","10:40:59","852449859","855918927","4.0.10.0","1","2","end_of_study_questions_ufirst","awareness","0","0","0","0","0","0","all","1","24847","0"
"080918","10:40:59","852449859","855918927","4.0.10.0","1","3","end_of_study_questions_ufirst","demand","0","0","0","0","0","0","My responses were genuinely based on whether I was influenced or not","1","17173","0"
"080918","10:40:59","852449859","855918927","4.0.10.0","1","4","end_of_study_questions_ufirst","influence_general","0","0","0","0","0","0","a few","1","9122","0"
"080918","10:40:59","852449859","855918927","4.0.10.0","1","5","end_of_study_questions_ufirst","unintentionality","0","0","0","0","0","0","a few","1","6531","0"
"080918","10:40:59","852449859","855918927","4.0.10.0","1","6","end_of_study_questions_ufirst","intentionality","0","0","0","0","0","0","none","1","7932","0"
"080918","10:40:59","852449859","855918927","4.0.10.0","1","7","end_of_study_questions_ufirst","self_exclusion_1","0","0","0","0","0","0","Yes, use my data","1","7137","0"
"080918","10:40:59","852449859","855918927","4.0.10.0","1","7","end_of_study_questions_ufirst","self_exclusion_1other","0","0","0","0","0","0","","1","7137","0"
"080918","13:41:47","548241995","317346405","4.0.10.0","1","1","end_of_study_questions_ufirst","politics","0","0","0","0","0","0","very democratic","1","6287","0"
"080918","13:41:47","548241995","317346405","4.0.10.0","1","2","end_of_study_questions_ufirst","awareness","0","0","0","0","0","0","all","1","22344","0"
"080918","13:41:47","548241995","317346405","4.0.10.0","1","3","end_of_study_questions_ufirst","demand","0","0","0","0","0","0","My responses were genuinely based on whether I was influenced or not","1","115292","0"
"080918","13:41:47","548241995","317346405","4.0.10.0","1","4","end_of_study_questions_ufirst","influence_general","0","0","0","0","0","0","a few","1","7365","0"
"080918","13:41:47","548241995","317346405","4.0.10.0","1","5","end_of_study_questions_ufirst","unintentionality","0","0","0","0","0","0","less than half","1","8263","0"
"080918","13:41:47","548241995","317346405","4.0.10.0","1","6","end_of_study_questions_ufirst","intentionality","0","0","0","0","0","0","none","1","5982","0"
"080918","13:41:47","548241995","317346405","4.0.10.0","1","7","end_of_study_questions_ufirst","self_exclusion_1","0","0","0","0","0","0","Yes, use my data","1","11321","0"
"080918","13:41:47","548241995","317346405","4.0.10.0","1","7","end_of_study_questions_ufirst","self_exclusion_1other","0","0","0","0","0","0","","1","11321","0"
"080918","13:43:13","239847689","404330801","4.0.10.0","1","1","end_of_study_questions_ufirst","politics","0","0","0","0","0","0","very democratic","1","11201","0"
"080918","13:43:13","239847689","404330801","4.0.10.0","1","2","end_of_study_questions_ufirst","awareness","0","0","0","0","0","0","all","1","23378","0"
"080918","13:43:13","239847689","404330801","4.0.10.0","1","3","end_of_study_questions_ufirst","demand","0","0","0","0","0","0","My responses were genuinely based on whether I was influenced or not","1","20170","0"
"080918","13:43:13","239847689","404330801","4.0.10.0","1","4","end_of_study_questions_ufirst","influence_general","0","0","0","0","0","0","all","1","9777","0"
"080918","13:43:13","239847689","404330801","4.0.10.0","1","5","end_of_study_questions_ufirst","unintentionality","0","0","0","0","0","0","all","1","7895","0"
"080918","13:43:13","239847689","404330801","4.0.10.0","1","6","end_of_study_questions_ufirst","intentionality","0","0","0","0","0","0","all","1","6170","0"
"080918","13:43:13","239847689","404330801","4.0.10.0","1","7","end_of_study_questions_ufirst","self_exclusion_1","0","0","0","0","0","0","Yes, use my data","1","18512","0"
"080918","13:43:13","239847689","404330801","4.0.10.0","1","7","end_of_study_questions_ufirst","self_exclusion_1other","0","0","0","0","0","0","","1","18512","0"
"080918","11:44:46","403520209","557894060","4.0.10.0","1","1","end_of_study_questions_ifirst","politics","0","0","0","0","0","0","very democratic","1","3874","0"
"080918","11:44:46","403520209","557894060","4.0.10.0","1","2","end_of_study_questions_ifirst","awareness","0","0","0","0","0","0","all","1","7413","0"
"080918","11:44:46","403520209","557894060","4.0.10.0","1","3","end_of_study_questions_ifirst","demand","0","0","0","0","0","0","My responses were genuinely based on whether I was influenced or not","1","8930","0"
"080918","11:44:46","403520209","557894060","4.0.10.0","1","4","end_of_study_questions_ifirst","influence_general","0","0","0","0","0","0","about half","1","3746","0"
"080918","11:44:46","403520209","557894060","4.0.10.0","1","5","end_of_study_questions_ifirst","intentionality","0","0","0","0","0","0","about half","1","56322","0"
"080918","11:44:46","403520209","557894060","4.0.10.0","1","6","end_of_study_questions_ifirst","unintentionality","0","0","0","0","0","0","about half","1","4232","0"
"080918","11:44:46","403520209","557894060","4.0.10.0","1","7","end_of_study_questions_ifirst","self_exclusion_1","0","0","0","0","0","0","Yes, use my data","1","2497","0"
"080918","11:44:46","403520209","557894060","4.0.10.0","1","7","end_of_study_questions_ifirst","self_exclusion_1other","0","0","0","0","0","0","","1","2497","0"
"080918","13:45:32","712811359","164171230","4.0.10.0","1","1","end_of_study_questions_ifirst","politics","0","0","0","0","0","0","a little democratic","1","5461","0"
"080918","13:45:32","712811359","164171230","4.0.10.0","1","2","end_of_study_questions_ifirst","awareness","0","0","0","0","0","0","all","1","14291","0"
"080918","13:45:32","712811359","164171230","4.0.10.0","1","3","end_of_study_questions_ifirst","demand","0","0","0","0","0","0","My responses were genuinely based on whether I was influenced or not","1","14089","0"
"080918","13:45:32","712811359","164171230","4.0.10.0","1","4","end_of_study_questions_ifirst","influence_general","0","0","0","0","0","0","less than half","1","11675","0"
"080918","13:45:32","712811359","164171230","4.0.10.0","1","5","end_of_study_questions_ifirst","intentionality","0","0","0","0","0","0","none","1","10394","0"
"080918","13:45:32","712811359","164171230","4.0.10.0","1","6","end_of_study_questions_ifirst","unintentionality","0","0","0","0","0","0","less than half","1","10890","0"
"080918","13:45:32","712811359","164171230","4.0.10.0","1","7","end_of_study_questions_ifirst","self_exclusion_1","0","0","0","0","0","0","Yes, use my data","1","12310","0"
"080918","13:45:32","712811359","164171230","4.0.10.0","1","7","end_of_study_questions_ifirst","self_exclusion_1other","0","0","0","0","0","0","","1","12310","0"
"080918","12:45:55","301703936","659121413","4.0.10.0","1","1","end_of_study_questions_ufirst","politics","0","0","0","0","0","0","somewhat democratic","1","9544","0"
"080918","12:45:55","301703936","659121413","4.0.10.0","1","2","end_of_study_questions_ufirst","awareness","0","0","0","0","0","0","all","1","18248","0"
"080918","12:45:55","301703936","659121413","4.0.10.0","1","3","end_of_study_questions_ufirst","demand","0","0","0","0","0","0","My responses were genuinely based on whether I was influenced or not","1","16804","0"
"080918","12:45:55","301703936","659121413","4.0.10.0","1","4","end_of_study_questions_ufirst","influence_general","0","0","0","0","0","0","less than half","1","12717","0"
"080918","12:45:55","301703936","659121413","4.0.10.0","1","5","end_of_study_questions_ufirst","unintentionality","0","0","0","0","0","0","less than half","1","7716","0"
"080918","12:45:55","301703936","659121413","4.0.10.0","1","6","end_of_study_questions_ufirst","intentionality","0","0","0","0","0","0","none","1","30936","0"
"080918","12:45:55","301703936","659121413","4.0.10.0","1","7","end_of_study_questions_ufirst","self_exclusion_1","0","0","0","0","0","0","Yes, use my data","1","16969","0"
"080918","12:45:55","301703936","659121413","4.0.10.0","1","7","end_of_study_questions_ufirst","self_exclusion_1other","0","0","0","0","0","0","","1","16969","0"
"080918","13:47:22","561121994","537270509","4.0.10.0","1","1","end_of_study_questions_ufirst","politics","0","0","0","0","0","0","very democratic","1","6320","0"
"080918","13:47:22","561121994","537270509","4.0.10.0","1","2","end_of_study_questions_ufirst","awareness","0","0","0","0","0","0","all","1","10827","0"
"080918","13:47:22","561121994","537270509","4.0.10.0","1","3","end_of_study_questions_ufirst","demand","0","0","0","0","0","0","My responses were genuinely based on whether I was influenced or not","1","14738","0"
"080918","13:47:22","561121994","537270509","4.0.10.0","1","4","end_of_study_questions_ufirst","influence_general","0","0","0","0","0","0","most","1","8020","0"
"080918","13:47:22","561121994","537270509","4.0.10.0","1","5","end_of_study_questions_ufirst","unintentionality","0","0","0","0","0","0","most","1","10855","0"
"080918","13:47:22","561121994","537270509","4.0.10.0","1","6","end_of_study_questions_ufirst","intentionality","0","0","0","0","0","0","most","1","8909","0"
"080918","13:47:22","561121994","537270509","4.0.10.0","1","7","end_of_study_questions_ufirst","self_exclusion_1","0","0","0","0","0","0","Yes, use my data","1","5728","0"
"080918","13:47:22","561121994","537270509","4.0.10.0","1","7","end_of_study_questions_ufirst","self_exclusion_1other","0","0","0","0","0","0","","1","5728","0"
"080918","13:49:52","202776299","377181951","4.0.10.0","1","1","end_of_study_questions_ufirst","politics","0","0","0","0","0","0","","1","782","0"
"080918","13:49:16","224946354","273965715","4.0.10.0","1","1","end_of_study_questions_ufirst","politics","0","0","0","0","0","0","somewhat democratic","1","5383","0"
"080918","13:49:16","224946354","273965715","4.0.10.0","1","2","end_of_study_questions_ufirst","awareness","0","0","0","0","0","0","all","1","11111","0"
"080918","13:49:16","224946354","273965715","4.0.10.0","1","3","end_of_study_questions_ufirst","demand","0","0","0","0","0","0","My responses were genuinely based on whether I was influenced or not","1","8928","0"
"080918","13:49:16","224946354","273965715","4.0.10.0","1","4","end_of_study_questions_ufirst","influence_general","0","0","0","0","0","0","all","1","4655","0"
"080918","13:49:16","224946354","273965715","4.0.10.0","1","5","end_of_study_questions_ufirst","unintentionality","0","0","0","0","0","0","most","1","6760","0"
"080918","13:49:16","224946354","273965715","4.0.10.0","1","6","end_of_study_questions_ufirst","intentionality","0","0","0","0","0","0","more than half","1","10432","0"
"080918","13:49:16","224946354","273965715","4.0.10.0","1","7","end_of_study_questions_ufirst","self_exclusion_1","0","0","0","0","0","0","Yes, use my data","1","9487","0"
"080918","13:49:16","224946354","273965715","4.0.10.0","1","7","end_of_study_questions_ufirst","self_exclusion_1other","0","0","0","0","0","0","","1","9487","0"
"080918","10:50:28","183084442","702156408","4.0.10.0","1","1","end_of_study_questions_ifirst","politics","0","0","0","0","0","0","a little republican","1","9922","0"
"080918","10:50:28","183084442","702156408","4.0.10.0","1","2","end_of_study_questions_ifirst","awareness","0","0","0","0","0","0","most","1","23603","0"
"080918","10:50:28","183084442","702156408","4.0.10.0","1","3","end_of_study_questions_ifirst","demand","0","0","0","0","0","0","My responses were genuinely based on whether I was influenced or not","1","20277","0"
"080918","10:50:28","183084442","702156408","4.0.10.0","1","4","end_of_study_questions_ifirst","influence_general","0","0","0","0","0","0","most","1","13781","0"
"080918","10:50:28","183084442","702156408","4.0.10.0","1","5","end_of_study_questions_ifirst","intentionality","0","0","0","0","0","0","most","1","6856","0"
"080918","10:50:28","183084442","702156408","4.0.10.0","1","6","end_of_study_questions_ifirst","unintentionality","0","0","0","0","0","0","a few","1","31047","0"
"080918","10:50:28","183084442","702156408","4.0.10.0","1","7","end_of_study_questions_ifirst","self_exclusion_1","0","0","0","0","0","0","Yes, use my data","1","11796","0"
"080918","10:50:28","183084442","702156408","4.0.10.0","1","7","end_of_study_questions_ifirst","self_exclusion_1other","0","0","0","0","0","0","","1","11796","0"
"080918","13:52:30","891160095","434236063","4.0.10.0","1","1","end_of_study_questions_ufirst","politics","0","0","0","0","0","0","very democratic","1","5154","0"
"080918","13:52:30","891160095","434236063","4.0.10.0","1","2","end_of_study_questions_ufirst","awareness","0","0","0","0","0","0","more than half","1","6525","0"
"080918","13:52:30","891160095","434236063","4.0.10.0","1","3","end_of_study_questions_ufirst","demand","0","0","0","0","0","0","My responses were genuinely based on whether I was influenced or not","1","4207","0"
"080918","13:52:30","891160095","434236063","4.0.10.0","1","4","end_of_study_questions_ufirst","influence_general","0","0","0","0","0","0","less than half","1","8529","0"
"080918","13:52:30","891160095","434236063","4.0.10.0","1","5","end_of_study_questions_ufirst","unintentionality","0","0","0","0","0","0","about half","1","5072","0"
"080918","13:52:30","891160095","434236063","4.0.10.0","1","6","end_of_study_questions_ufirst","intentionality","0","0","0","0","0","0","about half","1","3095","0"
"080918","13:52:30","891160095","434236063","4.0.10.0","1","7","end_of_study_questions_ufirst","self_exclusion_1","0","0","0","0","0","0","Yes, use my data","1","2714","0"
"080918","13:52:30","891160095","434236063","4.0.10.0","1","7","end_of_study_questions_ufirst","self_exclusion_1other","0","0","0","0","0","0","","1","2714","0"
"080918","13:51:20","245635327","639605524","4.0.10.0","1","1","end_of_study_questions_ifirst","politics","0","0","0","0","0","0","somewhat democratic","1","10784","0"
"080918","13:51:20","245635327","639605524","4.0.10.0","1","2","end_of_study_questions_ifirst","awareness","0","0","0","0","0","0","all","1","18185","0"
"080918","13:51:20","245635327","639605524","4.0.10.0","1","3","end_of_study_questions_ifirst","demand","0","0","0","0","0","0","My responses were genuinely based on whether I was influenced or not","1","19808","0"
"080918","13:51:20","245635327","639605524","4.0.10.0","1","4","end_of_study_questions_ifirst","influence_general","0","0","0","0","0","0","less than half","1","20009","0"
"080918","13:51:20","245635327","639605524","4.0.10.0","1","5","end_of_study_questions_ifirst","intentionality","0","0","0","0","0","0","none","1","10668","0"
"080918","13:51:20","245635327","639605524","4.0.10.0","1","6","end_of_study_questions_ifirst","unintentionality","0","0","0","0","0","0","less than half","1","11884","0"
"080918","13:51:20","245635327","639605524","4.0.10.0","1","7","end_of_study_questions_ifirst","self_exclusion_1","0","0","0","0","0","0","Yes, use my data","1","18106","0"
"080918","13:51:20","245635327","639605524","4.0.10.0","1","7","end_of_study_questions_ifirst","self_exclusion_1other","0","0","0","0","0","0","","1","18106","0"
"080918","13:53:54","542283249","198000605","4.0.10.0","1","1","end_of_study_questions_ufirst","politics","0","0","0","0","0","0","somewhat democratic","1","7867","0"
"080918","13:53:54","542283249","198000605","4.0.10.0","1","2","end_of_study_questions_ufirst","awareness","0","0","0","0","0","0","all","1","23009","0"
"080918","13:53:54","542283249","198000605","4.0.10.0","1","3","end_of_study_questions_ufirst","demand","0","0","0","0","0","0","My responses were genuinely based on whether I was influenced or not","1","8675","0"
"080918","13:53:54","542283249","198000605","4.0.10.0","1","4","end_of_study_questions_ufirst","influence_general","0","0","0","0","0","0","none","1","6923","0"
"080918","13:53:54","542283249","198000605","4.0.10.0","1","5","end_of_study_questions_ufirst","unintentionality","0","0","0","0","0","0","none","1","5123","0"
"080918","13:53:54","542283249","198000605","4.0.10.0","1","6","end_of_study_questions_ufirst","intentionality","0","0","0","0","0","0","none","1","6614","0"
"080918","13:53:54","542283249","198000605","4.0.10.0","1","7","end_of_study_questions_ufirst","self_exclusion_1","0","0","0","0","0","0","Yes, use my data","1","3633","0"
"080918","13:53:54","542283249","198000605","4.0.10.0","1","7","end_of_study_questions_ufirst","self_exclusion_1other","0","0","0","0","0","0","","1","3633","0"
"080918","10:53:52","926980921","267237454","4.0.10.0","1","1","end_of_study_questions_ifirst","politics","0","0","0","0","0","0","somewhat democratic","1","12261","0"
"080918","10:53:52","926980921","267237454","4.0.10.0","1","2","end_of_study_questions_ifirst","awareness","0","0","0","0","0","0","all","1","16884","0"
"080918","10:53:52","926980921","267237454","4.0.10.0","1","3","end_of_study_questions_ifirst","demand","0","0","0","0","0","0","My responses were genuinely based on whether I was influenced or not","1","18249","0"
"080918","10:53:52","926980921","267237454","4.0.10.0","1","4","end_of_study_questions_ifirst","influence_general","0","0","0","0","0","0","more than half","1","12822","0"
"080918","10:53:52","926980921","267237454","4.0.10.0","1","5","end_of_study_questions_ifirst","intentionality","0","0","0","0","0","0","about half","1","15197","0"
"080918","10:53:52","926980921","267237454","4.0.10.0","1","6","end_of_study_questions_ifirst","unintentionality","0","0","0","0","0","0","about half","1","7105","0"
"080918","10:53:52","926980921","267237454","4.0.10.0","1","7","end_of_study_questions_ifirst","self_exclusion_1","0","0","0","0","0","0","Yes, use my data","1","5854","0"
"080918","10:53:52","926980921","267237454","4.0.10.0","1","7","end_of_study_questions_ifirst","self_exclusion_1other","0","0","0","0","0","0","","1","5854","0"
"080918","12:54:53","258628027","606371456","4.0.10.0","1","1","end_of_study_questions_ifirst","politics","0","0","0","0","0","0","neither/moderate","1","5590","0"
"080918","12:54:53","258628027","606371456","4.0.10.0","1","2","end_of_study_questions_ifirst","awareness","0","0","0","0","0","0","all","1","9617","0"
"080918","12:54:53","258628027","606371456","4.0.10.0","1","3","end_of_study_questions_ifirst","demand","0","0","0","0","0","0","My responses were genuinely based on whether I was influenced or not","1","5731","0"
"080918","12:54:53","258628027","606371456","4.0.10.0","1","4","end_of_study_questions_ifirst","influence_general","0","0","0","0","0","0","most","1","6398","0"
"080918","12:54:53","258628027","606371456","4.0.10.0","1","5","end_of_study_questions_ifirst","intentionality","0","0","0","0","0","0","more than half","1","4847","0"
"080918","12:54:53","258628027","606371456","4.0.10.0","1","6","end_of_study_questions_ifirst","unintentionality","0","0","0","0","0","0","most","1","3983","0"
"080918","12:54:53","258628027","606371456","4.0.10.0","1","7","end_of_study_questions_ifirst","self_exclusion_1","0","0","0","0","0","0","Yes, use my data","1","10031","0"
"080918","12:54:53","258628027","606371456","4.0.10.0","1","7","end_of_study_questions_ifirst","self_exclusion_1other","0","0","0","0","0","0","","1","10031","0"
"080918","10:59:37","990143466","646335740","4.0.10.0","1","1","end_of_study_questions_ifirst","politics","0","0","0","0","0","0","very democratic","1","6801","0"
"080918","10:59:37","990143466","646335740","4.0.10.0","1","2","end_of_study_questions_ifirst","awareness","0","0","0","0","0","0","all","1","22582","0"
"080918","10:59:37","990143466","646335740","4.0.10.0","1","3","end_of_study_questions_ifirst","demand","0","0","0","0","0","0","My responses were genuinely based on whether I was influenced or not","1","11556","0"
"080918","10:59:37","990143466","646335740","4.0.10.0","1","4","end_of_study_questions_ifirst","influence_general","0","0","0","0","0","0","none","1","5244","0"
"080918","10:59:37","990143466","646335740","4.0.10.0","1","5","end_of_study_questions_ifirst","intentionality","0","0","0","0","0","0","none","1","5111","0"
"080918","10:59:37","990143466","646335740","4.0.10.0","1","6","end_of_study_questions_ifirst","unintentionality","0","0","0","0","0","0","none","1","9391","0"
"080918","10:59:37","990143466","646335740","4.0.10.0","1","7","end_of_study_questions_ifirst","self_exclusion_1","0","0","0","0","0","0","Yes, use my data","1","15869","0"
"080918","10:59:37","990143466","646335740","4.0.10.0","1","7","end_of_study_questions_ifirst","self_exclusion_1other","0","0","0","0","0","0","","1","15869","0"
"080918","13:59:45","202776299","377181951","4.0.10.0","1","1","end_of_study_questions_ufirst","politics","0","0","0","0","0","0","a little democratic","1","6745","0"
"080918","13:59:45","202776299","377181951","4.0.10.0","1","2","end_of_study_questions_ufirst","awareness","0","0","0","0","0","0","all","1","23573","0"
"080918","13:59:45","202776299","377181951","4.0.10.0","1","3","end_of_study_questions_ufirst","demand","0","0","0","0","0","0","My responses were genuinely based on whether I was influenced or not","1","12298","0"
"080918","13:59:45","202776299","377181951","4.0.10.0","1","4","end_of_study_questions_ufirst","influence_general","0","0","0","0","0","0","about half","1","6893","0"
"080918","13:59:45","202776299","377181951","4.0.10.0","1","5","end_of_study_questions_ufirst","unintentionality","0","0","0","0","0","0","less than half","1","7646","0"
"080918","13:59:45","202776299","377181951","4.0.10.0","1","6","end_of_study_questions_ufirst","intentionality","0","0","0","0","0","0","none","1","13179","0"
"080918","13:59:45","202776299","377181951","4.0.10.0","1","7","end_of_study_questions_ufirst","self_exclusion_1","0","0","0","0","0","0","Yes, use my data","1","3910","0"
"080918","13:59:45","202776299","377181951","4.0.10.0","1","7","end_of_study_questions_ufirst","self_exclusion_1other","0","0","0","0","0","0","","1","3910","0"
"080918","13:02:54","398029079","570775037","4.0.10.0","1","1","end_of_study_questions_ufirst","politics","0","0","0","0","0","0","a little democratic","1","12939","0"
"080918","13:02:54","398029079","570775037","4.0.10.0","1","2","end_of_study_questions_ufirst","awareness","0","0","0","0","0","0","all","1","11169","0"
"080918","13:02:54","398029079","570775037","4.0.10.0","1","3","end_of_study_questions_ufirst","demand","0","0","0","0","0","0","My responses were genuinely based on whether I was influenced or not","1","9616","0"
"080918","13:02:54","398029079","570775037","4.0.10.0","1","4","end_of_study_questions_ufirst","influence_general","0","0","0","0","0","0","a few","1","6248","0"
"080918","13:02:54","398029079","570775037","4.0.10.0","1","5","end_of_study_questions_ufirst","unintentionality","0","0","0","0","0","0","a few","1","13686","0"
"080918","13:02:54","398029079","570775037","4.0.10.0","1","6","end_of_study_questions_ufirst","intentionality","0","0","0","0","0","0","none","1","6181","0"
"080918","13:02:54","398029079","570775037","4.0.10.0","1","7","end_of_study_questions_ufirst","self_exclusion_1","0","0","0","0","0","0","Yes, use my data","1","4774","0"
"080918","13:02:54","398029079","570775037","4.0.10.0","1","7","end_of_study_questions_ufirst","self_exclusion_1other","0","0","0","0","0","0","","1","4774","0"
"080918","12:02:53","19568349","953519607","4.0.10.0","1","1","end_of_study_questions_ufirst","politics","0","0","0","0","0","0","a little democratic","1","4384","0"
"080918","12:02:53","19568349","953519607","4.0.10.0","1","2","end_of_study_questions_ufirst","awareness","0","0","0","0","0","0","all","1","29369","0"
"080918","12:02:53","19568349","953519607","4.0.10.0","1","3","end_of_study_questions_ufirst","demand","0","0","0","0","0","0","I'm not sure or don't know why I responded the way I did","1","16786","0"
"080918","12:02:53","19568349","953519607","4.0.10.0","1","4","end_of_study_questions_ufirst","influence_general","0","0","0","0","0","0","less than half","1","5479","0"
"080918","12:02:53","19568349","953519607","4.0.10.0","1","5","end_of_study_questions_ufirst","unintentionality","0","0","0","0","0","0","a few","1","8373","0"
"080918","12:02:53","19568349","953519607","4.0.10.0","1","6","end_of_study_questions_ufirst","intentionality","0","0","0","0","0","0","a few","1","8829","0"
"080918","12:02:53","19568349","953519607","4.0.10.0","1","7","end_of_study_questions_ufirst","self_exclusion_1","0","0","0","0","0","0","Yes, use my data","1","8003","0"
"080918","12:02:53","19568349","953519607","4.0.10.0","1","7","end_of_study_questions_ufirst","self_exclusion_1other","0","0","0","0","0","0","","1","8003","0"
"080918","13:04:22","589177735","379626386","4.0.10.0","1","1","end_of_study_questions_ifirst","politics","0","0","0","0","0","0","somewhat republican","1","8165","0"
"080918","13:04:22","589177735","379626386","4.0.10.0","1","2","end_of_study_questions_ifirst","awareness","0","0","0","0","0","0","all","1","18738","0"
"080918","13:04:22","589177735","379626386","4.0.10.0","1","3","end_of_study_questions_ifirst","demand","0","0","0","0","0","0","My responses were based on what I thought the researcher wanted me to say","1","40558","0"
"080918","13:04:22","589177735","379626386","4.0.10.0","1","4","end_of_study_questions_ifirst","influence_general","0","0","0","0","0","0","less than half","1","6071","0"
"080918","13:04:22","589177735","379626386","4.0.10.0","1","5","end_of_study_questions_ifirst","intentionality","0","0","0","0","0","0","less than half","1","6184","0"
"080918","13:04:22","589177735","379626386","4.0.10.0","1","6","end_of_study_questions_ifirst","unintentionality","0","0","0","0","0","0","a few","1","11919","0"
"080918","13:04:22","589177735","379626386","4.0.10.0","1","7","end_of_study_questions_ifirst","self_exclusion_1","0","0","0","0","0","0","Yes, use my data","1","8002","0"
"080918","13:04:22","589177735","379626386","4.0.10.0","1","7","end_of_study_questions_ifirst","self_exclusion_1other","0","0","0","0","0","0","","1","8002","0"
"080918","11:08:30","810316050","845815607","4.0.10.0","1","1","end_of_study_questions_ufirst","politics","0","0","0","0","0","0","neither/moderate","1","3433","0"
"080918","11:08:30","810316050","845815607","4.0.10.0","1","2","end_of_study_questions_ufirst","awareness","0","0","0","0","0","0","all","1","18482","0"
"080918","11:08:30","810316050","845815607","4.0.10.0","1","3","end_of_study_questions_ufirst","demand","0","0","0","0","0","0","My responses were genuinely based on whether I was influenced or not","1","7382","0"
"080918","11:08:30","810316050","845815607","4.0.10.0","1","4","end_of_study_questions_ufirst","influence_general","0","0","0","0","0","0","less than half","1","9898","0"
"080918","11:08:30","810316050","845815607","4.0.10.0","1","5","end_of_study_questions_ufirst","unintentionality","0","0","0","0","0","0","less than half","1","5554","0"
"080918","11:08:30","810316050","845815607","4.0.10.0","1","6","end_of_study_questions_ufirst","intentionality","0","0","0","0","0","0","more than half","1","7170","0"
"080918","11:08:30","810316050","845815607","4.0.10.0","1","7","end_of_study_questions_ufirst","self_exclusion_1","0","0","0","0","0","0","Yes, use my data","1","2670","0"
"080918","11:08:30","810316050","845815607","4.0.10.0","1","7","end_of_study_questions_ufirst","self_exclusion_1other","0","0","0","0","0","0","","1","2670","0"
"080918","20:08:57","543585022","398176801","4.0.10.0","1","1","end_of_study_questions_ufirst","politics","0","0","0","0","0","0","somewhat democratic","1","18421","0"
"080918","20:08:57","543585022","398176801","4.0.10.0","1","2","end_of_study_questions_ufirst","awareness","0","0","0","0","0","0","all","1","23407","0"
"080918","20:08:57","543585022","398176801","4.0.10.0","1","3","end_of_study_questions_ufirst","demand","0","0","0","0","0","0","My responses were genuinely based on whether I was influenced or not","1","13585","0"
"080918","20:08:57","543585022","398176801","4.0.10.0","1","4","end_of_study_questions_ufirst","influence_general","0","0","0","0","0","0","less than half","1","8148","0"
"080918","20:08:57","543585022","398176801","4.0.10.0","1","5","end_of_study_questions_ufirst","unintentionality","0","0","0","0","0","0","less than half","1","10680","0"
"080918","20:08:57","543585022","398176801","4.0.10.0","1","6","end_of_study_questions_ufirst","intentionality","0","0","0","0","0","0","none","1","23300","0"
"080918","20:08:57","543585022","398176801","4.0.10.0","1","7","end_of_study_questions_ufirst","self_exclusion_1","0","0","0","0","0","0","Yes, use my data","1","9720","0"
"080918","20:08:57","543585022","398176801","4.0.10.0","1","7","end_of_study_questions_ufirst","self_exclusion_1other","0","0","0","0","0","0","","1","9720","0"
"080918","14:10:09","134204915","143278609","4.0.10.0","1","1","end_of_study_questions_ufirst","politics","0","0","0","0","0","0","very democratic","1","3822","0"
"080918","14:10:09","134204915","143278609","4.0.10.0","1","2","end_of_study_questions_ufirst","awareness","0","0","0","0","0","0","all","1","15312","0"
"080918","14:10:09","134204915","143278609","4.0.10.0","1","3","end_of_study_questions_ufirst","demand","0","0","0","0","0","0","My responses were genuinely based on whether I was influenced or not","1","14661","0"
"080918","14:10:09","134204915","143278609","4.0.10.0","1","4","end_of_study_questions_ufirst","influence_general","0","0","0","0","0","0","most","1","11774","0"
"080918","14:10:09","134204915","143278609","4.0.10.0","1","5","end_of_study_questions_ufirst","unintentionality","0","0","0","0","0","0","most","1","7794","0"
"080918","14:10:09","134204915","143278609","4.0.10.0","1","6","end_of_study_questions_ufirst","intentionality","0","0","0","0","0","0","most","1","10594","0"
"080918","14:10:09","134204915","143278609","4.0.10.0","1","7","end_of_study_questions_ufirst","self_exclusion_1","0","0","0","0","0","0","Yes, use my data","1","8118","0"
"080918","14:10:09","134204915","143278609","4.0.10.0","1","7","end_of_study_questions_ufirst","self_exclusion_1other","0","0","0","0","0","0","","1","8118","0"
"080918","14:11:30","838842471","343702216","4.0.10.0","1","1","end_of_study_questions_ifirst","politics","0","0","0","0","0","0","very democratic","1","5463","0"
"080918","14:11:30","838842471","343702216","4.0.10.0","1","2","end_of_study_questions_ifirst","awareness","0","0","0","0","0","0","all","1","14850","0"
"080918","14:11:30","838842471","343702216","4.0.10.0","1","3","end_of_study_questions_ifirst","demand","0","0","0","0","0","0","My responses were genuinely based on whether I was influenced or not","1","8134","0"
"080918","14:11:30","838842471","343702216","4.0.10.0","1","4","end_of_study_questions_ifirst","influence_general","0","0","0","0","0","0","most","1","13471","0"
"080918","14:11:30","838842471","343702216","4.0.10.0","1","5","end_of_study_questions_ifirst","intentionality","0","0","0","0","0","0","a few","1","6858","0"
"080918","14:11:30","838842471","343702216","4.0.10.0","1","6","end_of_study_questions_ifirst","unintentionality","0","0","0","0","0","0","most","1","6582","0"
"080918","14:11:30","838842471","343702216","4.0.10.0","1","7","end_of_study_questions_ifirst","self_exclusion_1","0","0","0","0","0","0","Yes, use my data","1","9300","0"
"080918","14:11:30","838842471","343702216","4.0.10.0","1","7","end_of_study_questions_ifirst","self_exclusion_1other","0","0","0","0","0","0","","1","9300","0"
"080918","13:13:12","201360590","526660660","4.0.10.0","1","1","end_of_study_questions_ifirst","politics","0","0","0","0","0","0","a little democratic","1","6274","0"
"080918","13:13:12","201360590","526660660","4.0.10.0","1","2","end_of_study_questions_ifirst","awareness","0","0","0","0","0","0","all","1","22196","0"
"080918","13:13:12","201360590","526660660","4.0.10.0","1","3","end_of_study_questions_ifirst","demand","0","0","0","0","0","0","My responses were genuinely based on whether I was influenced or not","1","9966","0"
"080918","13:13:12","201360590","526660660","4.0.10.0","1","4","end_of_study_questions_ifirst","influence_general","0","0","0","0","0","0","more than half","1","7577","0"
"080918","13:13:12","201360590","526660660","4.0.10.0","1","5","end_of_study_questions_ifirst","intentionality","0","0","0","0","0","0","a few","1","7291","0"
"080918","13:13:12","201360590","526660660","4.0.10.0","1","6","end_of_study_questions_ifirst","unintentionality","0","0","0","0","0","0","most","1","7520","0"
"080918","13:13:12","201360590","526660660","4.0.10.0","1","7","end_of_study_questions_ifirst","self_exclusion_1","0","0","0","0","0","0","Yes, use my data","1","6134","0"
"080918","13:13:12","201360590","526660660","4.0.10.0","1","7","end_of_study_questions_ifirst","self_exclusion_1other","0","0","0","0","0","0","","1","6134","0"
"080918","13:13:07","50705835","593163233","4.0.10.0","1","1","end_of_study_questions_ufirst","politics","0","0","0","0","0","0","somewhat democratic","1","6133","0"
"080918","13:13:07","50705835","593163233","4.0.10.0","1","2","end_of_study_questions_ufirst","awareness","0","0","0","0","0","0","all","1","16407","0"
"080918","13:13:07","50705835","593163233","4.0.10.0","1","3","end_of_study_questions_ufirst","demand","0","0","0","0","0","0","My responses were genuinely based on whether I was influenced or not","1","14146","0"
"080918","13:13:07","50705835","593163233","4.0.10.0","1","4","end_of_study_questions_ufirst","influence_general","0","0","0","0","0","0","a few","1","16475","0"
"080918","13:13:07","50705835","593163233","4.0.10.0","1","5","end_of_study_questions_ufirst","unintentionality","0","0","0","0","0","0","a few","1","8030","0"
"080918","13:13:07","50705835","593163233","4.0.10.0","1","6","end_of_study_questions_ufirst","intentionality","0","0","0","0","0","0","none","1","7099","0"
"080918","13:13:07","50705835","593163233","4.0.10.0","1","7","end_of_study_questions_ufirst","self_exclusion_1","0","0","0","0","0","0","Yes, use my data","1","13069","0"
"080918","13:13:07","50705835","593163233","4.0.10.0","1","7","end_of_study_questions_ufirst","self_exclusion_1other","0","0","0","0","0","0","","1","13069","0"
"080918","13:15:26","522280366","648001718","4.0.10.0","1","1","end_of_study_questions_ifirst","politics","0","0","0","0","0","0","very democratic","1","6218","0"
"080918","13:15:26","522280366","648001718","4.0.10.0","1","2","end_of_study_questions_ifirst","awareness","0","0","0","0","0","0","all","1","20322","0"
"080918","13:15:26","522280366","648001718","4.0.10.0","1","3","end_of_study_questions_ifirst","demand","0","0","0","0","0","0","My responses were genuinely based on whether I was influenced or not","1","24955","0"
"080918","13:15:26","522280366","648001718","4.0.10.0","1","4","end_of_study_questions_ifirst","influence_general","0","0","0","0","0","0","most","1","9206","0"
"080918","13:15:26","522280366","648001718","4.0.10.0","1","5","end_of_study_questions_ifirst","intentionality","0","0","0","0","0","0","about half","1","16884","0"
"080918","13:15:26","522280366","648001718","4.0.10.0","1","6","end_of_study_questions_ifirst","unintentionality","0","0","0","0","0","0","about half","1","9082","0"
"080918","13:15:26","522280366","648001718","4.0.10.0","1","7","end_of_study_questions_ifirst","self_exclusion_1","0","0","0","0","0","0","Yes, use my data","1","26461","0"
"080918","13:15:26","522280366","648001718","4.0.10.0","1","7","end_of_study_questions_ifirst","self_exclusion_1other","0","0","0","0","0","0","","1","26461","0"
"080918","11:17:44","4272576","354555257","4.0.10.0","1","1","end_of_study_questions_ufirst","politics","0","0","0","0","0","0","very democratic","1","7855","0"
"080918","11:17:44","4272576","354555257","4.0.10.0","1","2","end_of_study_questions_ufirst","awareness","0","0","0","0","0","0","all","1","19617","0"
"080918","11:17:44","4272576","354555257","4.0.10.0","1","3","end_of_study_questions_ufirst","demand","0","0","0","0","0","0","My responses were genuinely based on whether I was influenced or not","1","12381","0"
"080918","11:17:44","4272576","354555257","4.0.10.0","1","4","end_of_study_questions_ufirst","influence_general","0","0","0","0","0","0","a few","1","9286","0"
"080918","11:17:44","4272576","354555257","4.0.10.0","1","5","end_of_study_questions_ufirst","unintentionality","0","0","0","0","0","0","a few","1","6097","0"
"080918","11:17:44","4272576","354555257","4.0.10.0","1","6","end_of_study_questions_ufirst","intentionality","0","0","0","0","0","0","a few","1","5969","0"
"080918","11:17:44","4272576","354555257","4.0.10.0","1","7","end_of_study_questions_ufirst","self_exclusion_1","0","0","0","0","0","0","Yes, use my data","1","15189","0"
"080918","11:17:44","4272576","354555257","4.0.10.0","1","7","end_of_study_questions_ufirst","self_exclusion_1other","0","0","0","0","0","0","","1","15189","0"
