date,time,subject,blockcode,blocknum,trialcode,trialnum,values.primestim,values.targetstim,correct,latency,trial.prime_obama.totalpercentcorrect,trial.prime_trump.totalpercentcorrect
80918,17:22:40,743970945,practice,1,prime_trump_practice,4,0,0,0,2405,0,0
80918,17:22:40,743970945,practice,1,prime_trump_practice,5,0,0,0,1377,0,0
80918,17:22:40,743970945,practice,1,prime_obama_practice,6,0,0,0,1527,0,0
80918,17:22:40,743970945,practice,1,prime_obama_practice,7,0,0,1,972,0,0
80918,17:22:40,743970945,practice,1,prime_obama_practice,8,0,0,0,1022,0,0
80918,17:22:40,743970945,practice,1,prime_trump_practice,9,0,0,0,1608,0,0
80918,17:22:40,743970945,practice,1,prime_trump_practice,10,0,0,1,981,0,0
80918,17:22:40,743970945,practice,1,prime_obama_practice,11,0,0,1,1042,0,0
80918,17:22:40,743970945,practice,1,prime_obama_practice,12,0,0,0,788,0,0
80918,17:22:40,743970945,practice,1,prime_trump_practice,13,0,0,1,734,0,0
80918,17:22:40,743970945,test,2,prime_trump,2,3,19,0,772,0,0
80918,17:22:40,743970945,test,2,prime_trump,3,2,33,0,568,0,0
80918,17:22:40,743970945,test,2,prime_obama,4,5,47,1,408,100,0
80918,17:22:40,743970945,test,2,prime_trump,5,1,5,0,655,100,0
80918,17:22:40,743970945,test,2,prime_trump,6,3,55,0,474,100,0
80918,17:22:40,743970945,test,2,prime_obama,7,2,42,1,1117,100,0
80918,11:49:20,347524095,practice,1,prime_trump_practice,4,0,0,0,894,0,0
80918,11:49:20,347524095,practice,1,prime_obama_practice,5,0,0,1,599,0,0
80918,11:49:20,347524095,practice,1,prime_trump_practice,6,0,0,0,500,0,0
80918,11:49:20,347524095,practice,1,prime_trump_practice,7,0,0,0,381,0,0
80918,11:49:20,347524095,practice,1,prime_obama_practice,8,0,0,1,891,0,0
80918,11:49:20,347524095,practice,1,prime_obama_practice,9,0,0,1,478,0,0
80918,11:49:20,347524095,practice,1,prime_obama_practice,10,0,0,0,496,0,0
80918,11:49:20,347524095,practice,1,prime_trump_practice,11,0,0,0,490,0,0
80918,11:49:20,347524095,practice,1,prime_obama_practice,12,0,0,1,1188,0,0
80918,11:49:20,347524095,practice,1,prime_trump_practice,13,0,0,0,546,0,0
80918,11:49:20,347524095,test,2,prime_trump,2,3,3,0,515,0,0
80918,11:49:20,347524095,test,2,prime_obama,3,3,53,0,828,0,0
80918,11:49:20,347524095,test,2,prime_trump,4,4,28,0,920,0,0
80918,11:49:20,347524095,test,2,prime_trump,5,3,37,0,809,0,0
80918,11:49:20,347524095,test,2,prime_obama,6,3,48,1,710,50,0
80918,11:49:20,347524095,test,2,prime_obama,7,5,27,1,464,66,0
80918,11:49:20,347524095,test,2,prime_obama,8,6,12,0,915,50,0
80918,11:49:20,347524095,test,2,prime_trump,9,1,36,1,1533,50,25
80918,11:49:20,347524095,test,2,prime_obama,10,1,13,0,1084,40,25
80918,11:49:20,347524095,test,2,prime_obama,11,4,58,0,670,33,25
80918,11:49:20,347524095,test,2,prime_trump,12,2,22,0,768,33,20
80918,11:49:20,347524095,test,2,prime_obama,13,2,65,1,1183,42,20
80918,11:49:20,347524095,test,2,prime_obama,14,6,57,0,1157,37,20
80918,11:49:20,347524095,test,2,prime_trump,15,5,29,0,1149,37,16
80918,11:49:20,347524095,test,2,prime_trump,16,6,10,0,780,37,14
80918,11:49:20,347524095,test,2,prime_trump,17,5,4,0,890,37,12
80918,11:49:20,347524095,test,2,prime_trump,18,1,46,1,1268,37,22
80918,11:49:20,347524095,test,2,prime_obama,19,3,55,1,1127,44,22
80918,11:49:20,347524095,test,2,prime_trump,20,3,21,0,640,44,20
80918,11:49:20,347524095,test,2,prime_obama,21,2,33,0,708,40,20
80918,11:49:20,347524095,test,2,prime_trump,22,2,15,0,461,40,18
80918,11:49:20,347524095,test,2,prime_obama,23,4,16,1,810,45,18
80918,11:49:20,347524095,test,2,prime_obama,24,5,49,1,534,50,18
80918,11:49:20,347524095,test,2,prime_trump,25,6,47,0,942,50,16
80918,11:49:20,347524095,test,2,prime_obama,26,1,30,0,750,46,16
80918,11:49:20,347524095,test,2,prime_trump,27,4,51,0,557,46,15
80918,11:49:20,347524095,test,2,prime_obama,28,5,38,1,508,50,15
80918,11:49:20,347524095,test,2,prime_trump,29,3,72,0,606,50,14
80918,11:49:20,347524095,test,2,prime_trump,30,1,70,0,499,50,13
80918,11:49:20,347524095,test,2,prime_obama,31,4,2,1,844,53,13
80918,11:49:20,347524095,test,2,prime_trump,32,6,44,0,968,53,12
80918,11:49:20,347524095,test,2,prime_trump,33,4,14,1,2559,53,17
80918,11:49:20,347524095,test,2,prime_trump,34,5,41,0,558,53,16
80918,11:49:20,347524095,test,2,prime_trump,35,2,63,0,909,53,15
80918,11:49:20,347524095,test,2,prime_trump,36,5,7,1,1048,53,20
80918,11:49:20,347524095,test,2,prime_obama,37,1,35,1,617,56,20
80918,11:49:20,347524095,test,2,prime_obama,38,6,61,0,895,52,20
80918,11:49:20,347524095,test,2,prime_trump,39,3,50,0,1121,52,19
80918,11:49:20,347524095,test,2,prime_trump,40,1,56,0,1034,52,18
80918,11:49:20,347524095,test,2,prime_trump,41,4,66,1,958,52,21
80918,11:49:20,347524095,test,2,prime_obama,42,3,54,1,541,55,21
80918,11:49:20,347524095,test,2,prime_obama,43,2,60,0,846,52,21
80918,11:49:20,347524095,test,2,prime_obama,44,4,6,0,1144,50,21
80918,11:49:20,347524095,test,2,prime_obama,45,3,24,1,818,52,21
80918,11:49:20,347524095,test,2,prime_trump,46,2,59,0,607,52,20
80918,11:49:20,347524095,test,2,prime_trump,47,6,18,1,1052,52,24
80918,11:49:20,347524095,test,2,prime_obama,48,2,40,0,1102,50,24
80918,11:49:20,347524095,test,2,prime_obama,49,5,20,1,888,52,24
80918,11:49:20,347524095,test,2,prime_trump,50,1,43,0,450,52,23
80918,11:49:20,347524095,test,2,prime_trump,51,5,1,0,1109,52,22
80918,11:49:20,347524095,test,2,prime_obama,52,1,71,1,630,54,22
80918,11:49:20,347524095,test,2,prime_trump,53,6,52,0,707,54,21
80918,11:49:20,347524095,test,2,prime_trump,54,4,69,1,2044,54,24
80918,11:49:20,347524095,test,2,prime_trump,55,3,32,0,688,54,23
80918,11:49:20,347524095,test,2,prime_obama,56,6,67,1,850,56,23
80918,11:49:20,347524095,test,2,prime_trump,57,2,42,0,806,56,22
80918,11:49:20,347524095,test,2,prime_obama,58,2,9,1,995,57,22
80918,11:49:20,347524095,test,2,prime_trump,59,6,62,1,1025,57,25
80918,11:49:20,347524095,test,2,prime_obama,60,3,5,0,934,55,25
80918,11:49:20,347524095,test,2,prime_trump,61,5,26,0,702,55,24
80918,11:49:20,347524095,test,2,prime_obama,62,5,11,1,975,57,24
80918,11:49:20,347524095,test,2,prime_obama,63,1,31,0,886,55,24
80918,11:49:20,347524095,test,2,prime_obama,64,6,2,1,960,56,24
80918,11:49:20,347524095,test,2,prime_obama,65,4,4,0,768,54,24
80918,11:49:20,347524095,test,2,prime_trump,66,2,29,0,551,54,23
80918,11:49:20,347524095,test,2,prime_trump,67,3,58,0,965,54,22
80918,11:49:20,347524095,test,2,prime_obama,68,1,31,0,1084,53,22
80918,11:49:20,347524095,test,2,prime_obama,69,2,61,1,1046,54,22
80918,11:49:20,347524095,test,2,prime_obama,70,3,6,1,755,55,22
80918,11:49:20,347524095,test,2,prime_trump,71,4,1,0,842,55,22
80918,11:49:20,347524095,test,2,prime_obama,72,4,59,0,1573,54,22
80918,11:49:20,347524095,test,2,prime_obama,73,6,43,1,1380,55,22
80918,09:16:28,77268698,practice,1,prime_trump_practice,4,0,0,0,1523,0,0
80918,09:16:28,77268698,practice,1,prime_trump_practice,5,0,0,0,524,0,0
80918,09:16:28,77268698,practice,1,prime_trump_practice,6,0,0,1,1460,0,0
80918,09:16:28,77268698,practice,1,prime_trump_practice,7,0,0,1,656,0,0
80918,09:16:28,77268698,practice,1,prime_obama_practice,8,0,0,0,491,0,0
80918,09:16:28,77268698,practice,1,prime_obama_practice,9,0,0,1,373,0,0
80918,09:16:28,77268698,practice,1,prime_obama_practice,10,0,0,0,419,0,0
80918,09:16:28,77268698,practice,1,prime_obama_practice,11,0,0,0,776,0,0
80918,09:16:28,77268698,practice,1,prime_trump_practice,12,0,0,1,431,0,0
80918,09:16:28,77268698,practice,1,prime_obama_practice,13,0,0,1,627,0,0
80918,09:16:28,77268698,test,2,prime_trump,2,1,32,0,471,0,0
80918,09:16:28,77268698,test,2,prime_obama,3,1,38,1,602,100,0
80918,09:16:28,77268698,test,2,prime_obama,4,6,36,0,535,50,0
80918,09:16:28,77268698,test,2,prime_trump,5,6,2,0,455,50,0
80918,09:16:28,77268698,test,2,prime_trump,6,3,64,0,450,50,0
80918,09:16:28,77268698,test,2,prime_obama,7,2,52,1,238,66,0
80918,09:16:28,77268698,test,2,prime_obama,8,5,61,1,346,75,0
80918,09:16:28,77268698,test,2,prime_trump,9,1,54,1,338,75,25
80918,09:16:28,77268698,test,2,prime_obama,10,3,1,0,442,60,25
80918,09:16:28,77268698,test,2,prime_obama,11,1,69,0,710,50,25
80918,09:16:28,77268698,test,2,prime_trump,12,4,29,0,407,50,20
80918,09:16:28,77268698,test,2,prime_obama,13,4,49,1,204,57,20
80918,09:16:28,77268698,test,2,prime_trump,14,5,40,1,210,57,33
80918,09:16:28,77268698,test,2,prime_obama,15,6,43,0,543,50,33
80918,09:16:28,77268698,test,2,prime_trump,16,2,18,0,519,50,28
80918,09:16:28,77268698,test,2,prime_trump,17,4,7,1,175,50,37
80918,09:16:28,77268698,test,2,prime_trump,18,5,26,1,214,50,44
80918,09:16:28,77268698,test,2,prime_obama,19,5,50,0,67,44,44
80918,09:16:28,77268698,test,2,prime_obama,20,2,19,1,102,50,44
80918,09:16:28,77268698,test,2,prime_obama,21,4,23,0,407,45,44
80918,09:16:28,77268698,test,2,prime_obama,22,1,24,0,549,41,44
80918,09:16:28,77268698,test,2,prime_obama,23,3,10,1,333,46,44
80918,09:16:28,77268698,test,2,prime_trump,24,1,48,1,245,46,50
80918,09:16:28,77268698,test,2,prime_trump,25,2,21,0,217,46,45
80918,09:16:28,77268698,test,2,prime_trump,26,3,70,1,125,46,50
80918,09:16:28,77268698,test,2,prime_obama,27,1,28,0,278,42,50
80918,09:16:28,77268698,test,2,prime_trump,28,6,72,1,96,42,53
80918,09:16:28,77268698,test,2,prime_trump,29,5,66,0,291,42,50
80918,09:16:28,77268698,test,2,prime_trump,30,2,46,1,252,42,53
80918,09:16:28,77268698,test,2,prime_obama,31,3,60,0,336,40,53
80918,09:16:28,77268698,test,2,prime_obama,32,5,45,0,168,37,53
80918,09:16:28,77268698,test,2,prime_trump,33,1,17,0,206,37,50
80918,09:16:28,77268698,test,2,prime_obama,34,4,42,1,188,41,50
80918,09:16:28,77268698,test,2,prime_trump,35,3,9,1,162,41,52
80918,09:16:28,77268698,test,2,prime_obama,36,6,30,1,145,44,52
80918,09:16:28,77268698,test,2,prime_obama,37,2,65,1,161,47,52
80918,09:16:28,77268698,test,2,prime_obama,38,4,59,0,272,45,52
80918,09:16:28,77268698,test,2,prime_obama,39,5,11,1,171,47,52
80918,09:16:28,77268698,test,2,prime_trump,40,4,58,1,178,47,55
80918,09:16:28,77268698,test,2,prime_trump,41,6,51,1,208,47,57
80918,09:16:28,77268698,test,2,prime_obama,42,2,62,0,221,45,57
80918,09:16:28,77268698,test,2,prime_obama,43,6,4,0,202,43,57
80918,09:16:28,77268698,test,2,prime_obama,44,3,68,0,39,41,57
80918,09:16:28,77268698,test,2,prime_trump,45,3,20,0,227,41,55
80918,09:16:28,77268698,test,2,prime_obama,46,1,47,1,256,44,55
80918,09:16:28,77268698,test,2,prime_obama,47,2,6,1,179,46,55
80918,09:16:28,77268698,test,2,prime_trump,48,6,16,1,290,46,57
80918,09:16:28,77268698,test,2,prime_obama,49,1,56,1,316,48,57
80918,09:16:28,77268698,test,2,prime_trump,50,1,3,0,285,48,54
80918,09:16:28,77268698,test,2,prime_trump,51,5,67,1,335,48,56
80918,09:16:28,77268698,test,2,prime_obama,52,4,31,1,207,50,56
80918,09:16:28,77268698,test,2,prime_obama,53,6,55,0,156,48,56
80918,09:16:28,77268698,test,2,prime_trump,54,4,8,0,251,48,54
80918,09:16:28,77268698,test,2,prime_obama,55,5,39,0,151,46,54
80918,09:16:28,77268698,test,2,prime_trump,56,2,63,0,174,46,52
80918,09:16:28,77268698,test,2,prime_obama,57,3,15,1,220,48,52
80918,09:16:28,77268698,test,2,prime_trump,58,3,33,1,273,48,53
80918,09:16:28,77268698,test,2,prime_trump,59,2,44,0,348,48,51
80918,09:16:28,77268698,test,2,prime_trump,60,1,41,0,300,48,50
80918,09:16:28,77268698,test,2,prime_trump,61,4,14,1,277,48,51
80918,09:16:28,77268698,test,2,prime_trump,62,6,71,0,272,48,50
80918,09:16:28,77268698,test,2,prime_trump,63,5,35,1,362,48,51
80918,09:16:28,77268698,test,2,prime_trump,64,2,38,0,298,48,50
80918,09:16:28,77268698,test,2,prime_obama,65,5,3,0,348,46,50
80918,09:16:28,77268698,test,2,prime_trump,66,6,7,0,395,46,48
80918,09:16:28,77268698,test,2,prime_obama,67,6,14,0,481,45,48
80918,09:16:28,77268698,test,2,prime_trump,68,1,28,1,124,45,50
80918,09:16:28,77268698,test,2,prime_trump,69,5,45,1,645,45,51
80918,09:16:28,77268698,test,2,prime_obama,70,4,72,0,361,44,51
80918,09:16:28,77268698,test,2,prime_obama,71,3,55,1,272,45,51
80918,09:16:28,77268698,test,2,prime_trump,72,4,39,1,379,45,52
80918,09:16:28,77268698,test,2,prime_obama,73,1,56,0,497,44,52
80918,12:27:07,408892577,practice,1,prime_obama_practice,4,0,0,0,1431,0,0
80918,12:27:07,408892577,practice,1,prime_obama_practice,5,0,0,0,1259,0,0
80918,12:27:07,408892577,practice,1,prime_trump_practice,6,0,0,1,615,0,0
80918,12:27:07,408892577,practice,1,prime_obama_practice,7,0,0,0,404,0,0
80918,12:27:07,408892577,practice,1,prime_trump_practice,8,0,0,1,633,0,0
80918,12:27:07,408892577,practice,1,prime_trump_practice,9,0,0,1,365,0,0
80918,12:27:07,408892577,practice,1,prime_obama_practice,10,0,0,0,308,0,0
80918,12:27:07,408892577,practice,1,prime_trump_practice,11,0,0,1,270,0,0
80918,12:27:07,408892577,practice,1,prime_obama_practice,12,0,0,0,304,0,0
80918,12:27:07,408892577,practice,1,prime_trump_practice,13,0,0,1,226,0,0
80918,12:27:07,408892577,test,2,prime_trump,2,3,17,1,339,0,100
80918,12:27:07,408892577,test,2,prime_trump,3,3,67,1,235,0,100
80918,12:27:07,408892577,test,2,prime_obama,4,5,20,0,159,0,100
80918,12:27:07,408892577,test,2,prime_obama,5,6,71,0,206,0,100
80918,12:27:07,408892577,test,2,prime_trump,6,1,72,1,179,0,100
80918,12:27:07,408892577,test,2,prime_obama,7,1,14,0,210,0,100
80918,12:27:07,408892577,test,2,prime_trump,8,4,36,1,183,0,100
80918,12:27:07,408892577,test,2,prime_trump,9,2,21,1,165,0,100
80918,12:27:07,408892577,test,2,prime_trump,10,6,51,1,237,0,100
80918,12:27:07,408892577,test,2,prime_trump,11,5,62,1,201,0,100
80918,12:27:07,408892577,test,2,prime_trump,12,3,55,1,150,0,100
80918,12:27:07,408892577,test,2,prime_obama,13,5,40,0,197,0,100
80918,12:27:07,408892577,test,2,prime_obama,14,3,60,0,203,0,100
80918,12:27:07,408892577,test,2,prime_obama,15,4,33,0,256,0,100
80918,12:27:07,408892577,test,2,prime_obama,16,2,25,0,236,0,100
80918,12:27:07,408892577,test,2,prime_obama,17,5,28,0,192,0,100
80918,12:27:07,408892577,test,2,prime_obama,18,6,50,0,102,0,100
80918,12:27:07,408892577,test,2,prime_trump,19,1,26,0,103,0,88
80918,12:27:07,408892577,test,2,prime_trump,20,4,5,1,176,0,90
80918,12:27:07,408892577,test,2,prime_obama,21,1,2,0,199,0,90
80918,12:27:07,408892577,test,2,prime_trump,22,5,29,1,61,0,90
80918,12:27:07,408892577,test,2,prime_obama,23,2,66,0,160,0,90
80918,12:27:07,408892577,test,2,prime_trump,24,2,3,1,63,0,91
80918,12:27:07,408892577,test,2,prime_trump,25,6,38,1,451,0,92
80918,12:27:07,408892577,test,2,prime_obama,26,3,31,0,278,0,92
80918,12:27:07,408892577,test,2,prime_obama,27,4,58,0,273,0,92
80918,12:27:07,408892577,test,2,prime_trump,28,3,42,1,291,0,92
80918,12:27:07,408892577,test,2,prime_trump,29,4,15,1,229,0,93
80918,12:27:07,408892577,test,2,prime_obama,30,4,9,0,330,0,93
80918,12:27:07,408892577,test,2,prime_obama,31,2,48,0,298,0,93
80918,12:27:07,408892577,test,2,prime_obama,32,3,32,0,300,0,93
80918,12:27:07,408892577,test,2,prime_trump,33,6,13,1,381,0,93
80918,12:27:07,408892577,test,2,prime_trump,34,2,39,1,439,0,94
80918,12:27:07,408892577,test,2,prime_trump,35,1,34,0,1528,0,88
80918,12:27:07,408892577,test,2,prime_obama,36,1,57,1,225,5,88
80918,12:27:07,408892577,test,2,prime_trump,37,5,46,0,469,5,84
80918,12:27:07,408892577,test,2,prime_obama,38,5,4,1,240,11,84
80918,12:27:07,408892577,test,2,prime_trump,39,5,44,0,428,11,80
80918,12:27:07,408892577,test,2,prime_trump,40,1,56,1,241,11,80
80918,12:27:07,408892577,test,2,prime_trump,41,4,52,0,573,11,77
80918,12:27:07,408892577,test,2,prime_obama,42,6,63,1,187,15,77
80918,12:27:07,408892577,test,2,prime_trump,43,3,41,0,290,15,73
80918,12:27:07,408892577,test,2,prime_obama,44,3,24,1,211,20,73
80918,12:27:07,408892577,test,2,prime_obama,45,5,35,1,225,23,73
80918,12:27:07,408892577,test,2,prime_trump,46,2,7,0,181,23,70
80918,12:27:07,408892577,test,2,prime_obama,47,1,43,1,284,27,70
80918,12:27:07,408892577,test,2,prime_obama,48,6,54,1,246,30,70
80918,12:27:07,408892577,test,2,prime_obama,49,2,8,1,234,33,70
80918,12:27:07,408892577,test,2,prime_obama,50,4,27,1,278,36,70
80918,12:27:07,408892577,test,2,prime_trump,51,6,61,0,312,36,68
80918,12:27:07,408892577,test,2,prime_trump,52,6,18,0,162,36,65
80918,12:27:07,408892577,test,2,prime_obama,53,1,65,1,201,38,65
80918,12:27:07,408892577,test,2,prime_trump,54,2,11,0,678,38,62
80918,12:27:07,408892577,test,2,prime_trump,55,4,30,0,265,38,60
80918,12:27:07,408892577,test,2,prime_trump,56,1,23,0,228,38,58
80918,12:27:07,408892577,test,2,prime_trump,57,3,70,0,113,38,56
80918,12:27:07,408892577,test,2,prime_trump,58,5,19,0,82,38,54
80918,12:27:07,408892577,test,2,prime_obama,59,4,64,1,100,40,54
80918,12:27:07,408892577,test,2,prime_obama,60,2,47,1,382,42,54
80918,12:27:07,408892577,test,2,prime_obama,61,6,45,1,261,44,54
80918,12:27:07,408892577,test,2,prime_obama,62,3,68,1,2944,46,54
80918,12:27:07,408892577,test,2,prime_trump,63,6,12,0,480,46,53
80918,12:27:07,408892577,test,2,prime_obama,64,5,62,1,1522,48,53
80918,12:27:07,408892577,test,2,prime_trump,65,4,34,0,267,48,51
80918,12:27:07,408892577,test,2,prime_obama,66,4,9,1,134,50,51
80918,12:27:07,408892577,test,2,prime_trump,67,3,1,0,230,50,50
80918,12:27:07,408892577,test,2,prime_obama,68,6,49,1,426,51,50
80918,12:27:07,408892577,test,2,prime_obama,69,3,6,1,103,52,50
80918,12:27:07,408892577,test,2,prime_obama,70,2,56,1,168,54,50
80918,12:27:07,408892577,test,2,prime_obama,71,5,65,1,255,55,50
80918,12:27:07,408892577,test,2,prime_trump,72,2,71,0,354,55,48
80918,12:27:07,408892577,test,2,prime_trump,73,1,45,0,1441,55,47
80918,12:33:35,210361004,practice,1,prime_trump_practice,4,0,0,1,2264,0,0
80918,12:33:35,210361004,practice,1,prime_obama_practice,5,0,0,0,1014,0,0
80918,12:33:35,210361004,practice,1,prime_obama_practice,6,0,0,0,949,0,0
80918,12:33:35,210361004,practice,1,prime_obama_practice,7,0,0,1,829,0,0
80918,12:33:35,210361004,practice,1,prime_trump_practice,8,0,0,0,1391,0,0
80918,12:33:35,210361004,practice,1,prime_trump_practice,9,0,0,1,934,0,0
80918,12:33:35,210361004,practice,1,prime_obama_practice,10,0,0,0,926,0,0
80918,12:33:35,210361004,practice,1,prime_trump_practice,11,0,0,1,380,0,0
80918,12:33:35,210361004,practice,1,prime_obama_practice,12,0,0,0,508,0,0
80918,12:33:35,210361004,practice,1,prime_trump_practice,13,0,0,1,428,0,0
80918,12:33:35,210361004,test,2,prime_obama,2,6,51,0,2090,0,0
80918,12:33:35,210361004,test,2,prime_obama,3,5,1,0,2174,0,0
80918,12:33:35,210361004,test,2,prime_obama,4,6,56,0,1393,0,0
80918,12:33:35,210361004,test,2,prime_obama,5,2,8,1,1395,25,0
80918,12:33:35,210361004,test,2,prime_trump,6,1,14,1,2207,25,100
80918,12:33:35,210361004,test,2,prime_trump,7,4,48,0,1909,25,50
80918,12:33:35,210361004,test,2,prime_trump,8,3,31,1,982,25,66
80918,12:33:35,210361004,test,2,prime_obama,9,1,12,1,820,40,66
80918,12:33:35,210361004,test,2,prime_obama,10,4,34,1,1560,50,66
80918,12:33:35,210361004,test,2,prime_trump,11,2,10,0,2686,50,50
80918,12:33:35,210361004,test,2,prime_trump,12,6,54,1,724,50,60
80918,12:33:35,210361004,test,2,prime_obama,13,3,53,0,1498,42,60
80918,12:33:35,210361004,test,2,prime_trump,14,5,41,1,1606,42,66
80918,12:33:35,210361004,test,2,prime_trump,15,1,64,0,1407,42,57
80918,12:33:35,210361004,test,2,prime_obama,16,3,36,1,1975,50,57
80918,12:33:35,210361004,test,2,prime_trump,17,6,30,1,875,50,62
80918,12:33:35,210361004,test,2,prime_trump,18,5,50,0,1454,50,55
80918,12:33:35,210361004,test,2,prime_obama,19,1,7,1,916,55,55
80918,12:33:35,210361004,test,2,prime_trump,20,3,9,1,1148,55,60
80918,12:33:35,210361004,test,2,prime_trump,21,2,40,0,2234,55,54
80918,12:33:35,210361004,test,2,prime_obama,22,5,52,0,1387,50,54
80918,12:33:35,210361004,test,2,prime_trump,23,4,61,1,771,50,58
80918,12:33:35,210361004,test,2,prime_trump,24,1,57,1,986,50,61
80918,12:33:35,210361004,test,2,prime_obama,25,4,42,0,1470,45,61
80918,12:33:35,210361004,test,2,prime_obama,26,2,11,1,677,50,61
80918,12:33:35,210361004,test,2,prime_trump,27,2,38,1,702,50,64
80918,12:33:35,210361004,test,2,prime_obama,28,6,66,1,664,53,64
80918,12:33:35,210361004,test,2,prime_obama,29,3,60,0,1377,50,64
80918,12:33:35,210361004,test,2,prime_trump,30,6,19,0,674,50,60
80918,12:33:35,210361004,test,2,prime_obama,31,6,71,0,1159,46,60
80918,12:33:35,210361004,test,2,prime_trump,32,1,68,1,571,46,62
80918,12:33:35,210361004,test,2,prime_trump,33,5,26,1,2482,46,64
80918,12:33:35,210361004,test,2,prime_trump,34,4,15,1,1897,46,66
80918,12:33:35,210361004,test,2,prime_trump,35,3,44,0,612,46,63
80918,12:33:35,210361004,test,2,prime_trump,36,1,63,0,970,46,60
80918,12:33:35,210361004,test,2,prime_trump,37,6,18,0,1800,46,57
80918,12:33:35,210361004,test,2,prime_obama,38,2,45,0,1144,43,57
80918,12:33:35,210361004,test,2,prime_obama,39,5,23,1,569,47,57
80918,12:33:35,210361004,test,2,prime_obama,40,4,4,1,1106,50,57
80918,12:33:35,210361004,test,2,prime_trump,41,3,21,1,660,50,59
80918,12:33:35,210361004,test,2,prime_obama,42,1,2,1,579,52,59
80918,12:33:35,210361004,test,2,prime_obama,43,4,3,1,1503,55,59
80918,12:33:35,210361004,test,2,prime_trump,44,2,13,1,746,55,60
80918,12:33:35,210361004,test,2,prime_obama,45,5,55,0,734,52,60
80918,12:33:35,210361004,test,2,prime_obama,46,1,6,1,617,54,60
80918,12:33:35,210361004,test,2,prime_obama,47,3,43,1,879,56,60
80918,12:33:35,210361004,test,2,prime_trump,48,4,59,1,968,56,62
80918,12:33:35,210361004,test,2,prime_trump,49,5,24,1,746,56,64
80918,12:33:35,210361004,test,2,prime_obama,50,6,62,0,715,54,64
80918,12:33:35,210361004,test,2,prime_trump,51,5,16,0,917,54,61
80918,12:33:35,210361004,test,2,prime_obama,52,2,70,1,880,56,61
80918,12:33:35,210361004,test,2,prime_trump,53,4,72,1,654,56,62
80918,12:33:35,210361004,test,2,prime_trump,54,6,28,0,699,56,60
80918,12:33:35,210361004,test,2,prime_obama,55,2,29,1,839,57,60
80918,12:33:35,210361004,test,2,prime_obama,56,5,39,1,594,59,60
80918,12:33:35,210361004,test,2,prime_trump,57,1,32,0,667,59,58
80918,12:33:35,210361004,test,2,prime_trump,58,3,47,0,965,59,56
80918,12:33:35,210361004,test,2,prime_obama,59,1,27,1,602,60,56
80918,12:33:35,210361004,test,2,prime_trump,60,2,20,0,572,60,54
80918,12:33:35,210361004,test,2,prime_obama,61,6,17,1,515,62,54
80918,12:33:35,210361004,test,2,prime_obama,62,3,5,1,966,63,54
80918,12:33:35,210361004,test,2,prime_obama,63,4,25,1,501,64,54
80918,12:33:35,210361004,test,2,prime_trump,64,3,36,1,579,64,56
80918,12:33:35,210361004,test,2,prime_trump,65,6,6,1,548,64,57
80918,12:33:35,210361004,test,2,prime_trump,66,1,66,0,1603,64,55
80918,12:33:35,210361004,test,2,prime_obama,67,4,50,0,621,62,55
80918,12:33:35,210361004,test,2,prime_trump,68,5,71,0,674,62,54
80918,12:33:35,210361004,test,2,prime_obama,69,2,31,0,589,60,54
80918,12:33:35,210361004,test,2,prime_obama,70,5,49,1,1424,61,54
80918,12:33:35,210361004,test,2,prime_trump,71,4,9,1,439,61,55
80918,12:33:35,210361004,test,2,prime_obama,72,1,64,0,1031,60,55
80918,12:33:35,210361004,test,2,prime_obama,73,6,27,1,421,61,55
80918,12:36:32,24223154,practice,1,prime_trump_practice,4,0,0,1,3541,0,0
80918,12:36:32,24223154,practice,1,prime_obama_practice,5,0,0,1,816,0,0
80918,12:36:32,24223154,practice,1,prime_obama_practice,6,0,0,1,562,0,0
80918,12:36:32,24223154,practice,1,prime_trump_practice,7,0,0,1,1053,0,0
80918,12:36:32,24223154,practice,1,prime_trump_practice,8,0,0,1,476,0,0
80918,12:36:32,24223154,practice,1,prime_obama_practice,9,0,0,1,388,0,0
80918,12:36:32,24223154,practice,1,prime_trump_practice,10,0,0,1,445,0,0
80918,12:36:32,24223154,practice,1,prime_obama_practice,11,0,0,1,436,0,0
80918,12:36:32,24223154,practice,1,prime_trump_practice,12,0,0,1,420,0,0
80918,12:36:32,24223154,practice,1,prime_obama_practice,13,0,0,1,541,0,0
80918,12:36:32,24223154,test,2,prime_obama,2,4,39,1,573,100,0
80918,12:36:32,24223154,test,2,prime_trump,3,3,68,1,719,100,100
80918,12:36:32,24223154,test,2,prime_trump,4,6,11,1,412,100,100
80918,12:36:32,24223154,test,2,prime_obama,5,3,72,1,309,100,100
80918,12:36:32,24223154,test,2,prime_trump,6,2,47,1,266,100,100
80918,12:36:32,24223154,test,2,prime_obama,7,1,3,1,344,100,100
80918,12:36:32,24223154,test,2,prime_trump,8,1,49,1,364,100,100
80918,12:36:32,24223154,test,2,prime_obama,9,4,48,1,518,100,100
80918,12:36:32,24223154,test,2,prime_obama,10,6,7,1,411,100,100
80918,12:36:32,24223154,test,2,prime_trump,11,3,27,0,403,100,80
80918,12:36:32,24223154,test,2,prime_obama,12,5,1,1,291,100,80
80918,12:36:32,24223154,test,2,prime_obama,13,2,24,0,1121,85,80
80918,12:36:32,24223154,test,2,prime_obama,14,4,31,1,287,87,80
80918,12:36:32,24223154,test,2,prime_obama,15,3,21,1,348,88,80
80918,12:36:32,24223154,test,2,prime_trump,16,4,54,1,592,88,83
80918,12:36:32,24223154,test,2,prime_trump,17,5,23,0,713,88,71
80918,12:36:32,24223154,test,2,prime_trump,18,4,69,1,223,88,75
80918,12:36:32,24223154,test,2,prime_obama,19,5,66,1,414,90,75
80918,12:36:32,24223154,test,2,prime_obama,20,1,36,1,223,90,75
80918,12:36:32,24223154,test,2,prime_trump,21,3,67,1,614,90,77
80918,12:36:32,24223154,test,2,prime_obama,22,2,40,1,464,91,77
80918,12:36:32,24223154,test,2,prime_obama,23,6,6,1,350,92,77
80918,12:36:32,24223154,test,2,prime_obama,24,4,8,1,281,92,77
80918,12:36:32,24223154,test,2,prime_obama,25,2,29,1,229,93,77
80918,12:36:32,24223154,test,2,prime_trump,26,1,26,1,516,93,80
80918,12:36:32,24223154,test,2,prime_obama,27,6,63,1,225,93,80
80918,12:36:32,24223154,test,2,prime_trump,28,2,17,1,98,93,81
80918,12:36:32,24223154,test,2,prime_trump,29,5,65,1,157,93,83
80918,12:36:32,24223154,test,2,prime_trump,30,6,22,1,191,93,84
80918,12:36:32,24223154,test,2,prime_trump,31,1,16,1,81,93,85
80918,12:36:32,24223154,test,2,prime_obama,32,5,60,1,38,94,85
80918,12:36:32,24223154,test,2,prime_trump,33,5,61,1,37,94,86
80918,12:36:32,24223154,test,2,prime_obama,34,3,58,1,11,94,86
80918,12:36:32,24223154,test,2,prime_trump,35,3,5,1,547,94,87
80918,12:36:32,24223154,test,2,prime_obama,36,1,25,1,22,94,87
80918,12:36:32,24223154,test,2,prime_obama,37,1,55,1,182,95,87
80918,12:36:32,24223154,test,2,prime_trump,38,2,38,1,30,95,88
80918,12:36:32,24223154,test,2,prime_trump,39,4,2,0,397,95,83
80918,12:36:32,24223154,test,2,prime_trump,40,6,15,1,159,95,84
80918,12:36:32,24223154,test,2,prime_trump,41,5,34,1,154,95,85
80918,12:36:32,24223154,test,2,prime_trump,42,6,9,1,99,95,85
80918,12:36:32,24223154,test,2,prime_trump,43,4,12,1,176,95,86
80918,12:36:32,24223154,test,2,prime_obama,44,4,53,1,169,95,86
80918,12:36:32,24223154,test,2,prime_obama,45,3,57,1,67,95,86
80918,12:36:32,24223154,test,2,prime_trump,46,3,20,1,569,95,86
80918,12:36:32,24223154,test,2,prime_trump,47,2,46,1,3,95,87
80918,12:36:32,24223154,test,2,prime_trump,48,1,37,1,507,95,88
80918,12:36:32,24223154,test,2,prime_trump,49,2,28,1,25,95,88
80918,12:36:32,24223154,test,2,prime_obama,50,6,71,1,472,95,88
80918,12:36:32,24223154,test,2,prime_trump,51,3,62,1,551,95,88
80918,12:36:32,24223154,test,2,prime_obama,52,2,45,1,25,95,88
80918,12:36:32,24223154,test,2,prime_trump,53,4,59,1,401,95,89
80918,12:36:32,24223154,test,2,prime_obama,54,5,56,1,18,96,89
80918,12:36:32,24223154,test,2,prime_obama,55,1,43,1,18,96,89
80918,12:36:32,24223154,test,2,prime_trump,56,5,19,1,120,96,89
80918,12:36:32,24223154,test,2,prime_obama,57,2,70,1,676,96,89
80918,12:36:32,24223154,test,2,prime_trump,58,6,33,0,739,96,86
80918,12:36:32,24223154,test,2,prime_obama,59,6,51,1,231,96,86
80918,12:36:32,24223154,test,2,prime_obama,60,3,42,1,287,96,86
80918,12:36:32,24223154,test,2,prime_trump,61,1,4,1,300,96,87
80918,12:36:32,24223154,test,2,prime_trump,62,5,13,0,872,96,84
80918,12:36:32,24223154,test,2,prime_obama,63,4,44,1,296,96,84
80918,12:36:32,24223154,test,2,prime_obama,64,5,72,1,405,96,84
80918,12:36:32,24223154,test,2,prime_trump,65,2,23,0,734,96,81
80918,12:36:32,24223154,test,2,prime_trump,66,4,49,1,83,96,82
80918,12:36:32,24223154,test,2,prime_obama,67,1,10,1,223,96,82
80918,12:36:32,24223154,test,2,prime_obama,68,3,65,1,191,96,82
80918,12:36:32,24223154,test,2,prime_obama,69,4,24,1,248,97,82
80918,12:36:32,24223154,test,2,prime_trump,70,3,71,1,150,97,82
80918,12:36:32,24223154,test,2,prime_obama,71,6,44,1,33,97,82
80918,12:36:32,24223154,test,2,prime_obama,72,5,68,1,135,97,82
80918,12:36:32,24223154,test,2,prime_trump,73,6,61,1,83,97,83
80918,12:35:59,833954947,practice,1,prime_trump_practice,4,0,0,0,3426,0,0
80918,12:35:59,833954947,practice,1,prime_obama_practice,5,0,0,1,736,0,0
80918,12:35:59,833954947,practice,1,prime_trump_practice,6,0,0,1,1645,0,0
80918,12:35:59,833954947,practice,1,prime_trump_practice,7,0,0,0,1919,0,0
80918,12:35:59,833954947,practice,1,prime_obama_practice,8,0,0,1,1326,0,0
80918,12:35:59,833954947,practice,1,prime_obama_practice,9,0,0,1,645,0,0
80918,12:35:59,833954947,practice,1,prime_trump_practice,10,0,0,0,749,0,0
80918,12:35:59,833954947,practice,1,prime_obama_practice,11,0,0,1,1233,0,0
80918,12:35:59,833954947,practice,1,prime_obama_practice,12,0,0,1,2330,0,0
80918,12:35:59,833954947,practice,1,prime_trump_practice,13,0,0,1,1419,0,0
80918,12:35:59,833954947,test,2,prime_trump,2,6,29,0,1636,0,0
80918,12:35:59,833954947,test,2,prime_trump,3,1,71,0,807,0,0
80918,12:35:59,833954947,test,2,prime_obama,4,3,25,1,1432,100,0
80918,12:35:59,833954947,test,2,prime_obama,5,6,64,1,1306,100,0
80918,12:35:59,833954947,test,2,prime_obama,6,4,53,1,1353,100,0
80918,12:35:59,833954947,test,2,prime_obama,7,2,52,0,1782,75,0
80918,12:35:59,833954947,test,2,prime_obama,8,1,17,1,892,80,0
80918,12:35:59,833954947,test,2,prime_obama,9,3,46,1,706,83,0
80918,12:35:59,833954947,test,2,prime_trump,10,3,14,0,920,83,0
80918,12:35:59,833954947,test,2,prime_obama,11,5,48,1,893,85,0
80918,12:35:59,833954947,test,2,prime_obama,12,4,54,1,724,87,0
80918,12:35:59,833954947,test,2,prime_obama,13,6,24,1,401,88,0
80918,12:35:59,833954947,test,2,prime_trump,14,6,13,0,618,88,0
80918,12:35:59,833954947,test,2,prime_trump,15,5,8,0,635,88,0
80918,12:35:59,833954947,test,2,prime_trump,16,4,26,0,507,88,0
80918,12:35:59,833954947,test,2,prime_trump,17,2,27,1,872,88,14
80918,12:35:59,833954947,test,2,prime_obama,18,3,45,1,919,90,14
80918,12:35:59,833954947,test,2,prime_obama,19,2,59,1,637,90,14
80918,12:35:59,833954947,test,2,prime_obama,20,1,33,1,653,91,14
80918,12:35:59,833954947,test,2,prime_trump,21,4,16,0,668,91,12
80918,12:35:59,833954947,test,2,prime_trump,22,6,21,0,924,91,11
80918,12:35:59,833954947,test,2,prime_trump,23,5,20,0,777,91,10
80918,12:35:59,833954947,test,2,prime_trump,24,3,22,1,708,91,18
80918,12:35:59,833954947,test,2,prime_trump,25,1,55,1,953,91,25
80918,12:35:59,833954947,test,2,prime_trump,26,2,63,0,1142,91,23
80918,12:35:59,833954947,test,2,prime_trump,27,5,3,1,899,91,28
80918,12:35:59,833954947,test,2,prime_obama,28,5,31,0,914,84,28
80918,12:35:59,833954947,test,2,prime_trump,29,3,19,0,991,84,26
80918,12:35:59,833954947,test,2,prime_obama,30,2,58,1,1266,85,26
80918,12:35:59,833954947,test,2,prime_obama,31,5,32,1,691,86,26
80918,12:35:59,833954947,test,2,prime_trump,32,1,11,1,1128,86,31
80918,12:35:59,833954947,test,2,prime_trump,33,6,35,1,670,86,35
80918,12:35:59,833954947,test,2,prime_trump,34,4,2,1,533,86,38
80918,12:35:59,833954947,test,2,prime_trump,35,2,60,1,1793,86,42
80918,12:35:59,833954947,test,2,prime_trump,36,1,68,1,677,86,45
80918,12:35:59,833954947,test,2,prime_obama,37,4,72,1,764,87,45
80918,12:35:59,833954947,test,2,prime_trump,38,3,69,0,744,87,42
80918,12:35:59,833954947,test,2,prime_trump,39,4,7,0,987,87,40
80918,12:35:59,833954947,test,2,prime_trump,40,2,38,1,663,87,43
80918,12:35:59,833954947,test,2,prime_trump,41,6,23,1,686,87,45
80918,12:35:59,833954947,test,2,prime_obama,42,1,49,1,972,88,45
80918,12:35:59,833954947,test,2,prime_obama,43,6,41,0,799,83,45
80918,12:35:59,833954947,test,2,prime_obama,44,3,30,1,553,84,45
80918,12:35:59,833954947,test,2,prime_trump,45,5,5,1,805,84,48
80918,12:35:59,833954947,test,2,prime_obama,46,6,47,0,999,80,48
80918,12:35:59,833954947,test,2,prime_obama,47,5,18,0,753,76,48
80918,12:35:59,833954947,test,2,prime_obama,48,1,39,1,613,77,48
80918,12:35:59,833954947,test,2,prime_trump,49,5,15,1,934,77,50
80918,12:35:59,833954947,test,2,prime_obama,50,4,66,1,594,78,50
80918,12:35:59,833954947,test,2,prime_trump,51,2,65,0,541,78,48
80918,12:35:59,833954947,test,2,prime_obama,52,3,67,1,600,79,48
80918,12:35:59,833954947,test,2,prime_obama,53,2,43,1,794,80,48
80918,12:35:59,833954947,test,2,prime_trump,54,4,34,0,852,80,46
80918,12:35:59,833954947,test,2,prime_trump,55,1,57,0,508,80,44
80918,12:35:59,833954947,test,2,prime_obama,56,5,6,1,498,80,44
80918,12:35:59,833954947,test,2,prime_obama,57,4,56,0,1119,77,44
80918,12:35:59,833954947,test,2,prime_obama,58,2,12,1,653,78,44
80918,12:35:59,833954947,test,2,prime_trump,59,6,42,0,604,78,43
80918,12:35:59,833954947,test,2,prime_trump,60,3,10,0,613,78,41
80918,12:35:59,833954947,test,2,prime_obama,61,6,4,0,990,75,41
80918,12:35:59,833954947,test,2,prime_trump,62,4,50,0,585,75,40
80918,12:35:59,833954947,test,2,prime_obama,63,1,44,1,612,76,40
80918,12:35:59,833954947,test,2,prime_obama,64,3,69,0,749,74,40
80918,12:35:59,833954947,test,2,prime_obama,65,1,24,1,601,75,40
80918,12:35:59,833954947,test,2,prime_trump,66,2,22,1,610,75,42
80918,12:35:59,833954947,test,2,prime_obama,67,6,38,1,468,75,42
80918,12:35:59,833954947,test,2,prime_trump,68,1,68,1,906,75,44
80918,12:35:59,833954947,test,2,prime_obama,69,5,40,1,792,76,44
80918,12:35:59,833954947,test,2,prime_obama,70,4,41,0,795,74,44
80918,12:35:59,833954947,test,2,prime_trump,71,6,33,1,533,74,45
80918,12:35:59,833954947,test,2,prime_trump,72,5,28,0,897,74,44
80918,12:35:59,833954947,test,2,prime_obama,73,2,71,0,687,72,44
80918,12:35:45,359728694,practice,1,prime_obama_practice,4,0,0,1,1342,0,0
80918,12:35:45,359728694,practice,1,prime_trump_practice,5,0,0,1,1079,0,0
80918,12:35:45,359728694,practice,1,prime_trump_practice,6,0,0,0,1137,0,0
80918,12:35:45,359728694,practice,1,prime_obama_practice,7,0,0,0,801,0,0
80918,12:35:45,359728694,practice,1,prime_obama_practice,8,0,0,0,1015,0,0
80918,12:35:45,359728694,practice,1,prime_trump_practice,9,0,0,0,660,0,0
80918,12:35:45,359728694,practice,1,prime_obama_practice,10,0,0,1,688,0,0
80918,12:35:45,359728694,practice,1,prime_obama_practice,11,0,0,0,962,0,0
80918,12:35:45,359728694,practice,1,prime_trump_practice,12,0,0,0,1497,0,0
80918,12:35:45,359728694,practice,1,prime_trump_practice,13,0,0,0,683,0,0
80918,12:35:45,359728694,test,2,prime_trump,2,4,71,1,834,0,100
80918,12:35:45,359728694,test,2,prime_obama,3,1,44,1,1238,100,100
80918,12:35:45,359728694,test,2,prime_trump,4,6,54,0,618,100,50
80918,12:35:45,359728694,test,2,prime_trump,5,5,42,0,687,100,33
80918,12:35:45,359728694,test,2,prime_obama,6,4,41,0,617,50,33
80918,12:35:45,359728694,test,2,prime_trump,7,2,48,0,702,50,25
80918,12:35:45,359728694,test,2,prime_obama,8,1,37,0,767,33,25
80918,12:35:45,359728694,test,2,prime_obama,9,2,60,1,750,50,25
80918,12:35:45,359728694,test,2,prime_obama,10,3,39,0,685,40,25
80918,12:35:45,359728694,test,2,prime_obama,11,5,29,0,1239,33,25
80918,12:35:45,359728694,test,2,prime_trump,12,3,34,1,972,33,40
80918,12:35:45,359728694,test,2,prime_obama,13,6,68,1,787,42,40
80918,12:35:45,359728694,test,2,prime_trump,14,4,72,0,896,42,33
80918,12:35:45,359728694,test,2,prime_trump,15,1,64,0,578,42,28
80918,12:35:45,359728694,test,2,prime_trump,16,4,11,0,737,42,25
80918,12:35:45,359728694,test,2,prime_obama,17,5,23,0,961,37,25
80918,12:35:45,359728694,test,2,prime_trump,18,6,66,0,680,37,22
80918,12:35:45,359728694,test,2,prime_trump,19,2,57,1,835,37,30
80918,12:35:45,359728694,test,2,prime_trump,20,1,40,0,551,37,27
80918,12:35:45,359728694,test,2,prime_trump,21,5,2,1,647,37,33
80918,12:35:45,359728694,test,2,prime_obama,22,2,7,0,683,33,33
80918,12:35:45,359728694,test,2,prime_obama,23,1,51,0,645,30,33
80918,12:35:45,359728694,test,2,prime_trump,24,3,67,0,809,30,30
80918,12:35:45,359728694,test,2,prime_trump,25,1,62,0,574,30,28
80918,12:35:45,359728694,test,2,prime_obama,26,3,9,0,701,27,28
80918,12:35:45,359728694,test,2,prime_obama,27,4,3,1,638,33,28
80918,12:35:45,359728694,test,2,prime_obama,28,6,22,0,850,30,28
80918,12:35:45,359728694,test,2,prime_obama,29,5,28,0,637,28,28
80918,12:35:45,359728694,test,2,prime_obama,30,1,47,1,802,33,28
80918,12:35:45,359728694,test,2,prime_obama,31,3,56,1,663,37,28
80918,12:35:45,359728694,test,2,prime_obama,32,6,58,1,674,41,28
80918,12:35:45,359728694,test,2,prime_obama,33,2,13,1,821,44,28
80918,12:35:45,359728694,test,2,prime_obama,34,4,26,0,610,42,28
80918,12:35:45,359728694,test,2,prime_obama,35,6,63,0,1055,40,28
80918,12:35:45,359728694,test,2,prime_trump,36,3,70,0,690,40,26
80918,12:35:45,359728694,test,2,prime_obama,37,5,17,0,652,38,26
80918,12:35:45,359728694,test,2,prime_obama,38,3,46,0,752,36,26
80918,12:35:45,359728694,test,2,prime_trump,39,4,33,0,559,36,25
80918,12:35:45,359728694,test,2,prime_trump,40,2,1,0,823,36,23
80918,12:35:45,359728694,test,2,prime_trump,41,6,50,0,675,36,22
80918,12:35:45,359728694,test,2,prime_trump,42,5,21,0,718,36,21
80918,12:35:45,359728694,test,2,prime_obama,43,4,69,0,775,34,21
80918,12:35:45,359728694,test,2,prime_obama,44,2,5,0,717,33,21
80918,12:35:45,359728694,test,2,prime_trump,45,6,25,0,606,33,20
80918,12:35:45,359728694,test,2,prime_trump,46,3,27,0,500,33,19
80918,12:35:45,359728694,test,2,prime_trump,47,2,35,0,949,33,18
80918,12:35:45,359728694,test,2,prime_obama,48,1,36,0,508,32,18
80918,12:35:45,359728694,test,2,prime_obama,49,5,49,1,950,34,18
80918,12:35:45,359728694,test,2,prime_trump,50,4,32,0,501,34,17
80918,12:35:45,359728694,test,2,prime_trump,51,5,55,0,462,34,16
80918,12:35:45,359728694,test,2,prime_trump,52,1,24,0,530,34,16
80918,12:35:45,359728694,test,2,prime_trump,53,2,30,0,707,34,15
80918,12:35:45,359728694,test,2,prime_trump,54,5,10,0,1564,34,14
80918,12:35:45,359728694,test,2,prime_obama,55,3,43,0,995,33,14
80918,12:35:45,359728694,test,2,prime_obama,56,1,12,0,577,32,14
80918,12:35:45,359728694,test,2,prime_obama,57,4,6,1,728,34,14
80918,12:35:45,359728694,test,2,prime_obama,58,2,65,1,641,36,14
80918,12:35:45,359728694,test,2,prime_trump,59,6,53,0,693,36,14
80918,12:35:45,359728694,test,2,prime_trump,60,1,8,1,855,36,17
80918,12:35:45,359728694,test,2,prime_obama,61,6,38,0,1090,35,17
80918,12:35:45,359728694,test,2,prime_obama,62,2,4,1,1749,37,17
80918,12:35:45,359728694,test,2,prime_trump,63,3,15,0,548,37,16
80918,12:35:45,359728694,test,2,prime_trump,64,4,18,0,764,37,16
80918,12:35:45,359728694,test,2,prime_obama,65,5,8,1,612,39,16
80918,12:35:45,359728694,test,2,prime_obama,66,6,20,0,801,38,16
80918,12:35:45,359728694,test,2,prime_trump,67,6,60,1,671,38,18
80918,12:35:45,359728694,test,2,prime_trump,68,4,2,1,673,38,21
80918,12:35:45,359728694,test,2,prime_trump,69,1,26,0,556,38,20
80918,12:35:45,359728694,test,2,prime_trump,70,5,9,0,476,38,20
80918,12:35:45,359728694,test,2,prime_obama,71,4,43,0,910,37,20
80918,12:35:45,359728694,test,2,prime_trump,72,3,65,0,479,37,19
80918,12:35:45,359728694,test,2,prime_obama,73,1,7,0,730,36,19
80918,11:38:56,880653715,practice,1,prime_obama_practice,4,0,0,1,3159,0,0
80918,11:38:56,880653715,practice,1,prime_trump_practice,5,0,0,1,725,0,0
80918,11:38:56,880653715,practice,1,prime_trump_practice,6,0,0,0,1054,0,0
80918,11:38:56,880653715,practice,1,prime_trump_practice,7,0,0,0,737,0,0
80918,11:38:56,880653715,practice,1,prime_obama_practice,8,0,0,0,859,0,0
80918,11:38:56,880653715,practice,1,prime_obama_practice,9,0,0,1,662,0,0
80918,11:38:56,880653715,practice,1,prime_trump_practice,10,0,0,1,1077,0,0
80918,11:38:56,880653715,practice,1,prime_obama_practice,11,0,0,1,695,0,0
80918,11:38:56,880653715,practice,1,prime_obama_practice,12,0,0,1,726,0,0
80918,11:38:56,880653715,practice,1,prime_trump_practice,13,0,0,1,698,0,0
80918,11:38:56,880653715,test,2,prime_trump,2,3,49,0,921,0,0
80918,11:38:56,880653715,test,2,prime_trump,3,1,57,1,925,0,50
80918,11:38:56,880653715,test,2,prime_obama,4,3,46,0,1045,0,50
80918,11:38:56,880653715,test,2,prime_obama,5,1,62,1,784,50,50
80918,11:38:56,880653715,test,2,prime_trump,6,4,34,1,797,50,66
80918,11:38:56,880653715,test,2,prime_obama,7,4,67,0,803,33,66
80918,11:38:56,880653715,test,2,prime_obama,8,6,30,1,615,50,66
80918,11:38:56,880653715,test,2,prime_obama,9,5,64,0,757,40,66
80918,11:38:56,880653715,test,2,prime_trump,10,6,52,0,534,40,50
80918,11:38:56,880653715,test,2,prime_trump,11,3,69,1,504,40,60
80918,11:38:56,880653715,test,2,prime_trump,12,5,66,1,530,40,66
80918,11:38:56,880653715,test,2,prime_trump,13,2,4,0,665,40,57
80918,11:38:56,880653715,test,2,prime_trump,14,5,29,1,530,40,62
80918,11:38:56,880653715,test,2,prime_obama,15,3,72,0,609,33,62
80918,11:38:56,880653715,test,2,prime_obama,16,2,71,1,913,42,62
80918,11:38:56,880653715,test,2,prime_trump,17,1,35,0,569,42,55
80918,11:38:56,880653715,test,2,prime_obama,18,4,60,0,568,37,55
80918,11:38:56,880653715,test,2,prime_trump,19,3,63,0,824,37,50
80918,11:38:56,880653715,test,2,prime_obama,20,1,68,1,619,44,50
80918,11:38:56,880653715,test,2,prime_trump,21,4,26,1,547,44,54
80918,11:38:56,880653715,test,2,prime_trump,22,2,10,1,707,44,58
80918,11:38:56,880653715,test,2,prime_obama,23,6,61,0,674,40,58
80918,11:38:56,880653715,test,2,prime_trump,24,6,14,1,559,40,61
80918,11:38:56,880653715,test,2,prime_obama,25,5,28,0,731,36,61
80918,11:38:56,880653715,test,2,prime_obama,26,2,6,0,635,33,61
80918,11:38:56,880653715,test,2,prime_trump,27,4,11,0,542,33,57
80918,11:38:56,880653715,test,2,prime_obama,28,3,32,1,543,38,57
80918,11:38:56,880653715,test,2,prime_trump,29,1,15,1,452,38,60
80918,11:38:56,880653715,test,2,prime_obama,30,4,20,1,697,42,60
80918,11:38:56,880653715,test,2,prime_trump,31,3,36,1,540,42,62
80918,11:38:56,880653715,test,2,prime_obama,32,5,50,0,573,40,62
80918,11:38:56,880653715,test,2,prime_obama,33,2,55,0,472,37,62
80918,11:38:56,880653715,test,2,prime_obama,34,3,21,0,662,35,62
80918,11:38:56,880653715,test,2,prime_trump,35,2,54,0,725,35,58
80918,11:38:56,880653715,test,2,prime_trump,36,5,56,1,747,35,61
80918,11:38:56,880653715,test,2,prime_obama,37,6,12,0,606,33,61
80918,11:38:56,880653715,test,2,prime_obama,38,1,17,1,437,36,61
80918,11:38:56,880653715,test,2,prime_obama,39,6,38,0,1148,35,61
80918,11:38:56,880653715,test,2,prime_obama,40,2,16,0,687,33,61
80918,11:38:56,880653715,test,2,prime_trump,41,6,31,1,708,33,63
80918,11:38:56,880653715,test,2,prime_trump,42,1,9,1,628,33,65
80918,11:38:56,880653715,test,2,prime_trump,43,2,3,0,551,33,61
80918,11:38:56,880653715,test,2,prime_obama,44,1,51,1,1893,36,61
80918,11:38:56,880653715,test,2,prime_obama,45,3,65,1,699,39,61
80918,11:38:56,880653715,test,2,prime_trump,46,6,40,1,616,39,63
80918,11:38:56,880653715,test,2,prime_trump,47,3,13,1,702,39,65
80918,11:38:56,880653715,test,2,prime_obama,48,4,1,1,563,41,65
80918,11:38:56,880653715,test,2,prime_trump,49,4,45,0,635,41,62
80918,11:38:56,880653715,test,2,prime_trump,50,5,44,0,718,41,60
80918,11:38:56,880653715,test,2,prime_obama,51,5,39,1,492,44,60
80918,11:38:56,880653715,test,2,prime_obama,52,2,18,0,649,42,60
80918,11:38:56,880653715,test,2,prime_obama,53,6,58,0,1159,40,60
80918,11:38:56,880653715,test,2,prime_trump,54,6,2,0,531,40,57
80918,11:38:56,880653715,test,2,prime_trump,55,2,37,1,432,40,59
80918,11:38:56,880653715,test,2,prime_obama,56,3,59,0,798,39,59
80918,11:38:56,880653715,test,2,prime_obama,57,1,33,0,557,37,59
80918,11:38:56,880653715,test,2,prime_trump,58,1,22,0,547,37,57
80918,11:38:56,880653715,test,2,prime_trump,59,4,48,1,420,37,58
80918,11:38:56,880653715,test,2,prime_trump,60,3,25,0,563,37,56
80918,11:38:56,880653715,test,2,prime_trump,61,5,70,1,1052,37,58
80918,11:38:56,880653715,test,2,prime_obama,62,4,23,0,603,36,58
80918,11:38:56,880653715,test,2,prime_trump,63,5,42,1,588,36,59
80918,11:38:56,880653715,test,2,prime_obama,64,5,42,1,471,38,59
80918,11:38:56,880653715,test,2,prime_trump,65,2,19,1,489,38,60
80918,11:38:56,880653715,test,2,prime_obama,66,3,17,1,487,40,60
80918,11:38:56,880653715,test,2,prime_trump,67,1,4,0,1033,40,58
80918,11:38:56,880653715,test,2,prime_trump,68,6,8,0,422,40,57
80918,11:38:56,880653715,test,2,prime_obama,69,6,55,0,480,39,57
80918,11:38:56,880653715,test,2,prime_trump,70,3,72,0,563,39,55
80918,11:38:56,880653715,test,2,prime_obama,71,4,35,0,624,38,55
80918,11:38:56,880653715,test,2,prime_obama,72,2,67,0,466,37,55
80918,11:38:56,880653715,test,2,prime_obama,73,1,49,1,590,38,55
80918,12:46:05,418702875,practice,1,prime_trump_practice,4,0,0,0,2468,0,0
80918,12:46:05,418702875,practice,1,prime_obama_practice,5,0,0,1,1211,0,0
80918,12:46:05,418702875,practice,1,prime_trump_practice,6,0,0,1,1842,0,0
80918,12:46:05,418702875,practice,1,prime_obama_practice,7,0,0,1,748,0,0
80918,12:46:05,418702875,practice,1,prime_obama_practice,8,0,0,1,788,0,0
80918,12:46:05,418702875,practice,1,prime_trump_practice,9,0,0,1,945,0,0
80918,12:46:05,418702875,practice,1,prime_trump_practice,10,0,0,0,868,0,0
80918,12:46:05,418702875,practice,1,prime_trump_practice,11,0,0,1,797,0,0
80918,12:46:05,418702875,practice,1,prime_obama_practice,12,0,0,0,1302,0,0
80918,12:46:05,418702875,practice,1,prime_obama_practice,13,0,0,1,1065,0,0
80918,12:46:05,418702875,test,2,prime_trump,2,5,36,1,937,0,100
80918,12:46:05,418702875,test,2,prime_trump,3,1,23,0,639,0,50
80918,12:46:05,418702875,test,2,prime_obama,4,2,62,1,717,100,50
80918,12:46:05,418702875,test,2,prime_obama,5,6,65,1,776,100,50
80918,12:46:05,418702875,test,2,prime_obama,6,5,29,0,865,66,50
80918,12:46:05,418702875,test,2,prime_trump,7,3,67,0,760,66,33
80918,12:46:05,418702875,test,2,prime_obama,8,3,5,1,845,75,33
80918,12:46:05,418702875,test,2,prime_trump,9,2,22,0,686,75,25
80918,12:46:05,418702875,test,2,prime_trump,10,6,31,1,596,75,40
80918,12:46:05,418702875,test,2,prime_obama,11,4,8,1,647,80,40
80918,12:46:05,418702875,test,2,prime_obama,12,2,56,1,484,83,40
80918,12:46:05,418702875,test,2,prime_obama,13,1,10,0,872,71,40
80918,12:46:05,418702875,test,2,prime_obama,14,1,34,1,627,75,40
80918,12:46:05,418702875,test,2,prime_obama,15,2,15,1,649,77,40
80918,12:46:05,418702875,test,2,prime_trump,16,5,72,0,743,77,33
80918,12:46:05,418702875,test,2,prime_obama,17,6,18,1,504,80,33
80918,12:46:05,418702875,test,2,prime_trump,18,4,44,1,597,80,42
80918,12:46:05,418702875,test,2,prime_trump,19,2,16,1,541,80,50
80918,12:46:05,418702875,test,2,prime_obama,20,3,33,0,743,72,50
80918,12:46:05,418702875,test,2,prime_obama,21,4,64,1,704,75,50
80918,12:46:05,418702875,test,2,prime_trump,22,5,11,0,944,75,44
80918,12:46:05,418702875,test,2,prime_obama,23,5,30,1,450,76,44
80918,12:46:05,418702875,test,2,prime_obama,24,3,51,1,407,78,44
80918,12:46:05,418702875,test,2,prime_obama,25,6,66,1,341,80,44
80918,12:46:05,418702875,test,2,prime_obama,26,2,20,1,448,81,44
80918,12:46:05,418702875,test,2,prime_trump,27,4,25,0,354,81,40
80918,12:46:05,418702875,test,2,prime_trump,28,3,4,1,621,81,45
80918,12:46:05,418702875,test,2,prime_obama,29,1,24,1,463,82,45
80918,12:46:05,418702875,test,2,prime_obama,30,4,40,1,654,83,45
80918,12:46:05,418702875,test,2,prime_trump,31,6,2,1,422,83,50
80918,12:46:05,418702875,test,2,prime_trump,32,1,59,0,764,83,46
80918,12:46:05,418702875,test,2,prime_trump,33,6,21,0,1019,83,42
80918,12:46:05,418702875,test,2,prime_obama,34,5,61,0,742,78,42
80918,12:46:05,418702875,test,2,prime_obama,35,5,54,1,508,80,42
80918,12:46:05,418702875,test,2,prime_obama,36,2,32,1,403,80,42
80918,12:46:05,418702875,test,2,prime_obama,37,3,60,1,598,81,42
80918,12:46:05,418702875,test,2,prime_obama,38,6,55,1,562,82,42
80918,12:46:05,418702875,test,2,prime_obama,39,4,35,1,638,83,42
80918,12:46:05,418702875,test,2,prime_trump,40,5,6,1,550,83,46
80918,12:46:05,418702875,test,2,prime_trump,41,3,3,1,546,83,50
80918,12:46:05,418702875,test,2,prime_trump,42,1,46,1,703,83,52
80918,12:46:05,418702875,test,2,prime_trump,43,4,9,1,753,83,55
80918,12:46:05,418702875,test,2,prime_trump,44,2,43,0,733,83,52
80918,12:46:05,418702875,test,2,prime_obama,45,1,12,1,381,84,52
80918,12:46:05,418702875,test,2,prime_trump,46,4,69,1,512,84,55
80918,12:46:05,418702875,test,2,prime_obama,47,1,19,1,437,84,55
80918,12:46:05,418702875,test,2,prime_trump,48,5,49,1,464,84,57
80918,12:46:05,418702875,test,2,prime_trump,49,1,17,0,605,84,54
80918,12:46:05,418702875,test,2,prime_obama,50,3,47,1,514,85,54
80918,12:46:05,418702875,test,2,prime_trump,51,2,70,1,611,85,56
80918,12:46:05,418702875,test,2,prime_trump,52,6,28,1,513,85,58
80918,12:46:05,418702875,test,2,prime_trump,53,3,71,1,487,85,60
80918,12:46:05,418702875,test,2,prime_obama,54,4,39,1,692,85,60
80918,12:46:05,418702875,test,2,prime_obama,55,6,45,1,369,86,60
80918,12:46:05,418702875,test,2,prime_trump,56,3,42,1,690,86,61
80918,12:46:05,418702875,test,2,prime_trump,57,6,53,1,595,86,62
80918,12:46:05,418702875,test,2,prime_obama,58,2,52,1,484,86,62
80918,12:46:05,418702875,test,2,prime_trump,59,1,41,1,573,86,64
80918,12:46:05,418702875,test,2,prime_obama,60,5,1,0,788,83,64
80918,12:46:05,418702875,test,2,prime_trump,61,2,26,1,661,83,65
80918,12:46:05,418702875,test,2,prime_obama,62,4,68,0,927,81,65
80918,12:46:05,418702875,test,2,prime_trump,63,5,48,1,520,81,66
80918,12:46:05,418702875,test,2,prime_obama,64,5,24,1,425,81,66
80918,12:46:05,418702875,test,2,prime_obama,65,3,33,0,552,79,66
80918,12:46:05,418702875,test,2,prime_trump,66,4,16,0,846,79,64
80918,12:46:05,418702875,test,2,prime_trump,67,3,69,1,639,79,65
80918,12:46:05,418702875,test,2,prime_trump,68,5,55,1,1027,79,66
80918,12:46:05,418702875,test,2,prime_obama,69,1,28,1,435,80,66
80918,12:46:05,418702875,test,2,prime_trump,70,2,65,1,453,80,67
80918,12:46:05,418702875,test,2,prime_trump,71,4,22,0,469,80,65
80918,12:46:05,418702875,test,2,prime_obama,72,2,11,0,538,77,65
80918,12:46:05,418702875,test,2,prime_trump,73,6,47,1,385,77,66
80918,11:50:32,376635527,practice,1,prime_trump_practice,4,0,0,0,1195,0,0
80918,11:50:32,376635527,practice,1,prime_obama_practice,5,0,0,1,307,0,0
80918,11:50:32,376635527,practice,1,prime_trump_practice,6,0,0,0,161,0,0
80918,11:50:32,376635527,practice,1,prime_trump_practice,7,0,0,1,723,0,0
80918,11:50:32,376635527,practice,1,prime_trump_practice,8,0,0,0,212,0,0
80918,11:50:32,376635527,practice,1,prime_obama_practice,9,0,0,1,10,0,0
80918,11:50:32,376635527,practice,1,prime_obama_practice,10,0,0,0,730,0,0
80918,11:50:32,376635527,practice,1,prime_obama_practice,11,0,0,1,403,0,0
80918,11:50:32,376635527,practice,1,prime_obama_practice,12,0,0,0,533,0,0
80918,11:50:32,376635527,practice,1,prime_trump_practice,13,0,0,0,178,0,0
80918,11:50:32,376635527,test,2,prime_trump,2,1,50,0,356,0,0
80918,11:50:32,376635527,test,2,prime_obama,3,4,27,1,52,100,0
80918,11:50:32,376635527,test,2,prime_obama,4,1,12,0,1348,50,0
80918,11:50:32,376635527,test,2,prime_obama,5,2,70,1,174,66,0
80918,11:50:32,376635527,test,2,prime_obama,6,5,36,0,236,50,0
80918,11:50:32,376635527,test,2,prime_trump,7,4,35,1,2,50,50
80918,11:50:32,376635527,test,2,prime_trump,8,2,28,0,142,50,33
80918,11:50:32,376635527,test,2,prime_obama,9,4,17,1,131,60,33
80918,11:50:32,376635527,test,2,prime_trump,10,6,32,1,164,60,50
80918,11:50:32,376635527,test,2,prime_obama,11,3,69,1,145,66,50
80918,11:50:32,376635527,test,2,prime_obama,12,6,59,0,563,57,50
80918,11:50:32,376635527,test,2,prime_trump,13,1,44,0,128,57,40
80918,11:50:32,376635527,test,2,prime_trump,14,3,52,1,60,57,50
80918,11:50:32,376635527,test,2,prime_trump,15,5,8,1,346,57,57
80918,11:50:32,376635527,test,2,prime_trump,16,6,26,0,65,57,50
80918,11:50:32,376635527,test,2,prime_obama,17,4,61,1,185,62,50
80918,11:50:32,376635527,test,2,prime_obama,18,2,9,0,217,55,50
80918,11:50:32,376635527,test,2,prime_obama,19,6,24,0,382,50,50
80918,11:50:32,376635527,test,2,prime_trump,20,1,45,1,201,50,55
80918,11:50:32,376635527,test,2,prime_trump,21,2,7,0,7,50,50
80918,11:50:32,376635527,test,2,prime_obama,22,3,51,0,279,45,50
80918,11:50:32,376635527,test,2,prime_trump,23,5,66,0,483,45,45
80918,11:50:32,376635527,test,2,prime_obama,24,1,72,1,402,50,45
80918,11:50:32,376635527,test,2,prime_trump,25,4,38,1,303,50,50
80918,11:50:32,376635527,test,2,prime_trump,26,3,30,0,219,50,46
80918,11:50:32,376635527,test,2,prime_obama,27,5,63,0,213,46,46
80918,11:50:32,376635527,test,2,prime_trump,28,4,62,0,352,46,42
80918,11:50:32,376635527,test,2,prime_trump,29,3,21,0,550,46,40
80918,11:50:32,376635527,test,2,prime_trump,30,6,31,1,57,46,43
80918,11:50:32,376635527,test,2,prime_trump,31,2,5,1,340,46,47
80918,11:50:32,376635527,test,2,prime_trump,32,1,13,0,830,46,44
80918,11:50:32,376635527,test,2,prime_trump,33,5,10,0,1058,46,42
80918,11:50:32,376635527,test,2,prime_obama,34,5,3,1,288,50,42
80918,11:50:32,376635527,test,2,prime_trump,35,5,53,1,252,50,45
80918,11:50:32,376635527,test,2,prime_obama,36,1,48,0,348,46,45
80918,11:50:32,376635527,test,2,prime_trump,37,6,55,0,421,46,42
80918,11:50:32,376635527,test,2,prime_trump,38,3,64,1,324,46,45
80918,11:50:32,376635527,test,2,prime_trump,39,2,11,1,987,46,47
80918,11:50:32,376635527,test,2,prime_obama,40,6,19,0,482,43,47
80918,11:50:32,376635527,test,2,prime_trump,41,4,29,1,191,43,50
80918,11:50:32,376635527,test,2,prime_trump,42,1,58,1,437,43,52
80918,11:50:32,376635527,test,2,prime_obama,43,3,4,0,302,41,52
80918,11:50:32,376635527,test,2,prime_obama,44,4,41,1,214,44,52
80918,11:50:32,376635527,test,2,prime_obama,45,2,25,0,104,42,52
80918,11:50:32,376635527,test,2,prime_obama,46,3,56,0,382,40,52
80918,11:50:32,376635527,test,2,prime_obama,47,2,46,1,153,42,52
80918,11:50:32,376635527,test,2,prime_obama,48,6,43,0,990,40,52
80918,11:50:32,376635527,test,2,prime_obama,49,5,22,0,1003,39,52
80918,11:50:32,376635527,test,2,prime_obama,50,1,20,1,461,41,52
80918,11:50:32,376635527,test,2,prime_trump,51,2,37,1,559,41,53
80918,11:50:32,376635527,test,2,prime_obama,52,4,40,0,224,40,53
80918,11:50:32,376635527,test,2,prime_trump,53,6,33,1,197,40,55
80918,11:50:32,376635527,test,2,prime_obama,54,1,14,0,292,38,55
80918,11:50:32,376635527,test,2,prime_trump,55,5,23,0,370,38,53
80918,11:50:32,376635527,test,2,prime_trump,56,1,68,1,493,38,55
80918,11:50:32,376635527,test,2,prime_trump,57,3,34,0,132,38,53
80918,11:50:32,376635527,test,2,prime_obama,58,2,42,1,194,40,53
80918,11:50:32,376635527,test,2,prime_obama,59,5,71,0,468,39,53
80918,11:50:32,376635527,test,2,prime_obama,60,4,54,1,516,41,53
80918,11:50:32,376635527,test,2,prime_obama,61,6,2,1,172,43,53
80918,11:50:32,376635527,test,2,prime_trump,62,4,1,0,32,43,51
80918,11:50:32,376635527,test,2,prime_obama,63,3,65,0,266,41,51
80918,11:50:32,376635527,test,2,prime_trump,64,1,6,0,209,41,50
80918,11:50:32,376635527,test,2,prime_trump,65,4,5,1,5,41,51
80918,11:50:32,376635527,test,2,prime_obama,66,6,65,0,278,40,51
80918,11:50:32,376635527,test,2,prime_obama,67,4,50,0,509,39,51
80918,11:50:32,376635527,test,2,prime_obama,68,3,53,0,79,38,51
80918,11:50:32,376635527,test,2,prime_obama,69,1,8,1,45,40,51
80918,11:50:32,376635527,test,2,prime_obama,70,5,29,0,505,38,51
80918,11:50:32,376635527,test,2,prime_trump,71,3,4,1,368,38,52
80918,11:50:32,376635527,test,2,prime_trump,72,2,64,0,209,38,51
80918,11:50:32,376635527,test,2,prime_trump,73,5,44,0,188,38,50
80918,12:52:12,956349113,practice,1,prime_trump_practice,4,0,0,0,1153,0,0
80918,12:52:12,956349113,practice,1,prime_trump_practice,5,0,0,0,495,0,0
80918,12:52:12,956349113,practice,1,prime_obama_practice,6,0,0,1,511,0,0
80918,12:52:12,956349113,practice,1,prime_obama_practice,7,0,0,1,374,0,0
80918,12:52:12,956349113,practice,1,prime_trump_practice,8,0,0,0,619,0,0
80918,12:52:12,956349113,practice,1,prime_obama_practice,9,0,0,1,411,0,0
80918,12:52:12,956349113,practice,1,prime_trump_practice,10,0,0,0,363,0,0
80918,12:52:12,956349113,practice,1,prime_obama_practice,11,0,0,1,399,0,0
80918,12:52:12,956349113,practice,1,prime_trump_practice,12,0,0,0,374,0,0
80918,12:52:12,956349113,practice,1,prime_obama_practice,13,0,0,1,416,0,0
80918,12:52:12,956349113,test,2,prime_obama,2,2,36,1,555,100,0
80918,12:52:12,956349113,test,2,prime_obama,3,2,49,1,694,100,0
80918,12:52:12,956349113,test,2,prime_obama,4,1,53,1,194,100,0
80918,12:52:12,956349113,test,2,prime_trump,5,5,52,0,184,100,0
80918,12:52:12,956349113,test,2,prime_trump,6,5,44,0,139,100,0
80918,12:52:12,956349113,test,2,prime_trump,7,3,65,0,607,100,0
80918,12:52:12,956349113,test,2,prime_obama,8,6,5,1,347,100,0
80918,12:52:12,956349113,test,2,prime_trump,9,4,32,0,141,100,0
80918,12:52:12,956349113,test,2,prime_obama,10,5,31,1,372,100,0
80918,12:52:12,956349113,test,2,prime_trump,11,6,12,0,459,100,0
80918,12:52:12,956349113,test,2,prime_obama,12,4,62,1,356,100,0
80918,12:52:12,956349113,test,2,prime_trump,13,2,21,0,167,100,0
80918,12:52:12,956349113,test,2,prime_trump,14,1,37,0,297,100,0
80918,12:52:12,956349113,test,2,prime_obama,15,3,30,1,321,100,0
80918,12:52:12,956349113,test,2,prime_trump,16,4,39,0,323,100,0
80918,12:52:12,956349113,test,2,prime_obama,17,3,10,1,404,100,0
80918,12:52:12,956349113,test,2,prime_obama,18,2,13,0,514,88,0
80918,12:52:12,956349113,test,2,prime_trump,19,2,2,0,321,88,0
80918,12:52:12,956349113,test,2,prime_obama,20,4,70,1,256,90,0
80918,12:52:12,956349113,test,2,prime_obama,21,1,61,1,225,90,0
80918,12:52:12,956349113,test,2,prime_trump,22,1,26,0,247,90,0
80918,12:52:12,956349113,test,2,prime_trump,23,3,69,0,209,90,0
80918,12:52:12,956349113,test,2,prime_trump,24,6,3,0,283,90,0
80918,12:52:12,956349113,test,2,prime_trump,25,5,35,0,256,90,0
80918,12:52:12,956349113,test,2,prime_obama,26,6,18,1,314,91,0
80918,12:52:12,956349113,test,2,prime_trump,27,2,8,0,265,91,0
80918,12:52:12,956349113,test,2,prime_trump,28,1,68,0,345,91,0
80918,12:52:12,956349113,test,2,prime_obama,29,5,23,1,274,92,0
80918,12:52:12,956349113,test,2,prime_obama,30,5,14,1,169,92,0
80918,12:52:12,956349113,test,2,prime_trump,31,3,25,0,231,92,0
80918,12:52:12,956349113,test,2,prime_trump,32,4,27,0,367,92,0
80918,12:52:12,956349113,test,2,prime_obama,33,1,6,1,252,93,0
80918,12:52:12,956349113,test,2,prime_trump,34,5,63,0,411,93,0
80918,12:52:12,956349113,test,2,prime_obama,35,3,56,1,442,93,0
80918,12:52:12,956349113,test,2,prime_trump,36,6,47,0,181,93,0
80918,12:52:12,956349113,test,2,prime_trump,37,4,29,0,277,93,0
80918,12:52:12,956349113,test,2,prime_obama,38,6,40,1,149,94,0
80918,12:52:12,956349113,test,2,prime_trump,39,5,43,0,335,94,0
80918,12:52:12,956349113,test,2,prime_trump,40,1,60,0,320,94,0
80918,12:52:12,956349113,test,2,prime_obama,41,4,71,1,333,94,0
80918,12:52:12,956349113,test,2,prime_obama,42,2,42,1,207,94,0
80918,12:52:12,956349113,test,2,prime_obama,43,6,33,1,246,95,0
80918,12:52:12,956349113,test,2,prime_obama,44,3,41,1,163,95,0
80918,12:52:12,956349113,test,2,prime_obama,45,2,54,1,209,95,0
80918,12:52:12,956349113,test,2,prime_trump,46,3,46,0,215,95,0
80918,12:52:12,956349113,test,2,prime_trump,47,2,72,0,300,95,0
80918,12:52:12,956349113,test,2,prime_obama,48,5,51,1,150,95,0
80918,12:52:12,956349113,test,2,prime_obama,49,4,16,1,162,95,0
80918,12:52:12,956349113,test,2,prime_obama,50,1,7,1,150,96,0
80918,12:52:12,956349113,test,2,prime_obama,51,5,48,1,162,96,0
80918,12:52:12,956349113,test,2,prime_obama,52,2,34,1,196,96,0
80918,12:52:12,956349113,test,2,prime_trump,53,6,66,0,309,96,0
80918,12:52:12,956349113,test,2,prime_obama,54,1,11,1,339,96,0
80918,12:52:12,956349113,test,2,prime_trump,55,3,4,0,257,96,0
80918,12:52:12,956349113,test,2,prime_obama,56,3,19,1,214,96,0
80918,12:52:12,956349113,test,2,prime_obama,57,6,57,1,163,96,0
80918,12:52:12,956349113,test,2,prime_obama,58,4,45,1,164,96,0
80918,12:52:12,956349113,test,2,prime_obama,59,3,55,1,130,96,0
80918,12:52:12,956349113,test,2,prime_trump,60,1,50,0,355,96,0
80918,12:52:12,956349113,test,2,prime_obama,61,5,67,1,245,96,0
80918,12:52:12,956349113,test,2,prime_trump,62,2,28,0,375,96,0
80918,12:52:12,956349113,test,2,prime_obama,63,1,15,1,215,97,0
80918,12:52:12,956349113,test,2,prime_trump,64,5,33,0,311,97,0
80918,12:52:12,956349113,test,2,prime_trump,65,4,69,0,431,97,0
80918,12:52:12,956349113,test,2,prime_trump,66,6,11,0,266,97,0
80918,12:52:12,956349113,test,2,prime_trump,67,5,5,0,245,97,0
80918,12:52:12,956349113,test,2,prime_trump,68,3,17,0,117,97,0
80918,12:52:12,956349113,test,2,prime_trump,69,1,49,0,60,97,0
80918,12:52:12,956349113,test,2,prime_obama,70,6,19,1,149,97,0
80918,12:52:12,956349113,test,2,prime_trump,71,6,41,0,245,97,0
80918,12:52:12,956349113,test,2,prime_obama,72,4,60,1,161,97,0
80918,12:52:12,956349113,test,2,prime_trump,73,2,12,0,263,97,0
80918,09:51:47,675918708,practice,1,prime_trump_practice,4,0,0,1,1031,0,0
80918,09:51:47,675918708,practice,1,prime_obama_practice,5,0,0,1,603,0,0
80918,09:51:47,675918708,practice,1,prime_obama_practice,6,0,0,0,752,0,0
80918,09:51:47,675918708,practice,1,prime_trump_practice,7,0,0,0,879,0,0
80918,09:51:47,675918708,practice,1,prime_obama_practice,8,0,0,1,569,0,0
80918,09:51:47,675918708,practice,1,prime_obama_practice,9,0,0,0,1016,0,0
80918,09:51:47,675918708,practice,1,prime_trump_practice,10,0,0,1,1244,0,0
80918,09:51:47,675918708,practice,1,prime_trump_practice,11,0,0,1,825,0,0
80918,09:51:47,675918708,practice,1,prime_trump_practice,12,0,0,0,621,0,0
80918,09:51:47,675918708,practice,1,prime_obama_practice,13,0,0,1,1434,0,0
80918,09:51:47,675918708,test,2,prime_obama,2,2,39,0,657,0,0
80918,09:51:47,675918708,test,2,prime_trump,3,2,58,0,708,0,0
80918,09:51:47,675918708,test,2,prime_trump,4,6,9,1,725,0,50
80918,09:51:47,675918708,test,2,prime_trump,5,4,35,1,542,0,66
80918,09:51:47,675918708,test,2,prime_trump,6,5,72,0,614,0,50
80918,09:51:47,675918708,test,2,prime_obama,7,3,4,1,691,50,50
80918,09:51:47,675918708,test,2,prime_trump,8,1,16,1,669,50,60
80918,09:51:47,675918708,test,2,prime_obama,9,2,46,0,672,33,60
80918,09:51:47,675918708,test,2,prime_trump,10,3,62,0,714,33,50
80918,09:51:47,675918708,test,2,prime_obama,11,1,60,0,747,25,50
80918,09:51:47,675918708,test,2,prime_obama,12,4,52,1,667,40,50
80918,09:51:47,675918708,test,2,prime_obama,13,5,69,1,838,50,50
80918,09:51:47,675918708,test,2,prime_obama,14,6,38,0,697,42,50
80918,09:51:47,675918708,test,2,prime_trump,15,2,51,1,764,42,57
80918,09:51:47,675918708,test,2,prime_trump,16,2,43,0,643,42,50
80918,09:51:47,675918708,test,2,prime_obama,17,2,20,1,671,50,50
80918,09:51:47,675918708,test,2,prime_trump,18,4,33,0,721,50,44
80918,09:51:47,675918708,test,2,prime_obama,19,1,19,0,530,44,44
80918,09:51:47,675918708,test,2,prime_trump,20,6,8,1,498,44,50
80918,09:51:47,675918708,test,2,prime_obama,21,5,2,1,749,50,50
80918,09:51:47,675918708,test,2,prime_obama,22,4,18,0,613,45,50
80918,09:51:47,675918708,test,2,prime_trump,23,5,55,0,538,45,45
80918,09:51:47,675918708,test,2,prime_obama,24,6,54,1,610,50,45
80918,09:51:47,675918708,test,2,prime_trump,25,1,27,0,759,50,41
80918,09:51:47,675918708,test,2,prime_obama,26,3,34,0,542,46,41
80918,09:51:47,675918708,test,2,prime_obama,27,3,21,0,718,42,41
80918,09:51:47,675918708,test,2,prime_trump,28,3,64,1,527,42,46
80918,09:51:47,675918708,test,2,prime_obama,29,6,71,0,455,40,46
80918,09:51:47,675918708,test,2,prime_trump,30,1,3,1,579,40,50
80918,09:51:47,675918708,test,2,prime_trump,31,2,1,0,649,40,46
80918,09:51:47,675918708,test,2,prime_trump,32,3,32,0,621,40,43
80918,09:51:47,675918708,test,2,prime_trump,33,5,44,1,506,40,47
80918,09:51:47,675918708,test,2,prime_trump,34,6,47,0,539,40,44
80918,09:51:47,675918708,test,2,prime_obama,35,2,53,0,682,37,44
80918,09:51:47,675918708,test,2,prime_obama,36,1,45,1,493,41,44
80918,09:51:47,675918708,test,2,prime_trump,37,4,15,0,447,41,42
80918,09:51:47,675918708,test,2,prime_obama,38,5,5,0,596,38,42
80918,09:51:47,675918708,test,2,prime_obama,39,4,10,1,577,42,42
80918,09:51:47,675918708,test,2,prime_obama,40,5,7,0,472,40,42
80918,09:51:47,675918708,test,2,prime_obama,41,2,30,0,498,38,42
80918,09:51:47,675918708,test,2,prime_obama,42,1,56,0,932,36,42
80918,09:51:47,675918708,test,2,prime_obama,43,4,66,1,590,39,42
80918,09:51:47,675918708,test,2,prime_obama,44,3,42,0,579,37,42
80918,09:51:47,675918708,test,2,prime_obama,45,6,17,0,977,36,42
80918,09:51:47,675918708,test,2,prime_obama,46,2,61,1,760,38,42
80918,09:51:47,675918708,test,2,prime_trump,47,3,23,0,527,38,40
80918,09:51:47,675918708,test,2,prime_trump,48,4,12,0,640,38,38
80918,09:51:47,675918708,test,2,prime_obama,49,3,70,0,684,37,38
80918,09:51:47,675918708,test,2,prime_trump,50,6,67,0,637,37,36
80918,09:51:47,675918708,test,2,prime_trump,51,1,65,0,554,37,34
80918,09:51:47,675918708,test,2,prime_trump,52,5,13,0,952,37,33
80918,09:51:47,675918708,test,2,prime_obama,53,5,63,0,624,35,33
80918,09:51:47,675918708,test,2,prime_obama,54,1,14,0,476,34,33
80918,09:51:47,675918708,test,2,prime_trump,55,2,57,1,615,34,36
80918,09:51:47,675918708,test,2,prime_obama,56,6,26,0,532,33,36
80918,09:51:47,675918708,test,2,prime_obama,57,4,6,0,805,32,36
80918,09:51:47,675918708,test,2,prime_trump,58,3,41,0,482,32,34
80918,09:51:47,675918708,test,2,prime_trump,59,2,40,1,572,32,37
80918,09:51:47,675918708,test,2,prime_trump,60,6,49,0,914,32,35
80918,09:51:47,675918708,test,2,prime_trump,61,1,28,1,772,32,37
80918,09:51:47,675918708,test,2,prime_trump,62,5,68,1,683,32,40
80918,09:51:47,675918708,test,2,prime_trump,63,4,24,0,597,32,38
80918,09:51:47,675918708,test,2,prime_trump,64,2,26,0,491,32,37
80918,09:51:47,675918708,test,2,prime_trump,65,4,10,0,436,32,36
80918,09:51:47,675918708,test,2,prime_trump,66,3,9,1,736,32,38
80918,09:51:47,675918708,test,2,prime_obama,67,4,63,0,896,31,38
80918,09:51:47,675918708,test,2,prime_obama,68,3,27,0,691,30,38
80918,09:51:47,675918708,test,2,prime_obama,69,2,41,0,900,29,38
80918,09:51:47,675918708,test,2,prime_obama,70,5,38,0,821,28,38
80918,09:51:47,675918708,test,2,prime_trump,71,5,5,0,794,28,37
80918,09:51:47,675918708,test,2,prime_obama,72,6,32,0,720,27,37
80918,09:51:47,675918708,test,2,prime_trump,73,1,65,1,568,27,38
80918,11:55:18,73938476,practice,1,prime_obama_practice,4,0,0,1,1089,0,0
80918,11:55:18,73938476,practice,1,prime_trump_practice,5,0,0,0,400,0,0
80918,11:55:18,73938476,practice,1,prime_obama_practice,6,0,0,1,197,0,0
80918,11:55:18,73938476,practice,1,prime_trump_practice,7,0,0,0,90,0,0
80918,11:55:18,73938476,practice,1,prime_obama_practice,8,0,0,1,99,0,0
80918,11:55:18,73938476,practice,1,prime_trump_practice,9,0,0,0,5,0,0
80918,11:55:18,73938476,practice,1,prime_obama_practice,10,0,0,1,49,0,0
80918,11:55:18,73938476,practice,1,prime_obama_practice,11,0,0,0,228,0,0
80918,11:55:18,73938476,practice,1,prime_trump_practice,12,0,0,1,111,0,0
80918,11:55:18,73938476,practice,1,prime_trump_practice,13,0,0,1,55,0,0
80918,11:55:18,73938476,test,2,prime_obama,2,4,7,1,100,100,0
80918,11:55:18,73938476,test,2,prime_obama,3,5,55,0,61,50,0
80918,11:55:18,73938476,test,2,prime_obama,4,2,34,1,55,66,0
80918,11:55:18,73938476,test,2,prime_obama,5,4,54,1,42,75,0
80918,11:55:18,73938476,test,2,prime_obama,6,1,31,1,93,80,0
80918,11:55:18,73938476,test,2,prime_trump,7,6,20,1,29,80,100
80918,11:55:18,73938476,test,2,prime_obama,8,3,38,0,90,66,100
80918,11:55:18,73938476,test,2,prime_obama,9,6,61,1,75,71,100
80918,11:55:18,73938476,test,2,prime_trump,10,2,23,0,285,71,50
80918,11:55:18,73938476,test,2,prime_trump,11,3,57,1,94,71,66
80918,11:55:18,73938476,test,2,prime_obama,12,6,18,0,39,62,66
80918,11:55:18,73938476,test,2,prime_obama,13,3,43,0,202,55,66
80918,11:55:18,73938476,test,2,prime_obama,14,2,9,0,79,50,66
80918,11:55:18,73938476,test,2,prime_obama,15,1,44,0,81,45,66
80918,11:55:18,73938476,test,2,prime_trump,16,1,21,1,98,45,75
80918,11:55:18,73938476,test,2,prime_trump,17,5,66,0,52,45,60
80918,11:55:18,73938476,test,2,prime_trump,18,4,56,0,15,45,50
80918,11:55:18,73938476,test,2,prime_obama,19,5,70,0,3,41,50
80918,11:55:18,73938476,test,2,prime_obama,20,4,52,0,31,38,50
80918,11:55:18,73938476,test,2,prime_obama,21,4,13,0,43,35,50
80918,11:55:18,73938476,test,2,prime_trump,22,6,5,0,54,35,42
80918,11:55:18,73938476,test,2,prime_trump,23,3,6,0,113,35,37
80918,11:55:18,73938476,test,2,prime_obama,24,5,67,1,121,40,37
80918,11:55:18,73938476,test,2,prime_trump,25,2,42,1,65,40,44
80918,11:55:18,73938476,test,2,prime_obama,26,6,36,1,67,43,44
80918,11:55:18,73938476,test,2,prime_obama,27,2,29,0,166,41,44
80918,11:55:18,73938476,test,2,prime_trump,28,6,37,0,60,41,40
80918,11:55:18,73938476,test,2,prime_trump,29,1,48,1,70,41,45
80918,11:55:18,73938476,test,2,prime_obama,30,1,59,1,104,44,45
80918,11:55:18,73938476,test,2,prime_trump,31,5,51,0,24,44,41
80918,11:55:18,73938476,test,2,prime_obama,32,3,33,0,140,42,41
80918,11:55:18,73938476,test,2,prime_obama,33,3,10,1,195,45,41
80918,11:55:18,73938476,test,2,prime_trump,34,4,68,1,128,45,46
80918,11:55:18,73938476,test,2,prime_trump,35,1,27,0,64,45,42
80918,11:55:18,73938476,test,2,prime_obama,36,4,47,0,186,42,42
80918,11:55:18,73938476,test,2,prime_trump,37,5,28,0,95,42,40
80918,11:55:18,73938476,test,2,prime_obama,38,6,69,0,96,40,40
80918,11:55:18,73938476,test,2,prime_trump,39,4,64,0,105,40,37
80918,11:55:18,73938476,test,2,prime_trump,40,2,45,0,50,40,35
80918,11:55:18,73938476,test,2,prime_obama,41,5,25,0,61,39,35
80918,11:55:18,73938476,test,2,prime_trump,42,6,40,0,103,39,33
80918,11:55:18,73938476,test,2,prime_obama,43,2,26,0,95,37,33
80918,11:55:18,73938476,test,2,prime_trump,44,3,12,0,128,37,31
80918,11:55:18,73938476,test,2,prime_obama,45,1,24,0,128,36,31
80918,11:55:18,73938476,test,2,prime_trump,46,5,53,0,104,36,30
80918,11:55:18,73938476,test,2,prime_obama,47,4,8,0,88,34,30
80918,11:55:18,73938476,test,2,prime_obama,48,1,35,0,169,33,30
80918,11:55:18,73938476,test,2,prime_trump,49,1,11,0,144,33,28
80918,11:55:18,73938476,test,2,prime_obama,50,6,16,0,118,32,28
80918,11:55:18,73938476,test,2,prime_trump,51,4,14,0,7,32,27
80918,11:55:18,73938476,test,2,prime_obama,52,3,63,1,75,34,27
80918,11:55:18,73938476,test,2,prime_trump,53,2,2,1,125,34,30
80918,11:55:18,73938476,test,2,prime_obama,54,2,3,0,61,33,30
80918,11:55:18,73938476,test,2,prime_obama,55,5,32,0,119,32,30
80918,11:55:18,73938476,test,2,prime_trump,56,6,50,0,31,32,29
80918,11:55:18,73938476,test,2,prime_trump,57,3,49,0,35,32,28
80918,11:55:18,73938476,test,2,prime_trump,58,2,1,1,207,32,30
80918,11:55:18,73938476,test,2,prime_trump,59,5,46,1,43,32,33
80918,11:55:18,73938476,test,2,prime_obama,60,1,19,0,14,31,33
80918,11:55:18,73938476,test,2,prime_trump,61,6,41,0,179,31,32
80918,11:55:18,73938476,test,2,prime_trump,62,4,71,0,104,31,31
80918,11:55:18,73938476,test,2,prime_trump,63,3,4,1,8,31,33
80918,11:55:18,73938476,test,2,prime_trump,64,1,68,0,93,31,32
80918,11:55:18,73938476,test,2,prime_trump,65,4,26,0,102,31,31
80918,11:55:18,73938476,test,2,prime_obama,66,5,52,1,127,33,31
80918,11:55:18,73938476,test,2,prime_obama,67,4,57,0,95,32,31
80918,11:55:18,73938476,test,2,prime_trump,68,2,17,0,128,32,30
80918,11:55:18,73938476,test,2,prime_obama,69,2,41,0,239,31,30
80918,11:55:18,73938476,test,2,prime_trump,70,6,67,0,33,31,29
80918,11:55:18,73938476,test,2,prime_obama,71,6,15,0,110,30,29
80918,11:55:18,73938476,test,2,prime_trump,72,3,8,0,54,30,28
80918,11:55:18,73938476,test,2,prime_trump,73,5,50,0,129,30,27
80918,11:54:54,72372970,practice,1,prime_trump_practice,4,0,0,0,2072,0,0
80918,11:54:54,72372970,practice,1,prime_trump_practice,5,0,0,0,1067,0,0
80918,11:54:54,72372970,practice,1,prime_obama_practice,6,0,0,0,1822,0,0
80918,11:54:54,72372970,practice,1,prime_obama_practice,7,0,0,1,516,0,0
80918,11:54:54,72372970,practice,1,prime_trump_practice,8,0,0,0,541,0,0
80918,11:54:54,72372970,practice,1,prime_trump_practice,9,0,0,0,590,0,0
80918,11:54:54,72372970,practice,1,prime_obama_practice,10,0,0,1,518,0,0
80918,11:54:54,72372970,practice,1,prime_obama_practice,11,0,0,1,669,0,0
80918,11:54:54,72372970,practice,1,prime_obama_practice,12,0,0,1,409,0,0
80918,11:54:54,72372970,practice,1,prime_trump_practice,13,0,0,0,222,0,0
80918,11:54:54,72372970,test,2,prime_obama,2,5,8,1,1445,100,0
80918,11:54:54,72372970,test,2,prime_obama,3,1,21,1,393,100,0
80918,11:54:54,72372970,test,2,prime_trump,4,6,46,0,225,100,0
80918,11:54:54,72372970,test,2,prime_obama,5,6,70,1,268,100,0
80918,11:54:54,72372970,test,2,prime_obama,6,4,13,1,336,100,0
80918,11:54:54,72372970,test,2,prime_trump,7,5,39,0,96,100,0
80918,11:54:54,72372970,test,2,prime_trump,8,1,53,0,387,100,0
80918,11:54:54,72372970,test,2,prime_trump,9,6,60,1,1114,100,25
80918,11:54:54,72372970,test,2,prime_trump,10,3,57,0,507,100,20
80918,11:54:54,72372970,test,2,prime_trump,11,4,20,0,348,100,16
80918,11:54:54,72372970,test,2,prime_trump,12,2,2,0,269,100,14
80918,11:54:54,72372970,test,2,prime_obama,13,3,7,1,288,100,14
80918,11:54:54,72372970,test,2,prime_trump,14,6,51,0,218,100,12
80918,11:54:54,72372970,test,2,prime_obama,15,5,43,1,279,100,12
80918,11:54:54,72372970,test,2,prime_obama,16,2,52,1,306,100,12
80918,11:54:54,72372970,test,2,prime_trump,17,2,32,0,180,100,11
80918,11:54:54,72372970,test,2,prime_trump,18,3,11,0,443,100,10
80918,11:54:54,72372970,test,2,prime_obama,19,6,18,1,351,100,10
80918,11:54:54,72372970,test,2,prime_obama,20,2,42,1,311,100,10
80918,11:54:54,72372970,test,2,prime_obama,21,5,68,1,440,100,10
80918,11:54:54,72372970,test,2,prime_trump,22,5,15,0,173,100,9
80918,11:54:54,72372970,test,2,prime_obama,23,1,26,1,164,100,9
80918,11:54:54,72372970,test,2,prime_obama,24,3,9,1,444,100,9
80918,11:54:54,72372970,test,2,prime_trump,25,4,34,0,1088,100,8
80918,11:54:54,72372970,test,2,prime_obama,26,4,3,1,347,100,8
80918,11:54:54,72372970,test,2,prime_obama,27,4,61,1,771,100,8
80918,11:54:54,72372970,test,2,prime_trump,28,1,65,0,59,100,7
80918,11:54:54,72372970,test,2,prime_trump,29,2,67,0,110,100,7
80918,11:54:54,72372970,test,2,prime_obama,30,5,28,1,215,100,7
80918,11:54:54,72372970,test,2,prime_obama,31,1,22,1,101,100,7
80918,11:54:54,72372970,test,2,prime_trump,32,3,40,0,94,100,6
80918,11:54:54,72372970,test,2,prime_trump,33,5,36,0,296,100,6
80918,11:54:54,72372970,test,2,prime_obama,34,2,64,1,115,100,6
80918,11:54:54,72372970,test,2,prime_obama,35,3,19,1,165,100,6
80918,11:54:54,72372970,test,2,prime_obama,36,6,23,1,228,100,6
80918,11:54:54,72372970,test,2,prime_obama,37,5,58,1,121,100,6
80918,11:54:54,72372970,test,2,prime_trump,38,6,41,0,114,100,5
80918,11:54:54,72372970,test,2,prime_obama,39,6,72,1,268,100,5
80918,11:54:54,72372970,test,2,prime_obama,40,2,45,1,335,100,5
80918,11:54:54,72372970,test,2,prime_trump,41,4,62,0,87,100,5
80918,11:54:54,72372970,test,2,prime_trump,42,1,1,0,354,100,5
80918,11:54:54,72372970,test,2,prime_obama,43,4,6,1,249,100,5
80918,11:54:54,72372970,test,2,prime_trump,44,4,54,0,301,100,5
80918,11:54:54,72372970,test,2,prime_trump,45,5,4,0,263,100,4
80918,11:54:54,72372970,test,2,prime_obama,46,1,69,1,146,100,4
80918,11:54:54,72372970,test,2,prime_trump,47,1,5,0,203,100,4
80918,11:54:54,72372970,test,2,prime_trump,48,3,47,0,241,100,4
80918,11:54:54,72372970,test,2,prime_obama,49,3,37,1,181,100,4
80918,11:54:54,72372970,test,2,prime_obama,50,1,71,1,219,100,4
80918,11:54:54,72372970,test,2,prime_trump,51,2,14,0,160,100,4
80918,11:54:54,72372970,test,2,prime_trump,52,6,55,0,320,100,4
80918,11:54:54,72372970,test,2,prime_obama,53,6,31,1,193,100,4
80918,11:54:54,72372970,test,2,prime_trump,54,6,66,0,168,100,3
80918,11:54:54,72372970,test,2,prime_trump,55,2,29,0,183,100,3
80918,11:54:54,72372970,test,2,prime_obama,56,2,16,1,117,100,3
80918,11:54:54,72372970,test,2,prime_obama,57,3,27,1,335,100,3
80918,11:54:54,72372970,test,2,prime_trump,58,1,49,0,102,100,3
80918,11:54:54,72372970,test,2,prime_obama,59,5,12,1,72,100,3
80918,11:54:54,72372970,test,2,prime_obama,60,4,30,1,210,100,3
80918,11:54:54,72372970,test,2,prime_trump,61,3,24,0,225,100,3
80918,11:54:54,72372970,test,2,prime_obama,62,4,35,1,213,100,3
80918,11:54:54,72372970,test,2,prime_trump,63,4,25,0,107,100,3
80918,11:54:54,72372970,test,2,prime_trump,64,5,26,1,13,100,6
80918,11:54:54,72372970,test,2,prime_trump,65,5,53,0,226,100,6
80918,11:54:54,72372970,test,2,prime_obama,66,3,21,1,503,100,6
80918,11:54:54,72372970,test,2,prime_trump,67,3,68,0,177,100,6
80918,11:54:54,72372970,test,2,prime_obama,68,2,63,1,200,100,6
80918,11:54:54,72372970,test,2,prime_trump,69,4,12,0,158,100,5
80918,11:54:54,72372970,test,2,prime_obama,70,6,34,1,717,100,5
80918,11:54:54,72372970,test,2,prime_trump,71,2,13,0,471,100,5
80918,11:54:54,72372970,test,2,prime_obama,72,1,64,1,466,100,5
80918,11:54:54,72372970,test,2,prime_trump,73,6,65,0,172,100,5
80918,12:56:26,37441758,practice,1,prime_trump_practice,4,0,0,0,2756,0,0
80918,12:56:26,37441758,practice,1,prime_obama_practice,5,0,0,0,1016,0,0
80918,12:56:26,37441758,practice,1,prime_trump_practice,6,0,0,0,866,0,0
80918,12:56:26,37441758,practice,1,prime_obama_practice,7,0,0,0,739,0,0
80918,12:56:26,37441758,practice,1,prime_trump_practice,8,0,0,0,648,0,0
80918,12:56:26,37441758,practice,1,prime_obama_practice,9,0,0,0,561,0,0
80918,12:56:26,37441758,practice,1,prime_trump_practice,10,0,0,0,528,0,0
80918,12:56:26,37441758,practice,1,prime_obama_practice,11,0,0,0,424,0,0
80918,12:56:26,37441758,practice,1,prime_obama_practice,12,0,0,0,428,0,0
80918,12:56:26,37441758,practice,1,prime_trump_practice,13,0,0,0,544,0,0
80918,12:56:26,37441758,test,2,prime_trump,2,4,25,0,971,0,0
80918,12:56:26,37441758,test,2,prime_trump,3,2,37,0,6932,0,0
80918,12:56:26,37441758,test,2,prime_obama,4,3,32,1,1563,100,0
80918,12:56:26,37441758,test,2,prime_trump,5,1,26,1,4210,100,33
80918,12:56:26,37441758,test,2,prime_trump,6,6,22,0,972,100,25
80918,12:56:26,37441758,test,2,prime_obama,7,4,28,1,956,100,25
80918,12:56:26,37441758,test,2,prime_obama,8,3,7,1,715,100,25
80918,12:56:26,37441758,test,2,prime_trump,9,5,3,0,2170,100,20
80918,12:56:26,37441758,test,2,prime_obama,10,2,49,1,444,100,20
80918,12:56:26,37441758,test,2,prime_trump,11,4,39,0,505,100,16
80918,12:56:26,37441758,test,2,prime_obama,12,5,70,1,425,100,16
80918,12:56:26,37441758,test,2,prime_obama,13,6,11,1,485,100,16
80918,12:56:26,37441758,test,2,prime_trump,14,3,58,0,546,100,14
80918,12:56:26,37441758,test,2,prime_trump,15,1,48,0,548,100,12
80918,12:56:26,37441758,test,2,prime_obama,16,1,63,1,352,100,12
80918,12:56:26,37441758,test,2,prime_obama,17,1,54,1,265,100,12
80918,12:56:26,37441758,test,2,prime_obama,18,5,57,1,288,100,12
80918,12:56:26,37441758,test,2,prime_obama,19,2,59,1,378,100,12
80918,12:56:26,37441758,test,2,prime_trump,20,3,60,0,407,100,11
80918,12:56:26,37441758,test,2,prime_obama,21,6,47,1,291,100,11
80918,12:56:26,37441758,test,2,prime_trump,22,4,65,0,346,100,10
80918,12:56:26,37441758,test,2,prime_trump,23,5,5,0,269,100,9
80918,12:56:26,37441758,test,2,prime_obama,24,4,66,1,287,100,9
80918,12:56:26,37441758,test,2,prime_trump,25,2,71,0,429,100,8
80918,12:56:26,37441758,test,2,prime_trump,26,6,62,0,362,100,7
80918,12:56:26,37441758,test,2,prime_trump,27,4,24,0,385,100,7
80918,12:56:26,37441758,test,2,prime_obama,28,3,10,1,327,100,7
80918,12:56:26,37441758,test,2,prime_obama,29,4,41,1,686,100,7
80918,12:56:26,37441758,test,2,prime_trump,30,3,13,0,302,100,6
80918,12:56:26,37441758,test,2,prime_trump,31,5,45,0,285,100,6
80918,12:56:26,37441758,test,2,prime_obama,32,1,36,1,293,100,6
80918,12:56:26,37441758,test,2,prime_trump,33,2,64,0,418,100,5
80918,12:56:26,37441758,test,2,prime_obama,34,3,19,1,653,100,5
80918,12:56:26,37441758,test,2,prime_trump,35,6,30,0,471,100,5
80918,12:56:26,37441758,test,2,prime_trump,36,1,38,0,829,100,5
80918,12:56:26,37441758,test,2,prime_trump,37,3,6,0,303,100,5
80918,12:56:26,37441758,test,2,prime_obama,38,2,72,1,274,100,5
80918,12:56:26,37441758,test,2,prime_obama,39,5,23,1,257,100,5
80918,12:56:26,37441758,test,2,prime_trump,40,4,18,0,307,100,4
80918,12:56:26,37441758,test,2,prime_trump,41,6,20,0,281,100,4
80918,12:56:26,37441758,test,2,prime_obama,42,6,34,1,268,100,4
80918,12:56:26,37441758,test,2,prime_obama,43,3,31,1,252,100,4
80918,12:56:26,37441758,test,2,prime_obama,44,5,61,1,282,100,4
80918,12:56:26,37441758,test,2,prime_obama,45,6,8,1,251,100,4
80918,12:56:26,37441758,test,2,prime_trump,46,1,14,0,241,100,4
80918,12:56:26,37441758,test,2,prime_obama,47,2,16,1,245,100,4
80918,12:56:26,37441758,test,2,prime_trump,48,5,21,0,189,100,4
80918,12:56:26,37441758,test,2,prime_obama,49,1,50,1,265,100,4
80918,12:56:26,37441758,test,2,prime_trump,50,2,52,0,271,100,4
80918,12:56:26,37441758,test,2,prime_obama,51,4,12,1,235,100,4
80918,12:56:26,37441758,test,2,prime_obama,52,5,9,1,283,100,4
80918,12:56:26,37441758,test,2,prime_obama,53,6,51,1,287,100,4
80918,12:56:26,37441758,test,2,prime_trump,54,3,67,0,301,100,3
80918,12:56:26,37441758,test,2,prime_obama,55,1,44,1,207,100,3
80918,12:56:26,37441758,test,2,prime_obama,56,2,33,1,286,100,3
80918,12:56:26,37441758,test,2,prime_trump,57,2,2,0,262,100,3
80918,12:56:26,37441758,test,2,prime_trump,58,6,46,0,300,100,3
80918,12:56:26,37441758,test,2,prime_trump,59,5,40,0,299,100,3
80918,12:56:26,37441758,test,2,prime_trump,60,1,55,0,303,100,3
80918,12:56:26,37441758,test,2,prime_obama,61,3,27,1,264,100,3
80918,12:56:26,37441758,test,2,prime_obama,62,4,43,1,260,100,3
80918,12:56:26,37441758,test,2,prime_obama,63,1,1,1,206,100,3
80918,12:56:26,37441758,test,2,prime_obama,64,2,6,1,278,100,3
80918,12:56:26,37441758,test,2,prime_trump,65,4,55,0,278,100,3
80918,12:56:26,37441758,test,2,prime_obama,66,4,3,1,312,100,3
80918,12:56:26,37441758,test,2,prime_trump,67,1,34,0,277,100,3
80918,12:56:26,37441758,test,2,prime_trump,68,2,72,0,280,100,3
80918,12:56:26,37441758,test,2,prime_trump,69,3,48,0,292,100,2
80918,12:56:26,37441758,test,2,prime_obama,70,5,47,1,293,100,2
80918,12:56:26,37441758,test,2,prime_obama,71,6,21,1,409,100,2
80918,12:56:26,37441758,test,2,prime_trump,72,6,23,0,244,100,2
80918,12:56:26,37441758,test,2,prime_trump,73,4,46,0,366,100,2
80918,12:56:53,879040610,practice,1,prime_obama_practice,4,0,0,1,1565,0,0
80918,12:56:53,879040610,practice,1,prime_obama_practice,5,0,0,0,1456,0,0
80918,12:56:53,879040610,practice,1,prime_obama_practice,6,0,0,1,1183,0,0
80918,12:56:53,879040610,practice,1,prime_trump_practice,7,0,0,0,945,0,0
80918,12:56:53,879040610,practice,1,prime_obama_practice,8,0,0,1,1300,0,0
80918,12:56:53,879040610,practice,1,prime_obama_practice,9,0,0,0,1350,0,0
80918,12:56:53,879040610,practice,1,prime_trump_practice,10,0,0,1,1197,0,0
80918,12:56:53,879040610,practice,1,prime_trump_practice,11,0,0,0,1387,0,0
80918,12:56:53,879040610,practice,1,prime_trump_practice,12,0,0,1,1073,0,0
80918,12:56:53,879040610,practice,1,prime_trump_practice,13,0,0,1,1388,0,0
80918,12:56:53,879040610,test,2,prime_obama,2,4,58,1,1131,100,0
80918,12:56:53,879040610,test,2,prime_trump,3,1,4,0,707,100,0
80918,12:56:53,879040610,test,2,prime_obama,4,5,23,0,781,50,0
80918,12:56:53,879040610,test,2,prime_obama,5,2,36,1,547,66,0
80918,12:56:53,879040610,test,2,prime_obama,6,3,3,1,1027,75,0
80918,12:56:53,879040610,test,2,prime_trump,7,6,44,1,912,75,50
80918,12:56:53,879040610,test,2,prime_trump,8,1,49,0,1818,75,33
80918,12:56:53,879040610,test,2,prime_trump,9,3,12,0,1429,75,25
80918,12:56:53,879040610,test,2,prime_obama,10,4,29,1,634,80,25
80918,12:56:53,879040610,test,2,prime_trump,11,2,62,1,855,80,40
80918,12:56:53,879040610,test,2,prime_trump,12,5,48,1,698,80,50
80918,12:56:53,879040610,test,2,prime_obama,13,6,15,1,639,83,50
80918,12:56:53,879040610,test,2,prime_trump,14,4,19,0,622,83,42
80918,12:56:53,879040610,test,2,prime_obama,15,1,53,0,667,71,42
80918,12:56:53,879040610,test,2,prime_obama,16,3,22,0,597,62,42
80918,12:56:53,879040610,test,2,prime_trump,17,1,8,0,539,62,37
80918,12:56:53,879040610,test,2,prime_obama,18,2,9,1,733,66,37
80918,12:56:53,879040610,test,2,prime_trump,19,2,25,0,635,66,33
80918,12:56:53,879040610,test,2,prime_trump,20,3,39,1,551,66,40
80918,12:56:53,879040610,test,2,prime_obama,21,5,40,0,959,60,40
80918,12:56:53,879040610,test,2,prime_obama,22,1,1,1,646,63,40
80918,12:56:53,879040610,test,2,prime_obama,23,4,13,0,506,58,40
80918,12:56:53,879040610,test,2,prime_trump,24,6,34,0,467,58,36
80918,12:56:53,879040610,test,2,prime_obama,25,6,69,1,534,61,36
80918,12:56:53,879040610,test,2,prime_obama,26,3,55,1,398,64,36
80918,12:56:53,879040610,test,2,prime_trump,27,4,6,1,500,64,41
80918,12:56:53,879040610,test,2,prime_trump,28,5,60,1,413,64,46
80918,12:56:53,879040610,test,2,prime_obama,29,4,65,1,499,66,46
80918,12:56:53,879040610,test,2,prime_obama,30,2,50,1,516,68,46
80918,12:56:53,879040610,test,2,prime_trump,31,6,16,1,517,68,50
80918,12:56:53,879040610,test,2,prime_trump,32,5,5,0,613,68,46
80918,12:56:53,879040610,test,2,prime_obama,33,6,63,1,531,70,46
80918,12:56:53,879040610,test,2,prime_trump,34,3,10,1,515,70,50
80918,12:56:53,879040610,test,2,prime_trump,35,4,26,0,485,70,47
80918,12:56:53,879040610,test,2,prime_trump,36,1,2,1,463,70,50
80918,12:56:53,879040610,test,2,prime_obama,37,1,57,1,544,72,50
80918,12:56:53,879040610,test,2,prime_trump,38,2,54,0,402,72,47
80918,12:56:53,879040610,test,2,prime_obama,39,5,61,1,527,73,47
80918,12:56:53,879040610,test,2,prime_trump,40,6,28,0,659,73,45
80918,12:56:53,879040610,test,2,prime_obama,41,6,43,1,579,75,45
80918,12:56:53,879040610,test,2,prime_trump,42,3,70,0,640,75,42
80918,12:56:53,879040610,test,2,prime_obama,43,3,64,1,686,76,42
80918,12:56:53,879040610,test,2,prime_obama,44,4,17,1,512,77,42
80918,12:56:53,879040610,test,2,prime_trump,45,1,46,0,585,77,40
80918,12:56:53,879040610,test,2,prime_trump,46,4,66,1,631,77,43
80918,12:56:53,879040610,test,2,prime_obama,47,2,30,0,908,73,43
80918,12:56:53,879040610,test,2,prime_trump,48,5,24,1,405,73,45
80918,12:56:53,879040610,test,2,prime_obama,49,5,11,0,523,70,45
80918,12:56:53,879040610,test,2,prime_trump,50,2,18,1,563,70,48
80918,12:56:53,879040610,test,2,prime_trump,51,4,68,1,691,70,50
80918,12:56:53,879040610,test,2,prime_trump,52,6,38,0,661,70,48
80918,12:56:53,879040610,test,2,prime_obama,53,1,37,1,496,72,48
80918,12:56:53,879040610,test,2,prime_trump,54,5,59,1,986,72,50
80918,12:56:53,879040610,test,2,prime_trump,55,1,14,1,512,72,51
80918,12:56:53,879040610,test,2,prime_obama,56,2,33,0,561,69,51
80918,12:56:53,879040610,test,2,prime_obama,57,4,67,1,737,70,51
80918,12:56:53,879040610,test,2,prime_obama,58,3,21,0,864,67,51
80918,12:56:53,879040610,test,2,prime_obama,59,1,52,1,410,68,51
80918,12:56:53,879040610,test,2,prime_trump,60,3,71,1,761,68,53
80918,12:56:53,879040610,test,2,prime_obama,61,6,31,1,744,70,53
80918,12:56:53,879040610,test,2,prime_obama,62,5,7,1,537,70,53
80918,12:56:53,879040610,test,2,prime_obama,63,3,41,1,505,71,53
80918,12:56:53,879040610,test,2,prime_trump,64,2,2,0,642,71,51
80918,12:56:53,879040610,test,2,prime_trump,65,4,3,1,630,71,53
80918,12:56:53,879040610,test,2,prime_trump,66,1,17,1,434,71,54
80918,12:56:53,879040610,test,2,prime_obama,67,2,12,0,655,69,54
80918,12:56:53,879040610,test,2,prime_obama,68,4,24,1,530,70,54
80918,12:56:53,879040610,test,2,prime_trump,69,3,67,1,547,70,55
80918,12:56:53,879040610,test,2,prime_trump,70,5,47,1,563,70,57
80918,12:56:53,879040610,test,2,prime_obama,71,1,62,1,385,71,57
80918,12:56:53,879040610,test,2,prime_trump,72,6,55,1,531,71,58
80918,12:56:53,879040610,test,2,prime_obama,73,5,30,0,608,69,58
80918,12:00:14,414118202,practice,1,prime_obama_practice,4,0,0,1,2179,0,0
80918,12:00:14,414118202,practice,1,prime_trump_practice,5,0,0,0,1358,0,0
80918,12:00:14,414118202,practice,1,prime_obama_practice,6,0,0,1,707,0,0
80918,12:00:14,414118202,practice,1,prime_trump_practice,7,0,0,0,1146,0,0
80918,12:00:14,414118202,practice,1,prime_obama_practice,8,0,0,1,1086,0,0
80918,12:00:14,414118202,practice,1,prime_obama_practice,9,0,0,1,657,0,0
80918,12:00:14,414118202,practice,1,prime_trump_practice,10,0,0,1,958,0,0
80918,12:00:14,414118202,practice,1,prime_obama_practice,11,0,0,1,1046,0,0
80918,12:00:14,414118202,practice,1,prime_trump_practice,12,0,0,1,925,0,0
80918,12:00:14,414118202,practice,1,prime_trump_practice,13,0,0,0,615,0,0
80918,12:00:14,414118202,test,2,prime_obama,2,1,10,0,906,0,0
80918,12:00:14,414118202,test,2,prime_trump,3,2,30,1,845,0,100
80918,12:00:14,414118202,test,2,prime_obama,4,5,39,1,777,50,100
80918,12:00:14,414118202,test,2,prime_obama,5,2,54,0,1386,33,100
80918,12:00:14,414118202,test,2,prime_trump,6,4,35,1,1534,33,100
80918,12:00:14,414118202,test,2,prime_trump,7,1,29,0,614,33,66
80918,12:00:14,414118202,test,2,prime_obama,8,6,21,1,987,50,66
80918,12:00:14,414118202,test,2,prime_obama,9,3,17,0,1006,40,66
80918,12:00:14,414118202,test,2,prime_trump,10,5,9,0,837,40,50
80918,12:00:14,414118202,test,2,prime_obama,11,4,55,0,904,33,50
80918,12:00:14,414118202,test,2,prime_obama,12,1,8,0,789,28,50
80918,12:00:14,414118202,test,2,prime_trump,13,6,5,0,787,28,40
80918,12:00:14,414118202,test,2,prime_trump,14,2,71,1,515,28,50
80918,12:00:14,414118202,test,2,prime_obama,15,1,53,0,1056,25,50
80918,12:00:14,414118202,test,2,prime_obama,16,6,23,0,947,22,50
80918,12:00:14,414118202,test,2,prime_trump,17,3,22,1,986,22,57
80918,12:00:14,414118202,test,2,prime_trump,18,6,43,0,745,22,50
80918,12:00:14,414118202,test,2,prime_obama,19,2,3,1,707,30,50
80918,12:00:14,414118202,test,2,prime_obama,20,4,34,0,716,27,50
80918,12:00:14,414118202,test,2,prime_trump,21,5,36,1,547,27,55
80918,12:00:14,414118202,test,2,prime_obama,22,3,16,1,625,33,55
80918,12:00:14,414118202,test,2,prime_trump,23,2,1,1,766,33,60
80918,12:00:14,414118202,test,2,prime_trump,24,1,60,1,564,33,63
80918,12:00:14,414118202,test,2,prime_obama,25,5,14,1,848,38,63
80918,12:00:14,414118202,test,2,prime_trump,26,3,4,0,645,38,58
80918,12:00:14,414118202,test,2,prime_trump,27,4,52,0,656,38,53
80918,12:00:14,414118202,test,2,prime_trump,28,3,13,1,495,38,57
80918,12:00:14,414118202,test,2,prime_trump,29,1,49,1,552,38,60
80918,12:00:14,414118202,test,2,prime_trump,30,2,15,0,475,38,56
80918,12:00:14,414118202,test,2,prime_obama,31,5,69,0,725,35,56
80918,12:00:14,414118202,test,2,prime_trump,32,6,50,1,637,35,58
80918,12:00:14,414118202,test,2,prime_trump,33,4,44,0,556,35,55
80918,12:00:14,414118202,test,2,prime_trump,34,5,63,1,885,35,57
80918,12:00:14,414118202,test,2,prime_trump,35,1,25,1,607,35,60
80918,12:00:14,414118202,test,2,prime_obama,36,2,56,0,797,33,60
80918,12:00:14,414118202,test,2,prime_trump,37,4,2,1,1224,33,61
80918,12:00:14,414118202,test,2,prime_obama,38,3,28,1,896,37,61
80918,12:00:14,414118202,test,2,prime_obama,39,1,41,0,616,35,61
80918,12:00:14,414118202,test,2,prime_trump,40,6,62,0,1035,35,59
80918,12:00:14,414118202,test,2,prime_obama,41,6,68,0,1477,33,59
80918,12:00:14,414118202,test,2,prime_obama,42,4,40,0,655,31,59
80918,12:00:14,414118202,test,2,prime_obama,43,3,11,1,641,35,59
80918,12:00:14,414118202,test,2,prime_obama,44,5,72,1,796,38,59
80918,12:00:14,414118202,test,2,prime_trump,45,3,12,1,1026,38,60
80918,12:00:14,414118202,test,2,prime_obama,46,2,66,1,776,40,60
80918,12:00:14,414118202,test,2,prime_trump,47,5,61,0,464,40,58
80918,12:00:14,414118202,test,2,prime_trump,48,2,51,1,557,40,60
80918,12:00:14,414118202,test,2,prime_trump,49,4,24,1,587,40,61
80918,12:00:14,414118202,test,2,prime_trump,50,5,18,0,506,40,59
80918,12:00:14,414118202,test,2,prime_trump,51,2,65,0,426,40,57
80918,12:00:14,414118202,test,2,prime_obama,52,4,31,0,647,39,57
80918,12:00:14,414118202,test,2,prime_obama,53,1,58,1,421,41,57
80918,12:00:14,414118202,test,2,prime_obama,54,6,26,1,856,44,57
80918,12:00:14,414118202,test,2,prime_obama,55,5,46,1,484,46,57
80918,12:00:14,414118202,test,2,prime_obama,56,4,7,1,1025,48,57
80918,12:00:14,414118202,test,2,prime_obama,57,3,37,1,606,50,57
80918,12:00:14,414118202,test,2,prime_obama,58,1,42,0,657,48,57
80918,12:00:14,414118202,test,2,prime_trump,59,3,6,0,796,48,55
80918,12:00:14,414118202,test,2,prime_trump,60,6,59,0,1036,48,53
80918,12:00:14,414118202,test,2,prime_trump,61,1,67,0,716,48,51
80918,12:00:14,414118202,test,2,prime_obama,62,2,27,1,466,50,51
80918,12:00:14,414118202,test,2,prime_trump,63,5,57,1,1335,50,53
80918,12:00:14,414118202,test,2,prime_obama,64,6,64,0,647,48,53
80918,12:00:14,414118202,test,2,prime_obama,65,6,9,1,667,50,53
80918,12:00:14,414118202,test,2,prime_obama,66,5,52,0,595,48,53
80918,12:00:14,414118202,test,2,prime_obama,67,2,62,1,656,50,53
80918,12:00:14,414118202,test,2,prime_trump,68,6,39,1,715,50,54
80918,12:00:14,414118202,test,2,prime_trump,69,3,21,1,697,50,55
80918,12:00:14,414118202,test,2,prime_obama,70,4,14,0,599,48,55
80918,12:00:14,414118202,test,2,prime_trump,71,4,30,1,596,48,57
80918,12:00:14,414118202,test,2,prime_trump,72,1,24,1,516,48,58
80918,12:00:14,414118202,test,2,prime_obama,73,1,19,1,1136,50,58
80918,04:12:06,204470556,practice,1,prime_trump_practice,4,0,0,0,2275,0,0
80918,04:12:06,204470556,practice,1,prime_trump_practice,5,0,0,0,1509,0,0
80918,04:12:06,204470556,practice,1,prime_trump_practice,6,0,0,0,1593,0,0
80918,04:12:06,204470556,practice,1,prime_obama_practice,7,0,0,0,1537,0,0
80918,04:12:06,204470556,practice,1,prime_obama_practice,8,0,0,0,1772,0,0
80918,04:12:06,204470556,practice,1,prime_obama_practice,9,0,0,1,1044,0,0
80918,04:12:06,204470556,practice,1,prime_obama_practice,10,0,0,0,3100,0,0
80918,04:12:06,204470556,practice,1,prime_obama_practice,11,0,0,1,1261,0,0
80918,04:12:06,204470556,practice,1,prime_trump_practice,12,0,0,1,851,0,0
80918,04:12:06,204470556,practice,1,prime_trump_practice,13,0,0,1,548,0,0
80918,04:12:06,204470556,test,2,prime_trump,2,4,50,1,1781,0,100
80918,04:12:06,204470556,test,2,prime_obama,3,1,63,0,2693,0,100
80918,04:12:06,204470556,test,2,prime_trump,4,5,14,1,639,0,100
80918,04:12:06,204470556,test,2,prime_trump,5,4,21,0,568,0,66
80918,04:12:06,204470556,test,2,prime_obama,6,6,49,1,564,50,66
80918,04:12:06,204470556,test,2,prime_obama,7,4,24,1,648,66,66
80918,04:12:06,204470556,test,2,prime_obama,8,2,13,1,730,75,66
80918,04:12:06,204470556,test,2,prime_trump,9,2,32,1,549,75,75
80918,04:12:06,204470556,test,2,prime_trump,10,3,68,0,626,75,60
80918,04:12:06,204470556,test,2,prime_trump,11,6,22,1,451,75,66
80918,04:12:06,204470556,test,2,prime_obama,12,1,37,0,524,60,66
80918,04:12:06,204470556,test,2,prime_trump,13,1,30,1,537,60,71
80918,04:12:06,204470556,test,2,prime_trump,14,5,44,1,493,60,75
80918,04:12:06,204470556,test,2,prime_trump,15,6,16,1,316,60,77
80918,04:12:06,204470556,test,2,prime_trump,16,3,54,0,747,60,70
80918,04:12:06,204470556,test,2,prime_trump,17,4,2,0,839,60,63
80918,04:12:06,204470556,test,2,prime_trump,18,1,58,1,479,60,66
80918,04:12:06,204470556,test,2,prime_obama,19,5,1,1,382,66,66
80918,04:12:06,204470556,test,2,prime_trump,20,2,23,0,632,66,61
80918,04:12:06,204470556,test,2,prime_trump,21,4,48,1,483,66,64
80918,04:12:06,204470556,test,2,prime_obama,22,3,8,1,602,71,64
80918,04:12:06,204470556,test,2,prime_obama,23,1,55,1,540,75,64
80918,04:12:06,204470556,test,2,prime_obama,24,3,36,0,593,66,64
80918,04:12:06,204470556,test,2,prime_trump,25,6,27,1,627,66,66
80918,04:12:06,204470556,test,2,prime_trump,26,3,64,1,418,66,68
80918,04:12:06,204470556,test,2,prime_trump,27,1,33,0,1744,66,64
80918,04:12:06,204470556,test,2,prime_obama,28,5,43,1,640,70,64
80918,04:12:06,204470556,test,2,prime_obama,29,4,52,0,593,63,64
80918,04:12:06,204470556,test,2,prime_obama,30,6,9,0,955,58,64
80918,04:12:06,204470556,test,2,prime_trump,31,2,4,1,470,58,66
80918,04:12:06,204470556,test,2,prime_obama,32,2,28,1,430,61,66
80918,04:12:06,204470556,test,2,prime_trump,33,5,51,1,424,61,68
80918,04:12:06,204470556,test,2,prime_trump,34,5,67,1,521,61,70
80918,04:12:06,204470556,test,2,prime_obama,35,2,26,1,639,64,70
80918,04:12:06,204470556,test,2,prime_trump,36,2,19,1,591,64,71
80918,04:12:06,204470556,test,2,prime_obama,37,6,7,1,362,66,71
80918,04:12:06,204470556,test,2,prime_trump,38,1,71,1,448,66,72
80918,04:12:06,204470556,test,2,prime_obama,39,5,69,1,551,68,72
80918,04:12:06,204470556,test,2,prime_trump,40,3,6,1,491,68,73
80918,04:12:06,204470556,test,2,prime_obama,41,1,5,1,490,70,73
80918,04:12:06,204470556,test,2,prime_trump,42,6,38,0,393,70,70
80918,04:12:06,204470556,test,2,prime_trump,43,4,59,1,420,70,72
80918,04:12:06,204470556,test,2,prime_obama,44,4,41,1,253,72,72
80918,04:12:06,204470556,test,2,prime_trump,45,4,62,0,264,72,69
80918,04:12:06,204470556,test,2,prime_trump,46,6,18,1,215,72,70
80918,04:12:06,204470556,test,2,prime_trump,47,3,40,1,418,72,71
80918,04:12:06,204470556,test,2,prime_obama,48,3,15,1,219,73,71
80918,04:12:06,204470556,test,2,prime_trump,49,5,35,1,381,73,72
80918,04:12:06,204470556,test,2,prime_obama,50,3,10,1,201,75,72
80918,04:12:06,204470556,test,2,prime_obama,51,2,57,0,412,71,72
80918,04:12:06,204470556,test,2,prime_trump,52,1,53,1,382,71,73
80918,04:12:06,204470556,test,2,prime_obama,53,5,20,0,122,68,73
80918,04:12:06,204470556,test,2,prime_obama,54,1,61,1,1353,69,73
80918,04:12:06,204470556,test,2,prime_obama,55,6,17,0,643,66,73
80918,04:12:06,204470556,test,2,prime_obama,56,4,65,1,772,68,73
80918,04:12:06,204470556,test,2,prime_obama,57,5,11,1,503,69,73
80918,04:12:06,204470556,test,2,prime_obama,58,6,70,1,589,70,73
80918,04:12:06,204470556,test,2,prime_obama,59,4,66,1,488,71,73
80918,04:12:06,204470556,test,2,prime_trump,60,2,46,1,550,71,74
80918,04:12:06,204470556,test,2,prime_trump,61,4,42,1,459,71,75
80918,04:12:06,204470556,test,2,prime_trump,62,1,47,1,947,71,75
80918,04:12:06,204470556,test,2,prime_obama,63,3,12,1,287,72,75
80918,04:12:06,204470556,test,2,prime_obama,64,1,52,1,534,73,75
80918,04:12:06,204470556,test,2,prime_obama,65,2,36,1,412,74,75
80918,04:12:06,204470556,test,2,prime_trump,66,5,20,1,173,74,76
80918,04:12:06,204470556,test,2,prime_trump,67,6,2,0,185,74,74
80918,04:12:06,204470556,test,2,prime_obama,68,1,62,1,45,75,74
80918,04:12:06,204470556,test,2,prime_obama,69,2,13,1,470,75,74
80918,04:12:06,204470556,test,2,prime_obama,70,5,17,0,566,73,74
80918,04:12:06,204470556,test,2,prime_obama,71,6,37,1,610,74,74
80918,04:12:06,204470556,test,2,prime_trump,72,2,66,1,580,74,75
80918,04:12:06,204470556,test,2,prime_obama,73,3,14,1,279,75,75
80918,13:05:40,257035865,practice,1,prime_trump_practice,4,0,0,1,5385,0,0
80918,13:05:40,257035865,practice,1,prime_trump_practice,5,0,0,1,1174,0,0
80918,13:05:40,257035865,practice,1,prime_obama_practice,6,0,0,0,2067,0,0
80918,13:05:40,257035865,practice,1,prime_obama_practice,7,0,0,0,325,0,0
80918,13:05:40,257035865,practice,1,prime_trump_practice,8,0,0,1,628,0,0
80918,13:05:40,257035865,practice,1,prime_trump_practice,9,0,0,1,563,0,0
80918,13:05:40,257035865,practice,1,prime_obama_practice,10,0,0,0,868,0,0
80918,13:05:40,257035865,practice,1,prime_trump_practice,11,0,0,1,671,0,0
80918,13:05:40,257035865,practice,1,prime_obama_practice,12,0,0,0,490,0,0
80918,13:05:40,257035865,practice,1,prime_obama_practice,13,0,0,0,535,0,0
80918,13:05:40,257035865,test,2,prime_obama,2,4,33,1,2588,100,0
80918,13:05:40,257035865,test,2,prime_obama,3,6,61,0,417,50,0
80918,13:05:40,257035865,test,2,prime_trump,4,3,9,1,299,50,100
80918,13:05:40,257035865,test,2,prime_obama,5,1,21,0,376,33,100
80918,13:05:40,257035865,test,2,prime_trump,6,4,6,1,433,33,100
80918,13:05:40,257035865,test,2,prime_trump,7,2,68,1,530,33,100
80918,13:05:40,257035865,test,2,prime_obama,8,5,66,0,355,25,100
80918,13:05:40,257035865,test,2,prime_obama,9,4,28,0,1156,20,100
80918,13:05:40,257035865,test,2,prime_obama,10,2,48,0,348,16,100
80918,13:05:40,257035865,test,2,prime_obama,11,3,25,0,340,14,100
80918,13:05:40,257035865,test,2,prime_obama,12,5,43,0,411,12,100
80918,13:05:40,257035865,test,2,prime_trump,13,6,39,1,320,12,100
80918,13:05:40,257035865,test,2,prime_obama,14,2,72,0,301,11,100
80918,13:05:40,257035865,test,2,prime_obama,15,4,29,0,611,10,100
80918,13:05:40,257035865,test,2,prime_obama,16,6,47,0,366,9,100
80918,13:05:40,257035865,test,2,prime_obama,17,3,5,0,326,8,100
