"date","time","subject","blockcode","blocknum","trialcode","trialnum","values.primestim","values.targetstim","correct","latency","trial.prime_obama.totalpercentcorrect","trial.prime_trump.totalpercentcorrect"
"081218","13:52:09","916135171","practice","1","prime_obama_practice","4","0","0","1","474","0","0"
"081218","13:52:09","916135171","practice","1","prime_obama_practice","5","0","0","0","500","0","0"
"081218","13:52:09","916135171","practice","1","prime_trump_practice","6","0","0","1","684","0","0"
"081218","13:52:09","916135171","practice","1","prime_obama_practice","7","0","0","0","438","0","0"
"081218","13:52:09","916135171","practice","1","prime_trump_practice","8","0","0","1","494","0","0"
"081218","13:52:09","916135171","practice","1","prime_obama_practice","9","0","0","0","391","0","0"
"081218","13:52:09","916135171","practice","1","prime_trump_practice","10","0","0","1","1755","0","0"
"081218","05:38:06","153835479","practice","1","prime_obama_practice","4","0","0","1","47252","0","0"
"081218","05:38:06","153835479","practice","1","prime_obama_practice","5","0","0","1","1309","0","0"
"081218","05:38:06","153835479","practice","1","prime_obama_practice","6","0","0","1","2055","0","0"
"081218","05:38:06","153835479","practice","1","prime_trump_practice","7","0","0","1","785","0","0"
"081218","05:38:06","153835479","practice","1","prime_trump_practice","8","0","0","1","418","0","0"
"081218","05:38:06","153835479","practice","1","prime_trump_practice","9","0","0","1","419","0","0"
"081218","05:38:06","153835479","practice","1","prime_obama_practice","10","0","0","0","2499","0","0"
"081218","05:38:06","153835479","practice","1","prime_obama_practice","11","0","0","0","1762","0","0"
"081218","05:38:06","153835479","practice","1","prime_trump_practice","12","0","0","0","456","0","0"
"081218","05:38:06","153835479","practice","1","prime_trump_practice","13","0","0","1","390","0","0"
"081218","05:38:06","153835479","test","2","prime_trump","2","6","60","1","1496","0","100"
"081218","05:38:06","153835479","test","2","prime_trump","3","5","68","0","1570","0","50"
"081218","05:38:06","153835479","test","2","prime_obama","4","5","7","1","2065","100","50"
"081218","05:38:06","153835479","test","2","prime_obama","5","1","17","1","1098","100","50"
"081218","05:38:06","153835479","test","2","prime_trump","6","4","2","1","837","100","66"
"081218","05:38:06","153835479","test","2","prime_obama","7","2","24","0","283","66","66"
"081218","05:38:06","153835479","test","2","prime_obama","8","5","48","1","258","75","66"
"081218","05:38:06","153835479","test","2","prime_trump","9","3","72","1","290","75","75"
"081218","05:38:06","153835479","test","2","prime_trump","10","6","1","1","144","75","80"
"081218","05:38:06","153835479","test","2","prime_obama","11","3","18","1","212","80","80"
"081218","05:38:06","153835479","test","2","prime_obama","12","4","14","1","254","83","80"
"081218","05:38:06","153835479","test","2","prime_trump","13","2","56","1","181","83","83"
"081218","05:38:06","153835479","test","2","prime_obama","14","6","37","1","832","85","83"
"081218","05:38:06","153835479","test","2","prime_obama","15","3","41","1","95","87","83"
"081218","05:38:06","153835479","test","2","prime_trump","16","1","29","1","678","87","85"
"081218","05:38:06","153835479","test","2","prime_obama","17","4","61","0","107","77","85"
"081218","05:38:06","153835479","test","2","prime_trump","18","4","10","0","1","77","75"
"081218","05:38:06","153835479","test","2","prime_obama","19","5","33","0","476","70","75"
"081218","05:38:06","153835479","test","2","prime_trump","20","5","27","1","250","70","77"
"081218","05:38:06","153835479","test","2","prime_obama","21","6","49","1","194","72","77"
"081218","05:38:06","153835479","test","2","prime_obama","22","2","36","1","548","75","77"
"081218","05:38:06","153835479","test","2","prime_obama","23","1","5","1","4015","76","77"
"081218","05:38:06","153835479","test","2","prime_trump","24","3","52","1","188","76","80"
"081218","05:38:06","153835479","test","2","prime_trump","25","6","13","1","111","76","81"
"081218","05:38:06","153835479","test","2","prime_obama","26","4","54","0","316","71","81"
"081218","05:38:06","153835479","test","2","prime_trump","27","2","43","1","194","71","83"
"081218","05:38:06","153835479","test","2","prime_trump","28","1","19","1","380","71","84"
"081218","05:38:06","153835479","test","2","prime_obama","29","1","40","1","510","73","84"
"081218","05:38:06","153835479","test","2","prime_obama","30","6","32","0","619","68","84"
"081218","05:38:06","153835479","test","2","prime_trump","31","2","35","1","355","68","85"
"081218","05:38:06","153835479","test","2","prime_obama","32","5","16","1","182","70","85"
"081218","05:38:06","153835479","test","2","prime_trump","33","4","71","1","305","70","86"
"081218","05:38:06","153835479","test","2","prime_obama","34","3","9","1","214","72","86"
"081218","05:38:06","153835479","test","2","prime_obama","35","2","45","1","632","73","86"
"081218","05:38:06","153835479","test","2","prime_obama","36","3","55","1","272","75","86"
"081218","05:38:06","153835479","test","2","prime_obama","37","5","25","1","230","76","86"
"081218","05:38:06","153835479","test","2","prime_trump","38","3","28","0","223","76","81"
"081218","05:38:06","153835479","test","2","prime_obama","39","1","30","1","240","77","81"
"081218","05:38:06","153835479","test","2","prime_trump","40","1","59","0","216","77","76"
"081218","05:38:06","153835479","test","2","prime_trump","41","6","42","1","274","77","77"
"081218","05:38:06","153835479","test","2","prime_trump","42","5","53","1","152","77","78"
"081218","05:38:06","153835479","test","2","prime_obama","43","2","22","1","156","78","78"
"081218","05:38:06","153835479","test","2","prime_trump","44","3","6","0","12264","78","75"
"081218","05:38:06","153835479","test","2","prime_trump","45","5","67","0","1071","78","71"
"081218","05:38:06","153835479","test","2","prime_trump","46","2","23","1","1740","78","72"
"081218","05:38:06","153835479","test","2","prime_obama","47","4","69","1","387","79","72"
"081218","05:38:06","153835479","test","2","prime_obama","48","6","26","1","261","80","72"
"081218","05:38:06","153835479","test","2","prime_obama","49","3","51","1","140","80","72"
"081218","05:38:06","153835479","test","2","prime_trump","50","4","65","1","137","80","73"
"081218","05:38:06","153835479","test","2","prime_obama","51","1","50","1","109","81","73"
"081218","05:38:06","153835479","test","2","prime_obama","52","5","21","0","259","78","73"
"081218","05:38:06","153835479","test","2","prime_trump","53","6","11","0","274","78","70"
"081218","05:38:06","153835479","test","2","prime_trump","54","1","70","0","177","78","68"
"081218","05:38:06","153835479","test","2","prime_obama","55","4","8","0","252","75","68"
"081218","05:38:06","153835479","test","2","prime_trump","56","6","31","0","252","75","65"
"081218","05:38:06","153835479","test","2","prime_trump","57","2","62","0","220","75","62"
"081218","05:38:06","153835479","test","2","prime_trump","58","5","34","0","237","75","60"
"081218","05:38:06","153835479","test","2","prime_obama","59","6","44","1","269","76","60"
"081218","05:38:06","153835479","test","2","prime_trump","60","4","15","0","149","76","58"
"081218","05:38:06","153835479","test","2","prime_trump","61","3","66","0","425","76","56"
"081218","05:38:06","153835479","test","2","prime_trump","62","1","58","0","209","76","54"
"081218","05:38:06","153835479","test","2","prime_obama","63","2","4","1","323","77","54"
"081218","05:38:06","153835479","test","2","prime_trump","64","3","26","0","304","77","53"
"081218","05:38:06","153835479","test","2","prime_obama","65","6","37","0","253","75","53"
"081218","05:38:06","153835479","test","2","prime_obama","66","2","59","0","188","72","53"
"081218","05:38:06","153835479","test","2","prime_obama","67","5","6","0","262","70","53"
"081218","05:38:06","153835479","test","2","prime_trump","68","4","51","1","158","70","54"
"081218","05:38:06","153835479","test","2","prime_obama","69","4","29","1","465","71","54"
"081218","05:38:06","153835479","test","2","prime_obama","70","1","58","1","232","72","54"
"081218","05:38:06","153835479","test","2","prime_trump","71","1","17","0","121","72","52"
"081218","05:38:06","153835479","test","2","prime_trump","72","2","70","0","334","72","51"
"081218","05:38:06","153835479","test","2","prime_trump","73","6","12","0","227","72","50"
"081218","08:44:38","648364945","practice","1","prime_obama_practice","4","0","0","1","1291","0","0"
"081218","08:44:38","648364945","practice","1","prime_trump_practice","5","0","0","0","509","0","0"
"081218","08:44:38","648364945","practice","1","prime_obama_practice","6","0","0","1","696","0","0"
"081218","08:44:38","648364945","practice","1","prime_trump_practice","7","0","0","1","1390","0","0"
"081218","08:44:38","648364945","practice","1","prime_trump_practice","8","0","0","1","697","0","0"
"081218","08:44:38","648364945","practice","1","prime_trump_practice","9","0","0","0","556","0","0"
"081218","08:44:38","648364945","practice","1","prime_obama_practice","10","0","0","0","742","0","0"
"081218","08:44:38","648364945","practice","1","prime_obama_practice","11","0","0","0","640","0","0"
"081218","08:44:38","648364945","practice","1","prime_trump_practice","12","0","0","1","317","0","0"
"081218","08:44:38","648364945","practice","1","prime_obama_practice","13","0","0","1","550","0","0"
"081218","08:44:38","648364945","test","2","prime_trump","2","5","9","0","682","0","0"
"081218","08:44:38","648364945","test","2","prime_trump","3","3","20","1","486","0","50"
"081218","08:44:38","648364945","test","2","prime_trump","4","2","17","0","538","0","33"
"081218","08:44:38","648364945","test","2","prime_trump","5","1","3","1","502","0","50"
"081218","08:44:38","648364945","test","2","prime_trump","6","4","5","1","458","0","60"
"081218","08:44:38","648364945","test","2","prime_obama","7","2","43","1","494","100","60"
"081218","08:44:38","648364945","test","2","prime_obama","8","2","67","1","476","100","60"
"081218","08:44:38","648364945","test","2","prime_trump","9","5","65","0","295","100","50"
"081218","08:44:38","648364945","test","2","prime_obama","10","5","53","1","508","100","50"
"081218","08:44:38","648364945","test","2","prime_trump","11","6","50","0","348","100","42"
"081218","08:44:38","648364945","test","2","prime_obama","12","1","6","0","634","75","42"
"081218","08:44:38","648364945","test","2","prime_obama","13","3","22","1","367","80","42"
"081218","08:44:38","648364945","test","2","prime_obama","14","4","40","1","401","83","42"
"081218","08:44:38","648364945","test","2","prime_trump","15","5","59","1","422","83","50"
"081218","08:44:38","648364945","test","2","prime_trump","16","2","47","0","410","83","44"
"081218","08:44:38","648364945","test","2","prime_obama","17","6","18","1","558","85","44"
"081218","08:44:38","648364945","test","2","prime_trump","18","4","29","0","584","85","40"
"081218","08:44:38","648364945","test","2","prime_trump","19","6","10","1","321","85","45"
"081218","08:44:38","648364945","test","2","prime_obama","20","4","24","0","470","75","45"
"081218","08:44:38","648364945","test","2","prime_trump","21","3","42","1","353","75","50"
"081218","08:44:38","648364945","test","2","prime_obama","22","1","27","0","509","66","50"
"081218","08:44:38","648364945","test","2","prime_trump","23","1","71","1","390","66","53"
"081218","08:44:38","648364945","test","2","prime_trump","24","4","39","0","492","66","50"
"081218","08:44:38","648364945","test","2","prime_trump","25","2","55","1","404","66","53"
"081218","08:44:38","648364945","test","2","prime_obama","26","6","23","0","474","60","53"
"081218","08:44:38","648364945","test","2","prime_obama","27","3","51","1","1103","63","53"
"081218","08:44:38","648364945","test","2","prime_obama","28","5","37","1","539","66","53"
"081218","08:44:38","648364945","test","2","prime_obama","29","2","46","0","397","61","53"
"081218","08:44:38","648364945","test","2","prime_obama","30","6","21","1","479","64","53"
"081218","08:44:38","648364945","test","2","prime_obama","31","5","7","1","509","66","53"
"081218","08:44:38","648364945","test","2","prime_trump","32","5","66","1","585","66","56"
"081218","08:44:38","648364945","test","2","prime_trump","33","6","31","1","476","66","58"
"081218","08:44:38","648364945","test","2","prime_obama","34","4","48","1","756","68","58"
"081218","08:44:38","648364945","test","2","prime_trump","35","1","44","0","196","68","55"
"081218","08:44:38","648364945","test","2","prime_trump","36","3","11","1","647","68","57"
"081218","08:44:38","648364945","test","2","prime_trump","37","3","16","0","330","68","55"
"081218","08:44:38","648364945","test","2","prime_obama","38","3","61","1","508","70","55"
"081218","08:44:38","648364945","test","2","prime_obama","39","1","63","0","504","66","55"
"081218","08:44:38","648364945","test","2","prime_trump","40","5","26","1","660","66","57"
"081218","08:44:38","648364945","test","2","prime_trump","41","1","69","1","506","66","59"
"081218","08:44:38","648364945","test","2","prime_trump","42","6","34","1","491","66","60"
"081218","08:44:38","648364945","test","2","prime_trump","43","4","12","0","239","66","58"
"081218","08:44:38","648364945","test","2","prime_obama","44","2","72","1","572","68","58"
"081218","08:44:38","648364945","test","2","prime_obama","45","3","4","0","494","65","58"
"081218","08:44:38","648364945","test","2","prime_trump","46","2","15","0","462","65","56"
"081218","08:44:38","648364945","test","2","prime_trump","47","4","57","0","528","65","53"
"081218","08:44:38","648364945","test","2","prime_obama","48","6","36","0","603","61","53"
"081218","08:44:38","648364945","test","2","prime_trump","49","2","38","1","289","61","55"
"081218","08:44:38","648364945","test","2","prime_obama","50","2","54","1","531","63","55"
"081218","08:44:38","648364945","test","2","prime_trump","51","6","8","1","530","63","57"
"081218","08:44:38","648364945","test","2","prime_obama","52","1","64","0","273","60","57"
"081218","08:44:38","648364945","test","2","prime_trump","53","1","52","1","452","60","58"
"081218","08:44:38","648364945","test","2","prime_obama","54","4","32","1","472","62","58"
"081218","08:44:38","648364945","test","2","prime_trump","55","5","58","0","322","62","56"
"081218","08:44:38","648364945","test","2","prime_trump","56","3","19","1","491","62","58"
"081218","08:44:38","648364945","test","2","prime_trump","57","4","14","1","1275","62","59"
"081218","08:44:38","648364945","test","2","prime_obama","58","5","56","0","434","60","59"
"081218","08:44:38","648364945","test","2","prime_obama","59","2","13","1","742","61","59"
"081218","08:44:38","648364945","test","2","prime_obama","60","3","62","1","469","62","59"
"081218","08:44:38","648364945","test","2","prime_obama","61","6","1","0","283","60","59"
"081218","08:44:38","648364945","test","2","prime_obama","62","1","35","0","350","58","59"
"081218","08:44:38","648364945","test","2","prime_obama","63","4","33","0","290","56","59"
"081218","08:44:38","648364945","test","2","prime_obama","64","5","43","0","442","54","59"
"081218","08:44:38","648364945","test","2","prime_trump","65","3","55","1","314","54","60"
"081218","08:44:38","648364945","test","2","prime_trump","66","1","9","0","541","54","58"
"081218","08:44:38","648364945","test","2","prime_obama","67","4","38","0","942","53","58"
"081218","08:44:38","648364945","test","2","prime_trump","68","6","62","1","751","53","60"
"081218","08:44:38","648364945","test","2","prime_obama","69","2","50","1","681","54","60"
"081218","08:44:38","648364945","test","2","prime_obama","70","5","15","0","425","52","60"
"081218","08:44:38","648364945","test","2","prime_trump","71","2","13","0","488","52","58"
"081218","08:44:38","648364945","test","2","prime_obama","72","6","45","1","356","54","58"
"081218","08:44:38","648364945","test","2","prime_obama","73","3","61","1","336","55","58"
"081218","08:00:40","920361217","practice","1","prime_trump_practice","4","0","0","0","1111","0","0"
"081218","08:00:40","920361217","practice","1","prime_obama_practice","5","0","0","0","732","0","0"
"081218","08:00:40","920361217","practice","1","prime_obama_practice","6","0","0","1","934","0","0"
"081218","08:00:40","920361217","practice","1","prime_trump_practice","7","0","0","0","1760","0","0"
"081218","08:00:40","920361217","practice","1","prime_trump_practice","8","0","0","1","1091","0","0"
"081218","08:00:40","920361217","practice","1","prime_obama_practice","9","0","0","0","1080","0","0"
"081218","08:00:40","920361217","practice","1","prime_obama_practice","10","0","0","0","413","0","0"
"081218","08:00:40","920361217","practice","1","prime_trump_practice","11","0","0","1","668","0","0"
"081218","08:00:40","920361217","practice","1","prime_trump_practice","12","0","0","1","513","0","0"
"081218","08:00:40","920361217","practice","1","prime_obama_practice","13","0","0","0","412","0","0"
"081218","08:00:40","920361217","test","2","prime_trump","2","2","12","1","502","0","100"
"081218","08:00:40","920361217","test","2","prime_obama","3","4","38","0","452","0","100"
"081218","08:00:40","920361217","test","2","prime_trump","4","3","71","1","381","0","100"
"081218","08:00:40","920361217","test","2","prime_trump","5","6","42","1","947","0","100"
"081218","08:00:40","920361217","test","2","prime_trump","6","2","51","1","265","0","100"
"081218","08:00:40","920361217","test","2","prime_trump","7","1","72","1","185","0","100"
"081218","08:00:40","920361217","test","2","prime_obama","8","1","48","0","247","0","100"
"081218","08:00:40","920361217","test","2","prime_obama","9","6","17","0","247","0","100"
"081218","08:00:40","920361217","test","2","prime_trump","10","4","39","1","212","0","100"
"081218","08:00:40","920361217","test","2","prime_obama","11","4","66","0","1501","0","100"
"081218","08:00:40","920361217","test","2","prime_obama","12","3","10","0","373","0","100"
"081218","08:00:40","920361217","test","2","prime_trump","13","5","58","1","262","0","100"
"081218","08:00:40","920361217","test","2","prime_obama","14","5","49","0","258","0","100"
"081218","08:00:40","920361217","test","2","prime_trump","15","2","18","1","2159","0","100"
"081218","08:00:40","920361217","test","2","prime_trump","16","1","46","1","387","0","100"
"081218","08:00:40","920361217","test","2","prime_obama","17","2","27","0","387","0","100"
"081218","08:00:40","920361217","test","2","prime_trump","18","6","11","1","531","0","100"
"081218","08:00:40","920361217","test","2","prime_trump","19","5","32","1","453","0","100"
"081218","08:00:40","920361217","test","2","prime_trump","20","3","19","1","338","0","100"
"081218","08:00:40","920361217","test","2","prime_trump","21","4","54","1","304","0","100"
"081218","08:00:40","920361217","test","2","prime_obama","22","6","50","0","278","0","100"
"081218","08:00:40","920361217","test","2","prime_trump","23","2","16","1","569","0","100"
"081218","08:00:40","920361217","test","2","prime_obama","24","4","56","0","323","0","100"
"081218","08:00:40","920361217","test","2","prime_obama","25","1","3","0","366","0","100"
"081218","08:00:40","920361217","test","2","prime_obama","26","5","59","0","358","0","100"
"081218","08:00:40","920361217","test","2","prime_obama","27","2","40","0","407","0","100"
"081218","08:00:40","920361217","test","2","prime_trump","28","1","60","1","286","0","100"
"081218","08:00:40","920361217","test","2","prime_trump","29","4","57","1","274","0","100"
"081218","08:00:40","920361217","test","2","prime_trump","30","3","6","1","166","0","100"
"081218","08:00:40","920361217","test","2","prime_obama","31","3","61","0","438","0","100"
"081218","08:00:40","920361217","test","2","prime_obama","32","5","37","0","300","0","100"
"081218","08:00:40","920361217","test","2","prime_trump","33","5","20","1","415","0","100"
"081218","08:00:40","920361217","test","2","prime_obama","34","4","28","1","574","6","100"
"081218","08:00:40","920361217","test","2","prime_obama","35","1","34","1","527","12","100"
"081218","08:00:40","920361217","test","2","prime_obama","36","3","36","0","89","11","100"
"081218","08:00:40","920361217","test","2","prime_obama","37","6","25","0","436","11","100"
"081218","08:00:40","920361217","test","2","prime_obama","38","2","64","0","2","10","100"
"081218","08:00:40","920361217","test","2","prime_trump","39","6","7","1","345","10","100"
"081218","08:00:40","920361217","test","2","prime_obama","40","4","21","0","522","10","100"
"081218","08:00:40","920361217","test","2","prime_trump","41","2","69","0","204","10","95"
"081218","08:00:40","920361217","test","2","prime_trump","42","5","52","1","331","10","95"
"081218","08:00:40","920361217","test","2","prime_obama","43","2","4","1","589","14","95"
"081218","08:00:40","920361217","test","2","prime_trump","44","1","5","1","502","14","95"
"081218","08:00:40","920361217","test","2","prime_trump","45","6","24","1","328","14","95"
"081218","08:00:40","920361217","test","2","prime_obama","46","3","62","0","355","13","95"
"081218","08:00:40","920361217","test","2","prime_trump","47","4","22","0","492","13","91"
"081218","08:00:40","920361217","test","2","prime_trump","48","3","30","1","296","13","92"
"081218","08:00:40","920361217","test","2","prime_obama","49","1","45","1","134","17","92"
"081218","08:00:40","920361217","test","2","prime_trump","50","5","35","1","85","17","92"
"081218","08:00:40","920361217","test","2","prime_obama","51","6","15","1","480","20","92"
"081218","08:00:40","920361217","test","2","prime_obama","52","5","9","0","204","20","92"
"081218","08:00:40","920361217","test","2","prime_trump","53","2","53","0","258","20","88"
"081218","08:00:40","920361217","test","2","prime_obama","54","6","31","1","232","23","88"
"081218","08:00:40","920361217","test","2","prime_trump","55","6","43","1","357","23","89"
"081218","08:00:40","920361217","test","2","prime_obama","56","3","26","1","327","25","89"
"081218","08:00:40","920361217","test","2","prime_obama","57","2","47","1","401","28","89"
"081218","08:00:40","920361217","test","2","prime_trump","58","1","44","1","272","28","89"
"081218","08:00:40","920361217","test","2","prime_trump","59","3","65","1","334","28","90"
"081218","08:00:40","920361217","test","2","prime_trump","60","4","29","1","357","28","90"
"081218","08:00:40","920361217","test","2","prime_obama","61","1","8","1","198","31","90"
"081218","08:00:40","920361217","test","2","prime_obama","62","5","13","1","245","33","90"
"081218","08:00:40","920361217","test","2","prime_trump","63","3","67","1","251","33","90"
"081218","08:00:40","920361217","test","2","prime_trump","64","1","67","1","232","33","90"
"081218","08:00:40","920361217","test","2","prime_obama","65","4","46","1","325","35","90"
"081218","08:00:40","920361217","test","2","prime_obama","66","2","43","1","304","37","90"
"081218","08:00:40","920361217","test","2","prime_obama","67","5","53","1","315","39","90"
"081218","08:00:40","920361217","test","2","prime_obama","68","4","24","1","325","41","90"
"081218","08:00:40","920361217","test","2","prime_trump","69","5","49","0","327","41","88"
"081218","08:00:40","920361217","test","2","prime_obama","70","6","71","0","442","40","88"
"081218","08:00:40","920361217","test","2","prime_trump","71","4","27","0","392","40","85"
"081218","08:00:40","920361217","test","2","prime_trump","72","6","35","0","407","40","83"
"081218","08:00:40","920361217","test","2","prime_obama","73","1","61","0","390","38","83"
"081218","09:01:02","523688081","practice","1","prime_trump_practice","4","0","0","0","961","0","0"
"081218","09:01:02","523688081","practice","1","prime_trump_practice","5","0","0","0","775","0","0"
"081218","09:01:02","523688081","practice","1","prime_obama_practice","6","0","0","0","693","0","0"
"081218","09:01:02","523688081","practice","1","prime_obama_practice","7","0","0","0","727","0","0"
"081218","09:01:02","523688081","practice","1","prime_trump_practice","8","0","0","1","568","0","0"
"081218","09:01:02","523688081","practice","1","prime_obama_practice","9","0","0","1","607","0","0"
"081218","09:01:02","523688081","practice","1","prime_obama_practice","10","0","0","0","676","0","0"
"081218","09:01:02","523688081","practice","1","prime_trump_practice","11","0","0","1","727","0","0"
"081218","09:01:02","523688081","practice","1","prime_trump_practice","12","0","0","0","647","0","0"
"081218","09:01:02","523688081","practice","1","prime_obama_practice","13","0","0","0","939","0","0"
"081218","09:01:02","523688081","test","2","prime_trump","2","2","37","0","730","0","0"
"081218","09:01:02","523688081","test","2","prime_obama","3","5","19","0","683","0","0"
"081218","09:01:02","523688081","test","2","prime_trump","4","5","45","0","636","0","0"
"081218","09:01:02","523688081","test","2","prime_trump","5","4","62","0","721","0","0"
"081218","09:01:02","523688081","test","2","prime_obama","6","3","53","1","577","50","0"
"081218","09:01:02","523688081","test","2","prime_obama","7","4","64","0","760","33","0"
"081218","09:01:02","523688081","test","2","prime_obama","8","2","38","1","503","50","0"
"081218","09:01:02","523688081","test","2","prime_trump","9","2","70","1","496","50","25"
"081218","09:01:02","523688081","test","2","prime_obama","10","5","54","1","618","60","25"
"081218","09:01:02","523688081","test","2","prime_trump","11","1","28","0","719","60","20"
"081218","09:01:02","523688081","test","2","prime_obama","12","6","2","0","687","50","20"
"081218","09:01:02","523688081","test","2","prime_trump","13","3","47","0","689","50","16"
"081218","09:01:02","523688081","test","2","prime_trump","14","6","60","1","627","50","28"
"081218","09:01:02","523688081","test","2","prime_trump","15","4","51","1","616","50","37"
"081218","09:01:02","523688081","test","2","prime_obama","16","1","1","0","540","42","37"
"081218","09:01:02","523688081","test","2","prime_obama","17","3","29","1","564","50","37"
"081218","09:01:02","523688081","test","2","prime_obama","18","1","15","1","908","55","37"
"081218","09:01:02","523688081","test","2","prime_obama","19","4","49","1","565","60","37"
"081218","09:01:02","523688081","test","2","prime_trump","20","1","55","1","778","60","44"
"081218","09:01:02","523688081","test","2","prime_obama","21","6","63","1","665","63","44"
"081218","09:01:02","523688081","test","2","prime_trump","22","6","44","1","844","63","50"
"081218","09:01:02","523688081","test","2","prime_obama","23","5","40","1","616","66","50"
"081218","09:01:02","523688081","test","2","prime_obama","24","2","50","1","685","69","50"
"081218","09:01:02","523688081","test","2","prime_obama","25","1","65","1","639","71","50"
"081218","09:01:02","523688081","test","2","prime_trump","26","2","59","0","563","71","45"
"081218","09:01:02","523688081","test","2","prime_obama","27","3","24","1","586","73","45"
"081218","09:01:02","523688081","test","2","prime_trump","28","3","33","1","576","73","50"
"081218","09:01:02","523688081","test","2","prime_trump","29","5","16","0","583","73","46"
"081218","09:01:02","523688081","test","2","prime_obama","30","2","13","1","797","75","46"
"081218","09:01:02","523688081","test","2","prime_trump","31","4","6","0","619","75","42"
"081218","09:01:02","523688081","test","2","prime_obama","32","4","42","0","591","70","42"
"081218","09:01:02","523688081","test","2","prime_trump","33","5","8","0","613","70","40"
"081218","09:01:02","523688081","test","2","prime_trump","34","1","9","1","538","70","43"
"081218","09:01:02","523688081","test","2","prime_obama","35","5","21","1","561","72","43"
"081218","09:01:02","523688081","test","2","prime_trump","36","6","4","0","633","72","41"
"081218","09:01:02","523688081","test","2","prime_obama","37","6","5","0","541","68","41"
"081218","09:01:02","523688081","test","2","prime_trump","38","3","34","1","628","68","44"
"081218","09:01:02","523688081","test","2","prime_trump","39","2","10","1","617","68","47"
"081218","09:01:02","523688081","test","2","prime_trump","40","4","61","1","637","68","50"
"081218","09:01:02","523688081","test","2","prime_trump","41","1","18","1","721","68","52"
"081218","09:01:02","523688081","test","2","prime_obama","42","4","35","0","593","65","52"
"081218","09:01:02","523688081","test","2","prime_trump","43","2","17","1","679","65","54"
"081218","09:01:02","523688081","test","2","prime_obama","44","2","66","1","714","66","54"
"081218","09:01:02","523688081","test","2","prime_obama","45","5","23","1","523","68","54"
"081218","09:01:02","523688081","test","2","prime_obama","46","1","22","1","612","69","54"
"081218","09:01:02","523688081","test","2","prime_trump","47","6","3","1","570","69","56"
"081218","09:01:02","523688081","test","2","prime_obama","48","3","69","1","624","70","56"
"081218","09:01:02","523688081","test","2","prime_obama","49","6","46","1","517","72","56"
"081218","09:01:02","523688081","test","2","prime_trump","50","5","52","0","621","72","54"
"081218","09:01:02","523688081","test","2","prime_obama","51","4","25","1","514","73","54"
"081218","09:01:02","523688081","test","2","prime_trump","52","3","67","1","603","73","56"
"081218","09:01:02","523688081","test","2","prime_trump","53","3","57","1","736","73","57"
"081218","09:01:02","523688081","test","2","prime_obama","54","3","14","1","608","74","57"
"081218","09:01:02","523688081","test","2","prime_obama","55","1","72","1","533","75","57"
"081218","09:01:02","523688081","test","2","prime_trump","56","2","48","1","654","75","59"
"081218","09:01:02","523688081","test","2","prime_trump","57","1","26","1","545","75","60"
"081218","09:01:02","523688081","test","2","prime_obama","58","2","12","1","633","75","60"
"081218","09:01:02","523688081","test","2","prime_obama","59","6","41","1","793","76","60"
"081218","09:01:02","523688081","test","2","prime_trump","60","5","20","1","1531","76","62"
"081218","09:01:02","523688081","test","2","prime_obama","61","5","32","1","636","77","62"
"081218","09:01:02","523688081","test","2","prime_trump","62","4","56","1","687","77","63"
"081218","09:01:02","523688081","test","2","prime_obama","63","2","27","1","561","78","63"
"081218","09:01:02","523688081","test","2","prime_obama","64","6","14","1","760","78","63"
"081218","09:01:02","523688081","test","2","prime_trump","65","6","30","1","696","78","64"
"081218","09:01:02","523688081","test","2","prime_trump","66","5","52","0","538","78","62"
"081218","09:01:02","523688081","test","2","prime_trump","67","2","61","1","594","78","63"
"081218","09:01:02","523688081","test","2","prime_trump","68","1","27","1","535","78","64"
"081218","09:01:02","523688081","test","2","prime_trump","69","3","69","1","928","78","65"
"081218","09:01:02","523688081","test","2","prime_trump","70","4","34","1","664","78","66"
"081218","09:01:02","523688081","test","2","prime_obama","71","3","68","0","652","76","66"
"081218","09:01:02","523688081","test","2","prime_obama","72","5","11","1","622","77","66"
"081218","09:01:02","523688081","test","2","prime_obama","73","4","47","0","595","75","66"
"081218","09:04:54","826097398","practice","1","prime_trump_practice","4","0","0","1","2049","0","0"
"081218","09:04:54","826097398","practice","1","prime_obama_practice","5","0","0","0","662","0","0"
"081218","09:04:54","826097398","practice","1","prime_trump_practice","6","0","0","0","942","0","0"
"081218","09:04:54","826097398","practice","1","prime_obama_practice","7","0","0","1","695","0","0"
"081218","09:04:54","826097398","practice","1","prime_obama_practice","8","0","0","0","554","0","0"
"081218","09:04:54","826097398","practice","1","prime_trump_practice","9","0","0","0","1165","0","0"
"081218","09:04:54","826097398","practice","1","prime_trump_practice","10","0","0","1","431","0","0"
"081218","09:04:54","826097398","practice","1","prime_trump_practice","11","0","0","1","591","0","0"
"081218","09:04:54","826097398","practice","1","prime_obama_practice","12","0","0","0","649","0","0"
"081218","09:04:54","826097398","practice","1","prime_obama_practice","13","0","0","0","923","0","0"
"081218","09:04:54","826097398","test","2","prime_obama","2","4","35","0","551","0","0"
"081218","09:04:54","826097398","test","2","prime_obama","3","3","61","0","1176","0","0"
"081218","09:04:54","826097398","test","2","prime_obama","4","2","24","1","483","33","0"
"081218","09:04:54","826097398","test","2","prime_obama","5","4","2","0","635","25","0"
"081218","09:04:54","826097398","test","2","prime_obama","6","6","26","0","593","20","0"
"081218","09:04:54","826097398","test","2","prime_obama","7","5","71","0","378","16","0"
"081218","09:04:54","826097398","test","2","prime_trump","8","3","63","1","472","16","100"
"081218","09:04:54","826097398","test","2","prime_trump","9","4","49","1","489","16","100"
"081218","09:04:54","826097398","test","2","prime_obama","10","1","17","0","607","14","100"
"081218","09:04:54","826097398","test","2","prime_trump","11","6","54","0","308","14","66"
"081218","09:04:54","826097398","test","2","prime_obama","12","6","1","0","499","12","66"
"081218","09:04:54","826097398","test","2","prime_trump","13","2","68","0","855","12","50"
"081218","09:04:54","826097398","test","2","prime_trump","14","1","8","0","962","12","40"
"081218","09:04:54","826097398","test","2","prime_trump","15","5","48","0","440","12","33"
"081218","09:04:54","826097398","test","2","prime_trump","16","3","46","1","503","12","42"
"081218","09:04:54","826097398","test","2","prime_obama","17","5","23","0","922","11","42"
"081218","09:04:54","826097398","test","2","prime_trump","18","3","22","1","449","11","50"
"081218","09:04:54","826097398","test","2","prime_obama","19","1","34","0","513","10","50"
"081218","09:04:54","826097398","test","2","prime_obama","20","2","32","1","346","18","50"
"081218","09:04:54","826097398","test","2","prime_trump","21","1","60","1","413","18","55"
"081218","09:04:54","826097398","test","2","prime_trump","22","4","40","1","557","18","60"
"081218","09:04:54","826097398","test","2","prime_trump","23","5","47","0","406","18","54"
"081218","09:04:54","826097398","test","2","prime_trump","24","2","43","0","503","18","50"
"081218","09:04:54","826097398","test","2","prime_obama","25","4","45","1","461","25","50"
"081218","09:04:54","826097398","test","2","prime_obama","26","3","25","0","674","23","50"
"081218","09:04:54","826097398","test","2","prime_trump","27","6","19","1","374","23","53"
"081218","09:04:54","826097398","test","2","prime_trump","28","5","36","0","849","23","50"
"081218","09:04:54","826097398","test","2","prime_obama","29","6","69","1","876","28","50"
"081218","09:04:54","826097398","test","2","prime_obama","30","1","38","0","669","26","50"
"081218","09:04:54","826097398","test","2","prime_obama","31","3","72","1","636","31","50"
"081218","09:04:54","826097398","test","2","prime_trump","32","4","20","1","555","31","53"
"081218","09:04:54","826097398","test","2","prime_obama","33","5","29","0","592","29","53"
"081218","09:04:54","826097398","test","2","prime_trump","34","1","28","1","441","29","56"
"081218","09:04:54","826097398","test","2","prime_obama","35","4","59","0","440","27","56"
"081218","09:04:54","826097398","test","2","prime_trump","36","6","57","1","320","27","58"
"081218","09:04:54","826097398","test","2","prime_obama","37","2","14","1","456","31","58"
"081218","09:04:54","826097398","test","2","prime_trump","38","2","7","0","389","31","55"
"081218","09:04:54","826097398","test","2","prime_obama","39","6","56","1","387","35","55"
"081218","09:04:54","826097398","test","2","prime_trump","40","3","10","1","500","35","57"
"081218","09:04:54","826097398","test","2","prime_trump","41","5","39","0","355","35","55"
"081218","09:04:54","826097398","test","2","prime_obama","42","2","21","1","438","38","55"
"081218","09:04:54","826097398","test","2","prime_obama","43","5","33","0","410","36","55"
"081218","09:04:54","826097398","test","2","prime_obama","44","4","3","0","581","34","55"
"081218","09:04:54","826097398","test","2","prime_trump","45","4","4","0","561","34","52"
"081218","09:04:54","826097398","test","2","prime_obama","46","1","53","1","399","37","52"
"081218","09:04:54","826097398","test","2","prime_trump","47","2","13","0","402","37","50"
"081218","09:04:54","826097398","test","2","prime_trump","48","3","44","1","401","37","52"
"081218","09:04:54","826097398","test","2","prime_trump","49","6","27","0","427","37","50"
"081218","09:04:54","826097398","test","2","prime_obama","50","3","41","1","372","40","50"
"081218","09:04:54","826097398","test","2","prime_trump","51","1","30","1","414","40","52"
"081218","09:04:54","826097398","test","2","prime_trump","52","6","9","0","432","40","50"
"081218","09:04:54","826097398","test","2","prime_trump","53","1","50","1","366","40","51"
"081218","09:04:54","826097398","test","2","prime_trump","54","4","18","1","335","40","53"
"081218","09:04:54","826097398","test","2","prime_obama","55","2","31","1","453","42","53"
"081218","09:04:54","826097398","test","2","prime_trump","56","5","55","0","402","42","51"
"081218","09:04:54","826097398","test","2","prime_trump","57","2","52","1","246","42","53"
"081218","09:04:54","826097398","test","2","prime_obama","58","5","37","0","324","40","53"
"081218","09:04:54","826097398","test","2","prime_obama","59","6","15","0","344","39","53"
"081218","09:04:54","826097398","test","2","prime_obama","60","1","66","1","201","41","53"
"081218","09:04:54","826097398","test","2","prime_obama","61","4","70","1","211","43","53"
"081218","09:04:54","826097398","test","2","prime_obama","62","3","5","1","535","45","53"
"081218","09:04:54","826097398","test","2","prime_obama","63","2","62","1","461","46","53"
"081218","09:04:54","826097398","test","2","prime_trump","64","3","12","1","437","46","54"
"081218","09:04:54","826097398","test","2","prime_trump","65","5","72","1","413","46","56"
"081218","09:04:54","826097398","test","2","prime_trump","66","4","8","1","503","46","57"
"081218","09:04:54","826097398","test","2","prime_trump","67","6","48","1","921","46","58"
"081218","09:04:54","826097398","test","2","prime_obama","68","1","20","1","556","48","58"
"081218","09:04:54","826097398","test","2","prime_obama","69","3","5","0","530","47","58"
"081218","09:04:54","826097398","test","2","prime_obama","70","4","13","0","790","45","58"
"081218","09:04:54","826097398","test","2","prime_obama","71","5","53","0","404","44","58"
"081218","09:04:54","826097398","test","2","prime_trump","72","2","45","1","1128","44","60"
"081218","09:04:54","826097398","test","2","prime_trump","73","1","11","1","578","44","61"
"081218","09:04:29","57707475","practice","1","prime_trump_practice","4","0","0","0","5812","0","0"
"081218","09:04:29","57707475","practice","1","prime_trump_practice","5","0","0","0","4331","0","0"
"081218","09:04:29","57707475","practice","1","prime_trump_practice","6","0","0","0","5980","0","0"
"081218","09:04:29","57707475","practice","1","prime_obama_practice","7","0","0","0","5187","0","0"
"081218","09:04:29","57707475","practice","1","prime_obama_practice","8","0","0","0","1417","0","0"
"081218","09:04:29","57707475","practice","1","prime_trump_practice","9","0","0","1","3449","0","0"
"081218","09:04:29","57707475","practice","1","prime_obama_practice","10","0","0","0","598","0","0"
"081218","09:04:29","57707475","practice","1","prime_obama_practice","11","0","0","0","691","0","0"
"081218","09:04:29","57707475","practice","1","prime_trump_practice","12","0","0","1","1568","0","0"
"081218","09:04:29","57707475","practice","1","prime_obama_practice","13","0","0","0","956","0","0"
"081218","09:04:29","57707475","test","2","prime_obama","2","5","63","0","1450","0","0"
"081218","09:04:29","57707475","test","2","prime_obama","3","4","45","0","826","0","0"
"081218","09:04:29","57707475","test","2","prime_trump","4","3","2","1","719","0","100"
"081218","09:04:29","57707475","test","2","prime_obama","5","1","4","0","816","0","100"
"081218","09:04:29","57707475","test","2","prime_obama","6","5","50","0","400","0","100"
"081218","09:04:29","57707475","test","2","prime_trump","7","3","62","1","721","0","100"
"081218","09:04:29","57707475","test","2","prime_obama","8","2","58","0","464","0","100"
"081218","09:04:29","57707475","test","2","prime_obama","9","3","22","0","571","0","100"
"081218","09:04:29","57707475","test","2","prime_obama","10","6","39","0","3903","0","100"
"081218","09:04:29","57707475","test","2","prime_obama","11","1","19","0","858","0","100"
"081218","09:04:29","57707475","test","2","prime_obama","12","4","7","0","878","0","100"
"081218","09:04:29","57707475","test","2","prime_obama","13","6","49","0","603","0","100"
"081218","09:04:29","57707475","test","2","prime_trump","14","1","37","1","630","0","100"
"081218","09:04:29","57707475","test","2","prime_trump","15","4","40","1","1069","0","100"
"081218","09:04:29","57707475","test","2","prime_trump","16","5","38","1","704","0","100"
"081218","09:04:29","57707475","test","2","prime_trump","17","2","3","1","636","0","100"
"081218","09:04:29","57707475","test","2","prime_obama","18","2","13","1","2041","9","100"
"081218","09:04:29","57707475","test","2","prime_trump","19","6","24","1","966","9","100"
"081218","09:04:29","57707475","test","2","prime_obama","20","3","47","1","1799","16","100"
"081218","09:04:29","57707475","test","2","prime_trump","21","5","60","1","956","16","100"
"081218","09:04:29","57707475","test","2","prime_obama","22","5","42","0","764","15","100"
"081218","09:04:29","57707475","test","2","prime_obama","23","4","30","0","449","14","100"
"081218","09:04:29","57707475","test","2","prime_obama","24","6","54","0","479","13","100"
"081218","09:04:29","57707475","test","2","prime_trump","25","6","25","1","316","13","100"
"081218","09:04:29","57707475","test","2","prime_obama","26","1","6","0","289","12","100"
"081218","09:04:29","57707475","test","2","prime_trump","27","2","41","1","249","12","100"
"081218","09:04:29","57707475","test","2","prime_trump","28","4","51","1","483","12","100"
"081218","09:04:29","57707475","test","2","prime_obama","29","3","11","0","2857","11","100"
"081218","09:04:29","57707475","test","2","prime_obama","30","5","46","0","453","11","100"
"081218","09:04:29","57707475","test","2","prime_obama","31","2","32","1","1641","15","100"
"081218","09:04:29","57707475","test","2","prime_trump","32","1","9","0","1347","15","91"
"081218","09:04:29","57707475","test","2","prime_trump","33","3","34","0","1132","15","84"
"081218","09:04:29","57707475","test","2","prime_obama","34","6","12","0","680","15","84"
"081218","09:04:29","57707475","test","2","prime_trump","35","2","28","1","524","15","85"
"081218","09:04:29","57707475","test","2","prime_trump","36","5","8","1","401","15","86"
"081218","09:04:29","57707475","test","2","prime_obama","37","1","35","0","425","14","86"
"081218","09:04:29","57707475","test","2","prime_obama","38","3","65","0","427","13","86"
"081218","09:04:29","57707475","test","2","prime_obama","39","2","21","0","371","13","86"
"081218","09:04:29","57707475","test","2","prime_trump","40","4","31","1","282","13","87"
"081218","09:04:29","57707475","test","2","prime_trump","41","6","26","1","297","13","88"
"081218","09:04:29","57707475","test","2","prime_obama","42","5","29","0","343","12","88"
"081218","09:04:29","57707475","test","2","prime_obama","43","4","27","0","411","12","88"
"081218","09:04:29","57707475","test","2","prime_trump","44","3","36","1","230","12","88"
"081218","09:04:29","57707475","test","2","prime_obama","45","2","66","0","300","11","88"
"081218","09:04:29","57707475","test","2","prime_obama","46","5","61","0","230","11","88"
"081218","09:04:29","57707475","test","2","prime_trump","47","1","10","1","261","11","89"
"081218","09:04:29","57707475","test","2","prime_trump","48","3","55","1","338","11","90"
"081218","09:04:29","57707475","test","2","prime_trump","49","2","72","1","1213","11","90"
"081218","09:04:29","57707475","test","2","prime_trump","50","6","69","1","255","11","90"
"081218","09:04:29","57707475","test","2","prime_trump","51","4","64","1","199","11","91"
"081218","09:04:29","57707475","test","2","prime_trump","52","1","59","1","318","11","91"
"081218","09:04:29","57707475","test","2","prime_obama","53","6","17","0","304","10","91"
"081218","09:04:29","57707475","test","2","prime_trump","54","5","67","0","1962","10","88"
"081218","09:04:29","57707475","test","2","prime_trump","55","4","14","1","363","10","88"
"081218","09:04:29","57707475","test","2","prime_obama","56","3","20","0","268","10","88"
"081218","09:04:29","57707475","test","2","prime_obama","57","1","15","0","290","10","88"
"081218","09:04:29","57707475","test","2","prime_trump","58","1","71","1","225","10","88"
"081218","09:04:29","57707475","test","2","prime_trump","59","5","18","1","4702","10","89"
"081218","09:04:29","57707475","test","2","prime_obama","60","4","23","0","592","9","89"
"081218","09:04:29","57707475","test","2","prime_trump","61","3","16","1","399","9","89"
"081218","09:04:29","57707475","test","2","prime_trump","62","2","1","1","204","9","90"
"081218","09:04:29","57707475","test","2","prime_trump","63","6","57","1","324","9","90"
"081218","09:04:29","57707475","test","2","prime_trump","64","3","45","1","2226","9","90"
"081218","09:04:29","57707475","test","2","prime_obama","65","6","12","0","582","9","90"
"081218","09:04:29","57707475","test","2","prime_obama","66","2","15","0","398","9","90"
"081218","09:04:29","57707475","test","2","prime_trump","67","6","48","0","344","9","87"
"081218","09:04:29","57707475","test","2","prime_obama","68","5","5","0","377","8","87"
"081218","09:04:29","57707475","test","2","prime_trump","69","5","28","0","895","8","85"
"081218","09:04:29","57707475","test","2","prime_obama","70","3","21","0","374","8","85"
"081218","09:04:29","57707475","test","2","prime_trump","71","4","47","0","418","8","82"
"081218","09:04:29","57707475","test","2","prime_trump","72","1","70","1","425","8","83"
"081218","09:04:29","57707475","test","2","prime_obama","73","1","9","1","734","11","83"
"081218","08:05:19","686557308","practice","1","prime_obama_practice","4","0","0","0","2785","0","0"
"081218","08:05:19","686557308","practice","1","prime_obama_practice","5","0","0","1","1211","0","0"
"081218","08:05:19","686557308","practice","1","prime_trump_practice","6","0","0","1","1174","0","0"
"081218","08:05:19","686557308","practice","1","prime_trump_practice","7","0","0","1","914","0","0"
"081218","08:05:19","686557308","practice","1","prime_obama_practice","8","0","0","0","2174","0","0"
"081218","08:05:19","686557308","practice","1","prime_obama_practice","9","0","0","0","1981","0","0"
"081218","08:05:19","686557308","practice","1","prime_trump_practice","10","0","0","1","1212","0","0"
"081218","08:05:19","686557308","practice","1","prime_trump_practice","11","0","0","1","576","0","0"
"081218","08:05:19","686557308","practice","1","prime_obama_practice","12","0","0","1","509","0","0"
"081218","08:05:19","686557308","practice","1","prime_trump_practice","13","0","0","1","567","0","0"
"081218","08:05:19","686557308","test","2","prime_obama","2","2","55","0","1119","0","0"
"081218","08:05:19","686557308","test","2","prime_obama","3","5","17","1","730","50","0"
"081218","08:05:19","686557308","test","2","prime_obama","4","4","48","0","1259","33","0"
"081218","08:05:19","686557308","test","2","prime_obama","5","6","61","1","370","50","0"
"081218","08:05:19","686557308","test","2","prime_obama","6","2","54","1","489","60","0"
"081218","08:05:19","686557308","test","2","prime_trump","7","2","27","1","686","60","100"
"081218","08:05:19","686557308","test","2","prime_obama","8","3","32","1","588","66","100"
"081218","08:05:19","686557308","test","2","prime_obama","9","1","72","0","393","57","100"
"081218","08:05:19","686557308","test","2","prime_trump","10","6","5","0","435","57","50"
"081218","08:05:19","686557308","test","2","prime_obama","11","5","35","0","751","50","50"
"081218","08:05:19","686557308","test","2","prime_trump","12","5","21","1","330","50","66"
"081218","08:05:19","686557308","test","2","prime_trump","13","4","59","1","397","50","75"
"081218","08:05:19","686557308","test","2","prime_trump","14","2","31","1","549","50","80"
"081218","08:05:19","686557308","test","2","prime_trump","15","1","24","1","768","50","83"
"081218","08:05:19","686557308","test","2","prime_trump","16","3","1","1","472","50","85"
"081218","08:05:19","686557308","test","2","prime_trump","17","4","20","1","582","50","87"
"081218","08:05:19","686557308","test","2","prime_obama","18","3","2","0","753","44","87"
"081218","08:05:19","686557308","test","2","prime_obama","19","4","30","0","1348","40","87"
"081218","08:05:19","686557308","test","2","prime_obama","20","2","40","0","1481","36","87"
"081218","08:05:19","686557308","test","2","prime_obama","21","1","47","0","492","33","87"
"081218","08:05:19","686557308","test","2","prime_obama","22","6","29","0","485","30","87"
"081218","08:05:19","686557308","test","2","prime_trump","23","2","9","1","844","30","88"
"081218","08:05:19","686557308","test","2","prime_trump","24","5","18","1","427","30","90"
"081218","08:05:19","686557308","test","2","prime_trump","25","6","57","1","439","30","90"
"081218","08:05:19","686557308","test","2","prime_trump","26","1","41","1","498","30","91"
"081218","08:05:19","686557308","test","2","prime_trump","27","3","4","0","1132","30","84"
"081218","08:05:19","686557308","test","2","prime_trump","28","1","28","1","1010","30","85"
"081218","08:05:19","686557308","test","2","prime_obama","29","3","19","0","1360","28","85"
"081218","08:05:19","686557308","test","2","prime_obama","30","6","6","1","763","33","85"
"081218","08:05:19","686557308","test","2","prime_obama","31","1","69","1","392","37","85"
"081218","08:05:19","686557308","test","2","prime_obama","32","2","53","0","474","35","85"
"081218","08:05:19","686557308","test","2","prime_trump","33","3","60","0","816","35","80"
"081218","08:05:19","686557308","test","2","prime_obama","34","5","56","0","590","33","80"
"081218","08:05:19","686557308","test","2","prime_trump","35","4","68","1","827","33","81"
"081218","08:05:19","686557308","test","2","prime_obama","36","4","25","0","1044","31","81"
"081218","08:05:19","686557308","test","2","prime_trump","37","5","42","0","2223","31","76"
"081218","08:05:19","686557308","test","2","prime_obama","38","2","58","0","541","30","76"
"081218","08:05:19","686557308","test","2","prime_obama","39","1","23","1","509","33","76"
"081218","08:05:19","686557308","test","2","prime_obama","40","4","8","1","561","36","76"
"081218","08:05:19","686557308","test","2","prime_trump","41","2","67","0","800","36","72"
"081218","08:05:19","686557308","test","2","prime_trump","42","6","15","0","734","36","68"
"081218","08:05:19","686557308","test","2","prime_trump","43","1","16","1","434","36","70"
"081218","08:05:19","686557308","test","2","prime_trump","44","6","33","0","796","36","66"
"081218","08:05:19","686557308","test","2","prime_obama","45","5","49","0","828","34","66"
"081218","08:05:19","686557308","test","2","prime_trump","46","3","22","0","1105","34","63"
"081218","08:05:19","686557308","test","2","prime_trump","47","5","62","1","470","34","65"
"081218","08:05:19","686557308","test","2","prime_trump","48","4","38","1","816","34","66"
"081218","08:05:19","686557308","test","2","prime_trump","49","2","71","0","703","34","64"
"081218","08:05:19","686557308","test","2","prime_obama","50","6","36","1","859","37","64"
"081218","08:05:19","686557308","test","2","prime_trump","51","4","65","0","749","37","61"
"081218","08:05:19","686557308","test","2","prime_obama","52","3","63","0","684","36","61"
"081218","08:05:19","686557308","test","2","prime_obama","53","1","37","1","932","38","61"
"081218","08:05:19","686557308","test","2","prime_obama","54","2","66","0","748","37","61"
"081218","08:05:19","686557308","test","2","prime_trump","55","6","46","1","729","37","62"
"081218","08:05:19","686557308","test","2","prime_obama","56","4","64","0","733","35","62"
"081218","08:05:19","686557308","test","2","prime_obama","57","3","12","0","612","34","62"
"081218","08:05:19","686557308","test","2","prime_obama","58","6","10","0","600","33","62"
"081218","08:05:19","686557308","test","2","prime_trump","59","2","44","0","641","33","60"
"081218","08:05:19","686557308","test","2","prime_obama","60","5","7","1","1546","35","60"
"081218","08:05:19","686557308","test","2","prime_trump","61","3","51","1","612","35","62"
"081218","08:05:19","686557308","test","2","prime_trump","62","5","50","0","786","35","60"
"081218","08:05:19","686557308","test","2","prime_trump","63","1","14","0","696","35","58"
"081218","08:05:19","686557308","test","2","prime_obama","64","2","56","0","446","34","58"
"081218","08:05:19","686557308","test","2","prime_obama","65","5","42","0","419","33","58"
"081218","08:05:19","686557308","test","2","prime_trump","66","2","3","1","659","33","59"
"081218","08:05:19","686557308","test","2","prime_obama","67","3","68","1","704","35","59"
"081218","08:05:19","686557308","test","2","prime_trump","68","6","10","0","621","35","57"
"081218","08:05:19","686557308","test","2","prime_trump","69","5","21","1","375","35","58"
"081218","08:05:19","686557308","test","2","prime_trump","70","4","61","0","805","35","57"
"081218","08:05:19","686557308","test","2","prime_obama","71","1","57","0","490","34","57"
"081218","08:05:19","686557308","test","2","prime_obama","72","4","29","1","718","36","57"
"081218","08:05:19","686557308","test","2","prime_trump","73","1","9","1","597","36","58"
"081218","08:09:48","650731623","practice","1","prime_obama_practice","4","0","0","1","4276","0","0"
"081218","08:09:48","650731623","practice","1","prime_trump_practice","5","0","0","0","1047","0","0"
"081218","08:09:48","650731623","practice","1","prime_trump_practice","6","0","0","1","1155","0","0"
"081218","08:09:48","650731623","practice","1","prime_obama_practice","7","0","0","0","706","0","0"
"081218","08:09:48","650731623","practice","1","prime_obama_practice","8","0","0","0","651","0","0"
"081218","08:09:48","650731623","practice","1","prime_obama_practice","9","0","0","0","1207","0","0"
"081218","08:09:48","650731623","practice","1","prime_obama_practice","10","0","0","0","716","0","0"
"081218","08:09:48","650731623","practice","1","prime_trump_practice","11","0","0","1","589","0","0"
"081218","08:09:48","650731623","practice","1","prime_trump_practice","12","0","0","1","539","0","0"
"081218","08:09:48","650731623","practice","1","prime_trump_practice","13","0","0","1","955","0","0"
"081218","08:09:48","650731623","test","2","prime_obama","2","3","10","1","1376","100","0"
"081218","08:09:48","650731623","test","2","prime_obama","3","1","32","1","607","100","0"
"081218","08:09:48","650731623","test","2","prime_trump","4","2","40","1","500","100","100"
"081218","08:09:48","650731623","test","2","prime_trump","5","6","72","1","501","100","100"
"081218","08:09:48","650731623","test","2","prime_obama","6","6","25","1","463","100","100"
"081218","08:09:48","650731623","test","2","prime_obama","7","3","48","0","514","75","100"
"081218","08:09:48","650731623","test","2","prime_obama","8","5","61","1","731","80","100"
"081218","08:09:48","650731623","test","2","prime_trump","9","1","2","1","540","80","100"
"081218","08:09:48","650731623","test","2","prime_trump","10","2","63","0","748","80","75"
"081218","08:09:48","650731623","test","2","prime_obama","11","2","14","0","492","66","75"
"081218","08:09:48","650731623","test","2","prime_obama","12","4","69","0","406","57","75"
"081218","08:09:48","650731623","test","2","prime_obama","13","5","53","0","2083","50","75"
"081218","08:09:48","650731623","test","2","prime_trump","14","3","11","1","477","50","80"
"081218","08:09:48","650731623","test","2","prime_trump","15","5","23","1","480","50","83"
"081218","08:09:48","650731623","test","2","prime_obama","16","4","65","1","507","55","83"
"081218","08:09:48","650731623","test","2","prime_trump","17","4","55","1","444","55","85"
"081218","08:09:48","650731623","test","2","prime_obama","18","2","35","0","760","50","85"
"081218","08:09:48","650731623","test","2","prime_obama","19","3","1","0","479","45","85"
"081218","08:09:48","650731623","test","2","prime_obama","20","1","4","0","418","41","85"
"081218","08:09:48","650731623","test","2","prime_obama","21","6","51","0","543","38","85"
"081218","08:09:48","650731623","test","2","prime_trump","22","6","52","0","583","38","75"
"081218","08:09:48","650731623","test","2","prime_trump","23","1","5","0","341","38","66"
"081218","08:09:48","650731623","test","2","prime_obama","24","2","59","0","821","35","66"
"081218","08:09:48","650731623","test","2","prime_trump","25","2","57","1","425","35","70"
"081218","08:09:48","650731623","test","2","prime_trump","26","4","70","1","350","35","72"
"081218","08:09:48","650731623","test","2","prime_obama","27","4","12","1","557","40","72"
"081218","08:09:48","650731623","test","2","prime_obama","28","6","56","0","413","37","72"
"081218","08:09:48","650731623","test","2","prime_obama","29","1","47","1","754","41","72"
"081218","08:09:48","650731623","test","2","prime_obama","30","5","6","1","633","44","72"
"081218","08:09:48","650731623","test","2","prime_trump","31","5","18","1","517","44","75"
"081218","08:09:48","650731623","test","2","prime_obama","32","3","24","1","454","47","75"
"081218","08:09:48","650731623","test","2","prime_trump","33","3","68","1","345","47","76"
"081218","08:09:48","650731623","test","2","prime_obama","34","4","39","1","433","50","76"
"081218","08:09:48","650731623","test","2","prime_trump","35","6","38","1","437","50","78"
"081218","08:09:48","650731623","test","2","prime_trump","36","3","15","0","1049","50","73"
"081218","08:09:48","650731623","test","2","prime_trump","37","4","49","1","541","50","75"
"081218","08:09:48","650731623","test","2","prime_trump","38","1","67","0","693","50","70"
"081218","08:09:48","650731623","test","2","prime_trump","39","5","71","0","607","50","66"
"081218","08:09:48","650731623","test","2","prime_trump","40","2","29","1","548","50","68"
"081218","08:09:48","650731623","test","2","prime_trump","41","1","8","1","436","50","70"
"081218","08:09:48","650731623","test","2","prime_trump","42","3","36","1","360","50","71"
"081218","08:09:48","650731623","test","2","prime_obama","43","2","54","1","495","52","71"
"081218","08:09:48","650731623","test","2","prime_obama","44","5","20","0","553","50","71"
"081218","08:09:48","650731623","test","2","prime_obama","45","1","22","1","577","52","71"
"081218","08:09:48","650731623","test","2","prime_trump","46","5","44","0","1071","52","68"
"081218","08:09:48","650731623","test","2","prime_trump","47","6","16","0","794","52","65"
"081218","08:09:48","650731623","test","2","prime_obama","48","3","17","1","440","54","65"
"081218","08:09:48","650731623","test","2","prime_trump","49","2","42","0","1436","54","62"
"081218","08:09:48","650731623","test","2","prime_obama","50","6","26","0","400","52","62"
"081218","08:09:48","650731623","test","2","prime_trump","51","4","43","1","357","52","64"
"081218","08:09:48","650731623","test","2","prime_trump","52","3","41","0","557","52","61"
"081218","08:09:48","650731623","test","2","prime_obama","53","6","66","0","588","50","61"
"081218","08:09:48","650731623","test","2","prime_trump","54","1","45","0","586","50","59"
"081218","08:09:48","650731623","test","2","prime_trump","55","4","28","1","408","50","60"
"081218","08:09:48","650731623","test","2","prime_trump","56","2","13","1","469","50","62"
"081218","08:09:48","650731623","test","2","prime_obama","57","1","46","1","376","51","62"
"081218","08:09:48","650731623","test","2","prime_trump","58","6","37","1","750","51","63"
"081218","08:09:48","650731623","test","2","prime_obama","59","4","9","1","566","53","63"
"081218","08:09:48","650731623","test","2","prime_obama","60","2","60","1","461","55","63"
"081218","08:09:48","650731623","test","2","prime_obama","61","5","58","1","736","56","63"
"081218","08:09:48","650731623","test","2","prime_trump","62","5","30","0","352","56","61"
"081218","08:09:48","650731623","test","2","prime_obama","63","3","31","0","479","54","61"
"081218","08:09:48","650731623","test","2","prime_obama","64","4","5","1","490","56","61"
"081218","08:09:48","650731623","test","2","prime_obama","65","5","64","1","1428","57","61"
"081218","08:09:48","650731623","test","2","prime_trump","66","5","18","1","433","57","62"
"081218","08:09:48","650731623","test","2","prime_trump","67","6","71","1","421","57","63"
"081218","08:09:48","650731623","test","2","prime_trump","68","3","12","1","617","57","64"
"081218","08:09:48","650731623","test","2","prime_obama","69","1","57","0","894","55","64"
"081218","08:09:48","650731623","test","2","prime_trump","70","2","11","1","528","55","65"
"081218","08:09:48","650731623","test","2","prime_obama","71","2","50","0","633","54","65"
"081218","08:09:48","650731623","test","2","prime_obama","72","3","7","1","453","55","65"
"081218","08:09:48","650731623","test","2","prime_trump","73","4","10","0","552","55","63"
"081218","09:16:47","33298115","practice","1","prime_trump_practice","4","0","0","0","676","0","0"
"081218","09:16:47","33298115","practice","1","prime_trump_practice","5","0","0","1","358","0","0"
"081218","09:16:47","33298115","practice","1","prime_obama_practice","6","0","0","1","1157","0","0"
"081218","09:16:47","33298115","practice","1","prime_obama_practice","7","0","0","1","374","0","0"
"081218","09:16:47","33298115","practice","1","prime_trump_practice","8","0","0","0","272","0","0"
"081218","09:16:47","33298115","practice","1","prime_obama_practice","9","0","0","1","134","0","0"
"081218","09:16:47","33298115","practice","1","prime_obama_practice","10","0","0","0","492","0","0"
"081218","09:16:47","33298115","practice","1","prime_trump_practice","11","0","0","1","540","0","0"
"081218","09:16:47","33298115","practice","1","prime_trump_practice","12","0","0","1","600","0","0"
"081218","09:16:47","33298115","practice","1","prime_obama_practice","13","0","0","0","463","0","0"
"081218","09:16:47","33298115","test","2","prime_obama","2","4","36","1","711","100","0"
"081218","09:16:47","33298115","test","2","prime_obama","3","2","62","1","230","100","0"
"081218","09:16:47","33298115","test","2","prime_obama","4","5","5","0","141","66","0"
"081218","09:16:47","33298115","test","2","prime_trump","5","3","44","0","422","66","0"
"081218","09:16:47","33298115","test","2","prime_trump","6","5","42","1","312","66","50"
"081218","09:16:47","33298115","test","2","prime_obama","7","1","2","1","1011","75","50"
"081218","09:16:47","33298115","test","2","prime_trump","8","3","49","0","142","75","33"
"081218","09:16:47","33298115","test","2","prime_trump","9","4","16","0","310","75","25"
"081218","09:16:47","33298115","test","2","prime_obama","10","6","65","1","802","80","25"
"081218","09:16:47","33298115","test","2","prime_trump","11","6","18","1","694","80","40"
"081218","09:16:47","33298115","test","2","prime_obama","12","3","66","0","370","66","40"
"081218","09:16:47","33298115","test","2","prime_obama","13","4","47","1","514","71","40"
"081218","09:16:47","33298115","test","2","prime_obama","14","2","28","1","712","75","40"
"081218","09:16:47","33298115","test","2","prime_trump","15","1","3","1","841","75","50"
"081218","09:16:47","33298115","test","2","prime_obama","16","4","12","1","1652","77","50"
"081218","09:16:47","33298115","test","2","prime_obama","17","5","52","1","626","80","50"
"081218","09:16:47","33298115","test","2","prime_trump","18","2","8","0","980","80","42"
"081218","09:16:47","33298115","test","2","prime_trump","19","1","60","0","1223","80","37"
"081218","09:16:47","33298115","test","2","prime_obama","20","6","35","1","504","81","37"
"081218","09:16:47","33298115","test","2","prime_obama","21","3","13","1","1776","83","37"
"081218","09:16:47","33298115","test","2","prime_trump","22","2","39","1","765","83","44"
"081218","09:16:47","33298115","test","2","prime_obama","23","1","34","1","1035","84","44"
"081218","09:16:47","33298115","test","2","prime_trump","24","4","7","0","253","84","40"
"081218","09:16:47","33298115","test","2","prime_trump","25","6","63","1","1034","84","45"
"081218","09:16:47","33298115","test","2","prime_obama","26","5","27","1","2810","85","45"
"081218","09:16:47","33298115","test","2","prime_trump","27","3","51","1","1369","85","50"
"081218","09:16:47","33298115","test","2","prime_trump","28","5","38","0","425","85","46"
"081218","09:16:47","33298115","test","2","prime_trump","29","1","26","0","415","85","42"
"081218","09:16:47","33298115","test","2","prime_obama","30","1","22","1","909","86","42"
"081218","09:16:47","33298115","test","2","prime_trump","31","4","29","1","569","86","46"
"081218","09:16:47","33298115","test","2","prime_trump","32","2","46","1","1157","86","50"
"081218","09:16:47","33298115","test","2","prime_obama","33","4","10","0","981","81","50"
"081218","09:16:47","33298115","test","2","prime_trump","34","6","24","0","714","81","47"
"081218","09:16:47","33298115","test","2","prime_trump","35","5","14","1","680","81","50"
"081218","09:16:47","33298115","test","2","prime_obama","36","3","4","1","1098","82","50"
"081218","09:16:47","33298115","test","2","prime_trump","37","3","56","0","1080","82","47"
"081218","09:16:47","33298115","test","2","prime_obama","38","2","69","0","286","77","47"
"081218","09:16:47","33298115","test","2","prime_obama","39","6","19","1","1034","78","47"
"081218","09:16:47","33298115","test","2","prime_trump","40","4","72","0","356","78","45"
"081218","09:16:47","33298115","test","2","prime_obama","41","1","1","0","776","75","45"
"081218","09:16:47","33298115","test","2","prime_obama","42","5","9","0","304","71","45"
"081218","09:16:47","33298115","test","2","prime_trump","43","3","54","1","1023","71","47"
"081218","09:16:47","33298115","test","2","prime_obama","44","2","6","1","1286","72","47"
"081218","09:16:47","33298115","test","2","prime_trump","45","6","31","1","1891","72","50"
"081218","09:16:47","33298115","test","2","prime_trump","46","5","33","1","1290","72","52"
"081218","09:16:47","33298115","test","2","prime_obama","47","3","37","0","410","69","52"
"081218","09:16:47","33298115","test","2","prime_trump","48","1","11","0","814","69","50"
"081218","09:16:47","33298115","test","2","prime_obama","49","4","48","1","422","70","50"
"081218","09:16:47","33298115","test","2","prime_trump","50","2","25","1","578","70","52"
"081218","09:16:47","33298115","test","2","prime_obama","51","6","43","1","846","72","52"
"081218","09:16:47","33298115","test","2","prime_trump","52","5","23","0","483","72","50"
"081218","09:16:47","33298115","test","2","prime_trump","53","3","55","0","452","72","48"
"081218","09:16:47","33298115","test","2","prime_obama","54","3","30","1","1088","73","48"
"081218","09:16:47","33298115","test","2","prime_trump","55","2","21","0","843","73","46"
"081218","09:16:47","33298115","test","2","prime_obama","56","1","40","0","568","70","46"
"081218","09:16:47","33298115","test","2","prime_obama","57","5","68","0","373","67","46"
"081218","09:16:47","33298115","test","2","prime_obama","58","4","15","1","919","68","46"
"081218","09:16:47","33298115","test","2","prime_obama","59","2","53","1","723","70","46"
"081218","09:16:47","33298115","test","2","prime_trump","60","1","64","1","377","70","48"
"081218","09:16:47","33298115","test","2","prime_obama","61","6","71","1","1000","70","48"
"081218","09:16:47","33298115","test","2","prime_trump","62","4","50","0","593","70","46"
"081218","09:16:47","33298115","test","2","prime_obama","63","6","45","0","732","68","46"
"081218","09:16:47","33298115","test","2","prime_trump","64","6","13","0","892","68","45"
"081218","09:16:47","33298115","test","2","prime_trump","65","1","18","1","1237","68","46"
"081218","09:16:47","33298115","test","2","prime_obama","66","4","22","1","1360","69","46"
"081218","09:16:47","33298115","test","2","prime_obama","67","2","56","1","995","70","46"
"081218","09:16:47","33298115","test","2","prime_obama","68","1","60","1","1566","71","46"
"081218","09:16:47","33298115","test","2","prime_trump","69","3","25","0","1485","71","45"
"081218","09:16:47","33298115","test","2","prime_trump","70","2","49","1","645","71","47"
"081218","09:16:47","33298115","test","2","prime_trump","71","4","70","1","1798","71","48"
"081218","09:16:47","33298115","test","2","prime_obama","72","3","19","1","455","72","48"
"081218","09:16:47","33298115","test","2","prime_trump","73","5","12","1","621","72","50"
"081218","09:17:39","98019259","practice","1","prime_trump_practice","4","0","0","0","1985","0","0"
"081218","09:17:39","98019259","practice","1","prime_trump_practice","5","0","0","0","1687","0","0"
"081218","09:17:39","98019259","practice","1","prime_obama_practice","6","0","0","0","753","0","0"
"081218","09:17:39","98019259","practice","1","prime_obama_practice","7","0","0","0","2209","0","0"
"081218","09:17:39","98019259","practice","1","prime_trump_practice","8","0","0","1","1454","0","0"
"081218","09:17:39","98019259","practice","1","prime_trump_practice","9","0","0","1","1073","0","0"
"081218","09:17:39","98019259","practice","1","prime_trump_practice","10","0","0","1","612","0","0"
"081218","09:17:39","98019259","practice","1","prime_obama_practice","11","0","0","1","849","0","0"
"081218","09:17:39","98019259","practice","1","prime_obama_practice","12","0","0","1","1349","0","0"
"081218","09:17:39","98019259","practice","1","prime_obama_practice","13","0","0","0","1021","0","0"
"081218","09:17:39","98019259","test","2","prime_trump","2","5","54","0","1623","0","0"
"081218","09:17:39","98019259","test","2","prime_obama","3","2","70","0","876","0","0"
"081218","09:17:39","98019259","test","2","prime_trump","4","6","49","1","759","0","50"
"081218","09:17:39","98019259","test","2","prime_trump","5","4","38","1","782","0","66"
"081218","09:17:39","98019259","test","2","prime_obama","6","5","20","0","613","0","66"
"081218","09:17:39","98019259","test","2","prime_obama","7","6","25","0","762","0","66"
"081218","09:17:39","98019259","test","2","prime_obama","8","4","10","0","785","0","66"
"081218","09:17:39","98019259","test","2","prime_obama","9","2","29","1","463","20","66"
"081218","09:17:39","98019259","test","2","prime_obama","10","3","67","0","707","16","66"
"081218","09:17:39","98019259","test","2","prime_obama","11","1","24","1","588","28","66"
"081218","09:17:39","98019259","test","2","prime_trump","12","3","14","0","402","28","50"
"081218","09:17:39","98019259","test","2","prime_obama","13","6","41","0","575","25","50"
"081218","09:17:39","98019259","test","2","prime_obama","14","3","63","1","982","33","50"
"081218","09:17:39","98019259","test","2","prime_obama","15","5","48","1","693","40","50"
"081218","09:17:39","98019259","test","2","prime_trump","16","5","9","1","447","40","60"
"081218","09:17:39","98019259","test","2","prime_trump","17","2","36","1","563","40","66"
"081218","09:17:39","98019259","test","2","prime_trump","18","1","34","0","546","40","57"
"081218","09:17:39","98019259","test","2","prime_obama","19","4","21","0","602","36","57"
"081218","09:17:39","98019259","test","2","prime_trump","20","3","31","0","551","36","50"
"081218","09:17:39","98019259","test","2","prime_trump","21","2","53","1","567","36","55"
"081218","09:17:39","98019259","test","2","prime_trump","22","6","32","0","573","36","50"
"081218","09:17:39","98019259","test","2","prime_trump","23","4","66","0","596","36","45"
"081218","09:17:39","98019259","test","2","prime_obama","24","2","17","1","522","41","45"
"081218","09:17:39","98019259","test","2","prime_obama","25","1","64","1","555","46","45"
"081218","09:17:39","98019259","test","2","prime_obama","26","1","72","0","754","42","45"
"081218","09:17:39","98019259","test","2","prime_trump","27","5","65","0","457","42","41"
"081218","09:17:39","98019259","test","2","prime_trump","28","1","55","1","621","42","46"
"081218","09:17:39","98019259","test","2","prime_trump","29","1","39","1","466","42","50"
"081218","09:17:39","98019259","test","2","prime_obama","30","5","6","1","437","46","50"
"081218","09:17:39","98019259","test","2","prime_trump","31","2","71","0","521","46","46"
"081218","09:17:39","98019259","test","2","prime_trump","32","4","8","0","593","46","43"
"081218","09:17:39","98019259","test","2","prime_trump","33","6","28","0","735","46","41"
"081218","09:17:39","98019259","test","2","prime_trump","34","5","18","1","511","46","44"
"081218","09:17:39","98019259","test","2","prime_obama","35","6","1","1","545","50","44"
"081218","09:17:39","98019259","test","2","prime_trump","36","3","40","0","577","50","42"
"081218","09:17:39","98019259","test","2","prime_obama","37","3","5","1","543","52","42"
"081218","09:17:39","98019259","test","2","prime_obama","38","2","7","0","599","50","42"
"081218","09:17:39","98019259","test","2","prime_obama","39","4","23","1","509","52","42"
"081218","09:17:39","98019259","test","2","prime_trump","40","4","50","1","494","52","45"
"081218","09:17:39","98019259","test","2","prime_trump","41","3","27","1","472","52","47"
"081218","09:17:39","98019259","test","2","prime_trump","42","6","12","0","403","52","45"
"081218","09:17:39","98019259","test","2","prime_obama","43","2","69","0","688","50","45"
"081218","09:17:39","98019259","test","2","prime_obama","44","3","61","0","498","47","45"
"081218","09:17:39","98019259","test","2","prime_trump","45","5","4","1","492","47","47"
"081218","09:17:39","98019259","test","2","prime_obama","46","4","60","1","646","50","47"
"081218","09:17:39","98019259","test","2","prime_obama","47","5","2","0","794","47","47"
"081218","09:17:39","98019259","test","2","prime_obama","48","1","37","1","536","50","47"
"081218","09:17:39","98019259","test","2","prime_trump","49","1","26","0","584","50","45"
"081218","09:17:39","98019259","test","2","prime_trump","50","2","16","1","542","50","48"
"081218","09:17:39","98019259","test","2","prime_obama","51","6","13","1","534","52","48"
"081218","09:17:39","98019259","test","2","prime_trump","52","5","19","1","446","52","50"
"081218","09:17:39","98019259","test","2","prime_obama","53","3","56","0","370","50","50"
"081218","09:17:39","98019259","test","2","prime_trump","54","6","11","1","689","50","51"
"081218","09:17:39","98019259","test","2","prime_trump","55","3","45","1","563","50","53"
"081218","09:17:39","98019259","test","2","prime_obama","56","5","15","0","554","48","53"
"081218","09:17:39","98019259","test","2","prime_trump","57","1","52","0","545","48","51"
"081218","09:17:39","98019259","test","2","prime_obama","58","6","62","1","633","50","51"
"081218","09:17:39","98019259","test","2","prime_obama","59","2","57","1","549","51","51"
"081218","09:17:39","98019259","test","2","prime_trump","60","4","35","0","525","51","50"
"081218","09:17:39","98019259","test","2","prime_obama","61","1","43","1","477","53","50"
"081218","09:17:39","98019259","test","2","prime_trump","62","2","22","0","416","53","48"
"081218","09:17:39","98019259","test","2","prime_obama","63","4","68","1","413","54","48"
"081218","09:17:39","98019259","test","2","prime_trump","64","1","30","0","578","54","46"
"081218","09:17:39","98019259","test","2","prime_obama","65","5","32","0","593","53","46"
"081218","09:17:39","98019259","test","2","prime_trump","66","4","46","1","423","53","48"
"081218","09:17:39","98019259","test","2","prime_trump","67","6","9","1","403","53","50"
"081218","09:17:39","98019259","test","2","prime_obama","68","2","58","1","465","54","50"
"081218","09:17:39","98019259","test","2","prime_obama","69","6","7","1","492","55","50"
"081218","09:17:39","98019259","test","2","prime_trump","70","5","15","1","383","55","51"
"081218","09:17:39","98019259","test","2","prime_obama","71","3","68","1","348","57","51"
"081218","09:17:39","98019259","test","2","prime_obama","72","1","13","1","524","58","51"
"081218","09:17:39","98019259","test","2","prime_trump","73","3","22","0","381","58","50"
"081218","06:24:00","867199807","practice","1","prime_obama_practice","4","0","0","1","1433","0","0"
"081218","06:24:00","867199807","practice","1","prime_trump_practice","5","0","0","0","1076","0","0"
"081218","06:24:00","867199807","practice","1","prime_obama_practice","6","0","0","0","1494","0","0"
"081218","06:24:00","867199807","practice","1","prime_trump_practice","7","0","0","0","1288","0","0"
"081218","06:24:00","867199807","practice","1","prime_obama_practice","8","0","0","1","1593","0","0"
"081218","06:24:00","867199807","practice","1","prime_trump_practice","9","0","0","1","1390","0","0"
"081218","06:24:00","867199807","practice","1","prime_obama_practice","10","0","0","1","1596","0","0"
"081218","06:24:00","867199807","practice","1","prime_obama_practice","11","0","0","0","1497","0","0"
"081218","06:24:00","867199807","practice","1","prime_trump_practice","12","0","0","0","1259","0","0"
"081218","06:24:00","867199807","practice","1","prime_trump_practice","13","0","0","1","1070","0","0"
"081218","06:24:00","867199807","test","2","prime_obama","2","4","50","1","1237","100","0"
"081218","06:24:00","867199807","test","2","prime_trump","3","4","22","0","913","100","0"
"081218","06:24:00","867199807","test","2","prime_obama","4","4","17","0","921","50","0"
"081218","06:24:00","867199807","test","2","prime_trump","5","5","18","1","633","50","50"
"081218","06:24:00","867199807","test","2","prime_obama","6","5","4","1","581","66","50"
"081218","06:24:00","867199807","test","2","prime_obama","7","1","58","1","787","75","50"
"081218","06:24:00","867199807","test","2","prime_trump","8","4","26","1","792","75","66"
"081218","06:24:00","867199807","test","2","prime_trump","9","2","64","1","758","75","75"
"081218","06:24:00","867199807","test","2","prime_obama","10","3","11","0","972","60","75"
"081218","06:24:00","867199807","test","2","prime_trump","11","6","34","1","810","60","80"
"081218","06:24:00","867199807","test","2","prime_obama","12","2","60","0","999","50","80"
"081218","06:24:00","867199807","test","2","prime_trump","13","1","12","1","676","50","83"
"081218","06:24:00","867199807","test","2","prime_obama","14","6","1","1","838","57","83"
"081218","06:24:00","867199807","test","2","prime_trump","15","3","53","0","1785","57","71"
"081218","06:24:00","867199807","test","2","prime_obama","16","4","28","1","1423","62","71"
"081218","06:24:00","867199807","test","2","prime_trump","17","3","7","0","1331","62","62"
"081218","06:24:00","867199807","test","2","prime_obama","18","5","20","1","643","66","62"
"081218","06:24:00","867199807","test","2","prime_trump","19","6","69","1","582","66","66"
"081218","06:24:00","867199807","test","2","prime_obama","20","1","39","1","876","70","66"
"081218","06:24:00","867199807","test","2","prime_obama","21","3","71","0","574","63","66"
"081218","06:24:00","867199807","test","2","prime_obama","22","2","72","1","772","66","66"
"081218","06:24:00","867199807","test","2","prime_obama","23","6","29","1","555","69","66"
"081218","06:24:00","867199807","test","2","prime_obama","24","3","5","0","585","64","66"
"081218","06:24:00","867199807","test","2","prime_trump","25","5","36","1","615","64","70"
"081218","06:24:00","867199807","test","2","prime_obama","26","6","52","1","619","66","70"
"081218","06:24:00","867199807","test","2","prime_obama","27","1","25","0","927","62","70"
"081218","06:24:00","867199807","test","2","prime_trump","28","1","3","1","440","62","72"
"081218","06:24:00","867199807","test","2","prime_trump","29","2","6","0","851","62","66"
"081218","06:24:00","867199807","test","2","prime_trump","30","4","24","1","478","62","69"
"081218","06:24:00","867199807","test","2","prime_obama","31","2","15","1","512","64","69"
"081218","06:24:00","867199807","test","2","prime_obama","32","4","2","0","528","61","69"
"081218","06:24:00","867199807","test","2","prime_trump","33","6","68","1","680","61","71"
"081218","06:24:00","867199807","test","2","prime_trump","34","3","8","1","610","61","73"
"081218","06:24:00","867199807","test","2","prime_trump","35","2","40","1","671","61","75"
"081218","06:24:00","867199807","test","2","prime_trump","36","1","48","1","545","61","76"
"081218","06:24:00","867199807","test","2","prime_obama","37","5","51","1","737","63","76"
"081218","06:24:00","867199807","test","2","prime_trump","38","5","32","1","640","63","77"
"081218","06:24:00","867199807","test","2","prime_trump","39","4","46","0","1099","63","73"
"081218","06:24:00","867199807","test","2","prime_trump","40","4","43","1","668","63","75"
"081218","06:24:00","867199807","test","2","prime_obama","41","1","27","0","662","60","75"
"081218","06:24:00","867199807","test","2","prime_trump","42","1","70","0","777","60","71"
"081218","06:24:00","867199807","test","2","prime_trump","43","2","9","0","791","60","68"
"081218","06:24:00","867199807","test","2","prime_obama","44","3","37","1","660","61","68"
"081218","06:24:00","867199807","test","2","prime_trump","45","3","19","0","935","61","65"
"081218","06:24:00","867199807","test","2","prime_obama","46","5","54","1","439","63","65"
"081218","06:24:00","867199807","test","2","prime_obama","47","4","55","1","834","65","65"
"081218","06:24:00","867199807","test","2","prime_trump","48","5","30","1","589","65","66"
"081218","06:24:00","867199807","test","2","prime_obama","49","6","62","0","563","62","66"
"081218","06:24:00","867199807","test","2","prime_trump","50","6","47","0","633","62","64"
"081218","06:24:00","867199807","test","2","prime_trump","51","2","31","1","525","62","65"
"081218","06:24:00","867199807","test","2","prime_trump","52","6","63","1","509","62","66"
"081218","06:24:00","867199807","test","2","prime_obama","53","2","59","0","630","60","66"
"081218","06:24:00","867199807","test","2","prime_obama","54","6","21","1","434","61","66"
"081218","06:24:00","867199807","test","2","prime_trump","55","4","33","0","469","61","64"
"081218","06:24:00","867199807","test","2","prime_trump","56","1","44","0","711","61","62"
"081218","06:24:00","867199807","test","2","prime_trump","57","3","42","1","416","61","63"
"081218","06:24:00","867199807","test","2","prime_obama","58","4","49","1","548","62","63"
"081218","06:24:00","867199807","test","2","prime_trump","59","5","57","0","859","62","61"
"081218","06:24:00","867199807","test","2","prime_obama","60","2","41","0","766","60","61"
"081218","06:24:00","867199807","test","2","prime_trump","61","3","67","0","676","60","59"
"081218","06:24:00","867199807","test","2","prime_obama","62","5","38","1","838","62","59"
"081218","06:24:00","867199807","test","2","prime_obama","63","3","10","1","529","63","59"
"081218","06:24:00","867199807","test","2","prime_trump","64","2","62","0","554","63","57"
"081218","06:24:00","867199807","test","2","prime_obama","65","1","54","1","488","64","57"
"081218","06:24:00","867199807","test","2","prime_obama","66","6","63","0","1042","62","57"
"081218","06:24:00","867199807","test","2","prime_obama","67","4","23","1","725","63","57"
"081218","06:24:00","867199807","test","2","prime_obama","68","1","40","1","965","64","57"
"081218","06:24:00","867199807","test","2","prime_trump","69","5","20","1","468","64","58"
"081218","06:24:00","867199807","test","2","prime_obama","70","3","56","1","502","65","58"
"081218","06:24:00","867199807","test","2","prime_trump","71","1","36","1","743","65","60"
"081218","06:24:00","867199807","test","2","prime_trump","72","4","72","1","582","65","61"
"081218","06:24:00","867199807","test","2","prime_obama","73","2","12","1","628","66","61"
"081218","08:28:28","763518923","practice","1","prime_trump_practice","4","0","0","1","2575","0","0"
"081218","08:28:28","763518923","practice","1","prime_trump_practice","5","0","0","1","3598","0","0"
"081218","08:28:28","763518923","practice","1","prime_obama_practice","6","0","0","1","3220","0","0"
"081218","08:28:28","763518923","practice","1","prime_trump_practice","7","0","0","1","2888","0","0"
"081218","08:28:28","763518923","practice","1","prime_obama_practice","8","0","0","1","2458","0","0"
"081218","08:28:28","763518923","practice","1","prime_obama_practice","9","0","0","1","1837","0","0"
"081218","08:28:28","763518923","practice","1","prime_obama_practice","10","0","0","1","2378","0","0"
"081218","08:28:28","763518923","practice","1","prime_trump_practice","11","0","0","1","1624","0","0"
"081218","08:28:28","763518923","practice","1","prime_obama_practice","12","0","0","1","1485","0","0"
"081218","08:28:28","763518923","practice","1","prime_trump_practice","13","0","0","1","2023","0","0"
"081218","08:28:28","763518923","test","2","prime_trump","2","2","21","1","1169","0","100"
"081218","08:28:28","763518923","test","2","prime_obama","3","6","12","1","2016","100","100"
"081218","08:28:28","763518923","test","2","prime_obama","4","1","1","1","1317","100","100"
"081218","08:28:28","763518923","test","2","prime_trump","5","2","67","1","1446","100","100"
"081218","08:28:28","763518923","test","2","prime_obama","6","6","14","1","1385","100","100"
"081218","08:28:28","763518923","test","2","prime_trump","7","4","68","1","1583","100","100"
"081218","08:28:28","763518923","test","2","prime_trump","8","1","49","1","1214","100","100"
"081218","08:28:28","763518923","test","2","prime_trump","9","5","26","1","1651","100","100"
"081218","08:28:28","763518923","test","2","prime_obama","10","3","17","1","1854","100","100"
"081218","08:28:28","763518923","test","2","prime_trump","11","6","31","1","1394","100","100"
"081218","08:28:28","763518923","test","2","prime_obama","12","4","47","1","1416","100","100"
"081218","08:28:28","763518923","test","2","prime_obama","13","5","13","1","1669","100","100"
"081218","08:28:28","763518923","test","2","prime_obama","14","2","22","1","2000","100","100"
"081218","08:28:28","763518923","test","2","prime_obama","15","4","37","1","1421","100","100"
"081218","08:28:28","763518923","test","2","prime_obama","16","2","36","1","1218","100","100"
"081218","08:28:28","763518923","test","2","prime_obama","17","1","25","1","1334","100","100"
"081218","08:28:28","763518923","test","2","prime_obama","18","6","18","1","1462","100","100"
"081218","08:28:28","763518923","test","2","prime_trump","19","3","19","1","1290","100","100"
"081218","08:28:28","763518923","test","2","prime_trump","20","5","30","1","1387","100","100"
"081218","08:28:28","763518923","test","2","prime_trump","21","2","53","1","1913","100","100"
"081218","08:28:28","763518923","test","2","prime_obama","22","5","65","1","1179","100","100"
"081218","08:28:28","763518923","test","2","prime_trump","23","1","3","1","905","100","100"
"081218","08:28:28","763518923","test","2","prime_trump","24","4","59","1","987","100","100"
"081218","08:28:28","763518923","test","2","prime_trump","25","6","48","1","1217","100","100"
"081218","08:28:28","763518923","test","2","prime_trump","26","3","11","1","1006","100","100"
"081218","08:28:28","763518923","test","2","prime_obama","27","3","29","1","1451","100","100"
"081218","08:28:28","763518923","test","2","prime_obama","28","2","16","1","1670","100","100"
"081218","08:28:28","763518923","test","2","prime_trump","29","3","64","1","2609","100","100"
"081218","08:28:28","763518923","test","2","prime_obama","30","6","41","1","1286","100","100"
"081218","08:28:28","763518923","test","2","prime_obama","31","1","23","1","1440","100","100"
"081218","08:28:28","763518923","test","2","prime_trump","32","4","6","1","1412","100","100"
"081218","08:28:28","763518923","test","2","prime_obama","33","5","69","1","1193","100","100"
"081218","08:28:28","763518923","test","2","prime_trump","34","6","51","1","800","100","100"
"081218","08:28:28","763518923","test","2","prime_obama","35","3","57","1","1685","100","100"
"081218","08:28:28","763518923","test","2","prime_trump","36","5","43","1","1255","100","100"
"081218","08:28:28","763518923","test","2","prime_trump","37","1","9","1","1322","100","100"
"081218","08:28:28","763518923","test","2","prime_trump","38","2","20","1","1803","100","100"
"081218","08:28:28","763518923","test","2","prime_trump","39","1","10","1","1112","100","100"
"081218","08:28:28","763518923","test","2","prime_obama","40","4","56","1","1089","100","100"
"081218","08:28:28","763518923","test","2","prime_obama","41","4","2","1","1076","100","100"
"081218","08:28:28","763518923","test","2","prime_trump","42","4","70","1","1174","100","100"
"081218","08:28:28","763518923","test","2","prime_trump","43","5","44","1","1109","100","100"
"081218","08:28:28","763518923","test","2","prime_obama","44","1","34","1","1118","100","100"
"081218","08:28:28","763518923","test","2","prime_trump","45","3","7","1","1079","100","100"
"081218","08:28:28","763518923","test","2","prime_obama","46","5","46","1","1017","100","100"
"081218","08:28:28","763518923","test","2","prime_obama","47","3","52","1","1134","100","100"
"081218","08:28:28","763518923","test","2","prime_trump","48","2","24","1","974","100","100"
"081218","08:28:28","763518923","test","2","prime_trump","49","6","4","1","885","100","100"
"081218","08:28:28","763518923","test","2","prime_obama","50","2","58","1","2191","100","100"
"081218","08:28:28","763518923","test","2","prime_obama","51","6","55","1","957","100","100"
"081218","08:28:28","763518923","test","2","prime_trump","52","4","54","1","820","100","100"
"081218","08:28:28","763518923","test","2","prime_obama","53","6","39","1","865","100","100"
"081218","08:28:28","763518923","test","2","prime_obama","54","4","8","1","972","100","100"
"081218","08:28:28","763518923","test","2","prime_obama","55","3","33","1","867","100","100"
"081218","08:28:28","763518923","test","2","prime_trump","56","6","40","1","758","100","100"
"081218","08:28:28","763518923","test","2","prime_trump","57","1","32","1","1021","100","100"
"081218","08:28:28","763518923","test","2","prime_obama","58","1","60","1","762","100","100"
"081218","08:28:28","763518923","test","2","prime_trump","59","3","27","1","825","100","100"
"081218","08:28:28","763518923","test","2","prime_obama","60","5","45","1","653","100","100"
"081218","08:28:28","763518923","test","2","prime_trump","61","5","62","1","721","100","100"
"081218","08:28:28","763518923","test","2","prime_trump","62","2","66","1","818","100","100"
"081218","08:28:28","763518923","test","2","prime_obama","63","2","42","1","742","100","100"
"081218","08:28:28","763518923","test","2","prime_trump","64","4","27","1","710","100","100"
"081218","08:28:28","763518923","test","2","prime_obama","65","6","1","1","823","100","100"
"081218","08:28:28","763518923","test","2","prime_obama","66","2","23","1","764","100","100"
"081218","08:28:28","763518923","test","2","prime_obama","67","1","21","1","731","100","100"
"081218","08:28:28","763518923","test","2","prime_obama","68","4","10","1","684","100","100"
"081218","08:28:28","763518923","test","2","prime_trump","69","1","61","1","534","100","100"
"081218","08:28:28","763518923","test","2","prime_trump","70","6","8","1","734","100","100"
"081218","08:28:28","763518923","test","2","prime_trump","71","5","15","1","502","100","100"
"081218","08:28:28","763518923","test","2","prime_trump","72","3","45","1","1239","100","100"
"081218","08:28:28","763518923","test","2","prime_obama","73","3","24","1","716","100","100"
"081218","09:47:17","195823267","practice","1","prime_obama_practice","4","0","0","1","1702","0","0"
"081218","09:47:17","195823267","practice","1","prime_trump_practice","5","0","0","0","559","0","0"
"081218","09:47:17","195823267","practice","1","prime_trump_practice","6","0","0","0","692","0","0"
"081218","09:47:17","195823267","practice","1","prime_trump_practice","7","0","0","0","1013","0","0"
"081218","09:47:17","195823267","practice","1","prime_obama_practice","8","0","0","1","443","0","0"
"081218","09:47:17","195823267","practice","1","prime_obama_practice","9","0","0","1","330","0","0"
"081218","09:47:17","195823267","practice","1","prime_obama_practice","10","0","0","1","232","0","0"
"081218","09:47:17","195823267","practice","1","prime_obama_practice","11","0","0","0","664","0","0"
"081218","09:47:17","195823267","practice","1","prime_trump_practice","12","0","0","0","780","0","0"
"081218","09:47:17","195823267","practice","1","prime_trump_practice","13","0","0","0","313","0","0"
"081218","09:47:17","195823267","test","2","prime_obama","2","5","33","1","307","100","0"
"081218","09:47:17","195823267","test","2","prime_trump","3","5","43","0","573","100","0"
"081218","09:47:17","195823267","test","2","prime_obama","4","5","32","1","368","100","0"
"081218","09:47:17","195823267","test","2","prime_obama","5","2","24","1","360","100","0"
"081218","09:47:17","195823267","test","2","prime_obama","6","3","48","1","228","100","0"
"081218","09:47:17","195823267","test","2","prime_trump","7","5","69","0","629","100","0"
"081218","09:47:17","195823267","test","2","prime_obama","8","4","67","1","581","100","0"
"081218","09:47:17","195823267","test","2","prime_obama","9","1","2","1","369","100","0"
"081218","09:47:17","195823267","test","2","prime_trump","10","6","23","0","431","100","0"
"081218","09:47:17","195823267","test","2","prime_trump","11","1","45","0","404","100","0"
"081218","09:47:17","195823267","test","2","prime_trump","12","4","15","0","350","100","0"
"081218","09:47:17","195823267","test","2","prime_obama","13","6","71","0","938","85","0"
"081218","09:47:17","195823267","test","2","prime_trump","14","2","56","0","731","85","0"
"081218","09:47:17","195823267","test","2","prime_obama","15","5","10","0","460","75","0"
"081218","09:47:17","195823267","test","2","prime_trump","16","3","17","0","513","75","0"
"081218","09:47:17","195823267","test","2","prime_obama","17","3","31","1","208","77","0"
"081218","09:47:17","195823267","test","2","prime_obama","18","2","30","1","380","80","0"
"081218","09:47:17","195823267","test","2","prime_obama","19","6","18","1","923","81","0"
"081218","09:47:17","195823267","test","2","prime_obama","20","4","72","1","566","83","0"
"081218","09:47:17","195823267","test","2","prime_obama","21","1","60","1","513","84","0"
"081218","09:47:17","195823267","test","2","prime_obama","22","3","7","0","536","78","0"
"081218","09:47:17","195823267","test","2","prime_obama","23","6","39","1","313","80","0"
"081218","09:47:17","195823267","test","2","prime_obama","24","4","5","1","409","81","0"
"081218","09:47:17","195823267","test","2","prime_trump","25","2","68","0","532","81","0"
"081218","09:47:17","195823267","test","2","prime_obama","26","5","40","0","412","76","0"
"081218","09:47:17","195823267","test","2","prime_trump","27","3","57","1","641","76","11"
"081218","09:47:17","195823267","test","2","prime_trump","28","6","61","0","289","76","10"
"081218","09:47:17","195823267","test","2","prime_trump","29","1","21","0","148","76","9"
"081218","09:47:17","195823267","test","2","prime_trump","30","4","36","0","560","76","8"
"081218","09:47:17","195823267","test","2","prime_obama","31","2","26","0","301","72","8"
"081218","09:47:17","195823267","test","2","prime_trump","32","5","28","0","528","72","7"
"081218","09:47:17","195823267","test","2","prime_trump","33","5","27","0","504","72","7"
"081218","09:47:17","195823267","test","2","prime_trump","34","6","50","0","734","72","6"
"081218","09:47:17","195823267","test","2","prime_trump","35","2","11","0","1348","72","6"
"081218","09:47:17","195823267","test","2","prime_trump","36","3","38","0","1639","72","5"
"081218","09:47:17","195823267","test","2","prime_trump","37","4","3","0","1501","72","5"
"081218","09:47:17","195823267","test","2","prime_obama","38","1","59","0","441","68","5"
"081218","09:47:17","195823267","test","2","prime_trump","39","1","9","0","332","68","5"
"081218","09:47:17","195823267","test","2","prime_obama","40","5","62","1","179","70","5"
"081218","09:47:17","195823267","test","2","prime_obama","41","3","6","1","140","71","5"
"081218","09:47:17","195823267","test","2","prime_trump","42","2","14","0","383","71","5"
"081218","09:47:17","195823267","test","2","prime_obama","43","6","64","1","331","72","5"
"081218","09:47:17","195823267","test","2","prime_trump","44","5","34","0","199","72","4"
"081218","09:47:17","195823267","test","2","prime_trump","45","3","51","0","64","72","4"
"081218","09:47:17","195823267","test","2","prime_trump","46","4","22","0","201","72","4"
"081218","09:47:17","195823267","test","2","prime_obama","47","1","58","1","318","73","4"
"081218","09:47:17","195823267","test","2","prime_obama","48","4","13","1","402","75","4"
"081218","09:47:17","195823267","test","2","prime_trump","49","6","54","0","281","75","4"
"081218","09:47:17","195823267","test","2","prime_trump","50","1","47","0","667","75","4"
"081218","09:47:17","195823267","test","2","prime_obama","51","2","44","0","391","72","4"
"081218","09:47:17","195823267","test","2","prime_obama","52","4","25","1","353","73","4"
"081218","09:47:17","195823267","test","2","prime_trump","53","5","37","0","279","73","3"
"081218","09:47:17","195823267","test","2","prime_trump","54","1","35","0","169","73","3"
"081218","09:47:17","195823267","test","2","prime_trump","55","6","53","0","174","73","3"
"081218","09:47:17","195823267","test","2","prime_trump","56","2","41","0","79","73","3"
"081218","09:47:17","195823267","test","2","prime_obama","57","2","4","1","192","74","3"
"081218","09:47:17","195823267","test","2","prime_obama","58","1","52","1","120","75","3"
"081218","09:47:17","195823267","test","2","prime_obama","59","3","12","1","114","75","3"
"081218","09:47:17","195823267","test","2","prime_trump","60","3","46","0","181","75","3"
"081218","09:47:17","195823267","test","2","prime_obama","61","6","70","0","236","73","3"
"081218","09:47:17","195823267","test","2","prime_trump","62","4","8","1","171","73","6"
"081218","09:47:17","195823267","test","2","prime_obama","63","5","63","1","397","74","6"
"081218","09:47:17","195823267","test","2","prime_obama","64","5","42","1","238","75","6"
"081218","09:47:17","195823267","test","2","prime_obama","65","6","10","1","818","75","6"
"081218","09:47:17","195823267","test","2","prime_trump","66","2","35","0","267","75","6"
"081218","09:47:17","195823267","test","2","prime_trump","67","5","30","0","130","75","6"
"081218","09:47:17","195823267","test","2","prime_trump","68","6","65","0","536","75","5"
"081218","09:47:17","195823267","test","2","prime_obama","69","3","54","1","338","76","5"
"081218","09:47:17","195823267","test","2","prime_obama","70","4","49","0","455","74","5"
"081218","09:47:17","195823267","test","2","prime_obama","71","2","55","0","501","72","5"
"081218","09:47:17","195823267","test","2","prime_trump","72","3","31","0","1349","72","5"
"081218","09:47:17","195823267","test","2","prime_trump","73","4","40","0","590","72","5"
"081218","09:59:13","116228043","practice","1","prime_obama_practice","4","0","0","0","1418","0","0"
"081218","09:59:13","116228043","practice","1","prime_trump_practice","5","0","0","1","1293","0","0"
"081218","09:59:13","116228043","practice","1","prime_obama_practice","6","0","0","0","1853","0","0"
"081218","09:59:13","116228043","practice","1","prime_trump_practice","7","0","0","0","880","0","0"
"081218","09:59:13","116228043","practice","1","prime_obama_practice","8","0","0","0","1262","0","0"
"081218","09:59:13","116228043","practice","1","prime_trump_practice","9","0","0","1","2471","0","0"
"081218","09:59:13","116228043","practice","1","prime_obama_practice","10","0","0","1","946","0","0"
"081218","09:59:13","116228043","practice","1","prime_obama_practice","11","0","0","1","766","0","0"
"081218","09:59:13","116228043","practice","1","prime_trump_practice","12","0","0","1","633","0","0"
"081218","09:59:13","116228043","practice","1","prime_trump_practice","13","0","0","1","545","0","0"
