"date","time","group","subject","build","blocknum","trialnum","blockcode","trialcode","pretrialpause","posttrialpause","trialduration","trialtimeout","response","correct","latency"
"081519","12:59:09","266619702","728585322","5.0.14.0","1","1","end_of_study_questions_ifirst","awareness","0","0","0","0","","1","2497"
"081519","12:39:51","530017256","905579695","5.0.14.0","1","1","end_of_study_questions_ufirst","awareness","0","0","0","0","all","1","17146"
"081519","12:39:51","530017256","905579695","5.0.14.0","1","2","end_of_study_questions_ufirst","influence_general","0","0","0","0","about half","1","11048"
"081519","12:39:51","530017256","905579695","5.0.14.0","1","3","end_of_study_questions_ufirst","unintentionality","0","0","0","0","less than half","1","12681"
"081519","12:39:51","530017256","905579695","5.0.14.0","1","4","end_of_study_questions_ufirst","intentionality","0","0","0","0","a few","1","7740"
"081519","12:39:51","530017256","905579695","5.0.14.0","1","5","end_of_study_questions_ufirst","self_exclusion_1","0","0","0","0","Yes, use my data","1","11735"
"081519","12:39:51","530017256","905579695","5.0.14.0","1","5","end_of_study_questions_ufirst","self_exclusion_1other","0","0","0","0","","1","11735"
"081519","12:42:00","1927233","753217927","5.0.14.0","1","1","end_of_study_questions_ufirst","awareness","0","0","0","0","all","1","16344"
"081519","12:42:00","1927233","753217927","5.0.14.0","1","2","end_of_study_questions_ufirst","influence_general","0","0","0","0","none","1","6661"
"081519","12:42:00","1927233","753217927","5.0.14.0","1","3","end_of_study_questions_ufirst","unintentionality","0","0","0","0","a few","1","7881"
"081519","12:42:00","1927233","753217927","5.0.14.0","1","4","end_of_study_questions_ufirst","intentionality","0","0","0","0","none","1","10504"
"081519","12:42:00","1927233","753217927","5.0.14.0","1","5","end_of_study_questions_ufirst","self_exclusion_1","0","0","0","0","Yes, use my data","1","11446"
"081519","12:42:00","1927233","753217927","5.0.14.0","1","5","end_of_study_questions_ufirst","self_exclusion_1other","0","0","0","0","","1","11446"
"081519","12:55:42","435132183","265032689","5.0.14.0","1","1","end_of_study_questions_ufirst","awareness","0","0","0","0","all","1","19176"
"081519","12:55:42","435132183","265032689","5.0.14.0","1","2","end_of_study_questions_ufirst","influence_general","0","0","0","0","less than half","1","13349"
"081519","12:55:42","435132183","265032689","5.0.14.0","1","3","end_of_study_questions_ufirst","unintentionality","0","0","0","0","a few","1","13572"
"081519","12:55:42","435132183","265032689","5.0.14.0","1","4","end_of_study_questions_ufirst","intentionality","0","0","0","0","none","1","6340"
"081519","12:55:42","435132183","265032689","5.0.14.0","1","5","end_of_study_questions_ufirst","self_exclusion_1","0","0","0","0","Yes, use my data","1","10231"
"081519","12:55:42","435132183","265032689","5.0.14.0","1","5","end_of_study_questions_ufirst","self_exclusion_1other","0","0","0","0","","1","10231"
"081519","12:56:51","692305457","565504645","5.0.14.0","1","1","end_of_study_questions_ufirst","awareness","0","0","0","0","all","1","16669"
"081519","12:56:51","692305457","565504645","5.0.14.0","1","2","end_of_study_questions_ufirst","influence_general","0","0","0","0","a few","1","6631"
"081519","12:56:51","692305457","565504645","5.0.14.0","1","3","end_of_study_questions_ufirst","unintentionality","0","0","0","0","a few","1","5183"
"081519","12:56:51","692305457","565504645","5.0.14.0","1","4","end_of_study_questions_ufirst","intentionality","0","0","0","0","a few","1","3892"
"081519","12:56:51","692305457","565504645","5.0.14.0","1","5","end_of_study_questions_ufirst","self_exclusion_1","0","0","0","0","Yes, use my data","1","8780"
"081519","12:56:51","692305457","565504645","5.0.14.0","1","5","end_of_study_questions_ufirst","self_exclusion_1other","0","0","0","0","","1","8780"
"081519","13:00:48","231723999","288595434","5.0.14.0","1","1","end_of_study_questions_ifirst","awareness","0","0","0","0","all","1","18055"
"081519","13:00:48","231723999","288595434","5.0.14.0","1","2","end_of_study_questions_ifirst","influence_general","0","0","0","0","all","1","6658"
"081519","13:00:48","231723999","288595434","5.0.14.0","1","3","end_of_study_questions_ifirst","intentionality","0","0","0","0","more than half","1","10509"
"081519","13:00:48","231723999","288595434","5.0.14.0","1","4","end_of_study_questions_ifirst","unintentionality","0","0","0","0","about half","1","8779"
"081519","13:00:48","231723999","288595434","5.0.14.0","1","5","end_of_study_questions_ifirst","self_exclusion_1","0","0","0","0","Yes, use my data","1","30827"
"081519","13:00:48","231723999","288595434","5.0.14.0","1","5","end_of_study_questions_ifirst","self_exclusion_1other","0","0","0","0","","1","30827"
"081619","00:03:53","711470545","306937639","5.0.14.0","1","1","end_of_study_questions_ufirst","awareness","0","0","0","0","all","1","6597"
"081619","00:03:53","711470545","306937639","5.0.14.0","1","2","end_of_study_questions_ufirst","influence_general","0","0","0","0","about half","1","3707"
"081619","00:03:53","711470545","306937639","5.0.14.0","1","3","end_of_study_questions_ufirst","unintentionality","0","0","0","0","less than half","1","6419"
"081619","00:03:53","711470545","306937639","5.0.14.0","1","4","end_of_study_questions_ufirst","intentionality","0","0","0","0","less than half","1","4236"
"081619","00:03:53","711470545","306937639","5.0.14.0","1","5","end_of_study_questions_ufirst","self_exclusion_1","0","0","0","0","Yes, use my data","1","9041"
"081619","00:03:53","711470545","306937639","5.0.14.0","1","5","end_of_study_questions_ufirst","self_exclusion_1other","0","0","0","0","","1","9041"
"081519","13:07:49","670132345","151750430","5.0.14.0","1","1","end_of_study_questions_ifirst","awareness","0","0","0","0","all","1","25962"
"081519","13:07:49","670132345","151750430","5.0.14.0","1","2","end_of_study_questions_ifirst","influence_general","0","0","0","0","more than half","1","11271"
"081519","13:07:49","670132345","151750430","5.0.14.0","1","3","end_of_study_questions_ifirst","intentionality","0","0","0","0","less than half","1","6414"
"081519","13:07:49","670132345","151750430","5.0.14.0","1","4","end_of_study_questions_ifirst","unintentionality","0","0","0","0","most","1","9567"
"081519","13:07:49","670132345","151750430","5.0.14.0","1","5","end_of_study_questions_ifirst","self_exclusion_1","0","0","0","0","Yes, use my data","1","13812"
"081519","13:07:49","670132345","151750430","5.0.14.0","1","5","end_of_study_questions_ifirst","self_exclusion_1other","0","0","0","0","","1","13812"
"081519","13:09:09","141200955","70921114","5.0.14.0","1","1","end_of_study_questions_ifirst","awareness","0","0","0","0","all","1","19987"
"081519","13:09:09","141200955","70921114","5.0.14.0","1","2","end_of_study_questions_ifirst","influence_general","0","0","0","0","none","1","5774"
"081519","13:09:09","141200955","70921114","5.0.14.0","1","3","end_of_study_questions_ifirst","intentionality","0","0","0","0","none","1","8722"
"081519","13:09:09","141200955","70921114","5.0.14.0","1","4","end_of_study_questions_ifirst","unintentionality","0","0","0","0","a few","1","11980"
"081519","13:09:09","141200955","70921114","5.0.14.0","1","5","end_of_study_questions_ifirst","self_exclusion_1","0","0","0","0","Yes, use my data","1","15809"
"081519","13:09:09","141200955","70921114","5.0.14.0","1","5","end_of_study_questions_ifirst","self_exclusion_1other","0","0","0","0","","1","15809"
"081519","13:11:26","968156143","913814467","5.0.14.0","1","1","end_of_study_questions_ufirst","awareness","0","0","0","0","all","1","13718"
"081519","13:11:26","968156143","913814467","5.0.14.0","1","2","end_of_study_questions_ufirst","influence_general","0","0","0","0","a few","1","5437"
"081519","13:11:26","968156143","913814467","5.0.14.0","1","3","end_of_study_questions_ufirst","unintentionality","0","0","0","0","a few","1","6343"
"081519","13:11:26","968156143","913814467","5.0.14.0","1","4","end_of_study_questions_ufirst","intentionality","0","0","0","0","none","1","4524"
"081519","13:11:26","968156143","913814467","5.0.14.0","1","5","end_of_study_questions_ufirst","self_exclusion_1","0","0","0","0","Yes, use my data","1","10516"
"081519","13:11:26","968156143","913814467","5.0.14.0","1","5","end_of_study_questions_ufirst","self_exclusion_1other","0","0","0","0","","1","10516"
"081519","20:12:12","977687690","524104369","5.0.14.0","1","1","end_of_study_questions_ufirst","awareness","0","0","0","0","all","1","11487"
"081519","20:12:12","977687690","524104369","5.0.14.0","1","2","end_of_study_questions_ufirst","influence_general","0","0","0","0","most","1","4840"
"081519","20:12:12","977687690","524104369","5.0.14.0","1","3","end_of_study_questions_ufirst","unintentionality","0","0","0","0","most","1","21676"
"081519","20:12:12","977687690","524104369","5.0.14.0","1","4","end_of_study_questions_ufirst","intentionality","0","0","0","0","a few","1","6685"
"081519","20:12:12","977687690","524104369","5.0.14.0","1","5","end_of_study_questions_ufirst","self_exclusion_1","0","0","0","0","Yes, use my data","1","4084"
"081519","20:12:12","977687690","524104369","5.0.14.0","1","5","end_of_study_questions_ufirst","self_exclusion_1other","0","0","0","0","","1","4084"
"081519","13:13:30","54472606","622389180","5.0.14.0","1","1","end_of_study_questions_ifirst","awareness","0","0","0","0","all","1","23136"
"081519","13:13:30","54472606","622389180","5.0.14.0","1","2","end_of_study_questions_ifirst","influence_general","0","0","0","0","none","1","5466"
"081519","13:13:30","54472606","622389180","5.0.14.0","1","3","end_of_study_questions_ifirst","intentionality","0","0","0","0","none","1","3634"
"081519","13:13:30","54472606","622389180","5.0.14.0","1","4","end_of_study_questions_ifirst","unintentionality","0","0","0","0","none","1","3441"
"081519","13:13:30","54472606","622389180","5.0.14.0","1","5","end_of_study_questions_ifirst","self_exclusion_1","0","0","0","0","Yes, use my data","1","8959"
"081519","13:13:30","54472606","622389180","5.0.14.0","1","5","end_of_study_questions_ifirst","self_exclusion_1other","0","0","0","0","","1","8959"
"081519","13:16:31","945217380","217378735","5.0.14.0","1","1","end_of_study_questions_ufirst","awareness","0","0","0","0","a few","1","7032"
"081519","13:16:31","945217380","217378735","5.0.14.0","1","2","end_of_study_questions_ufirst","influence_general","0","0","0","0","a few","1","4179"
"081519","13:16:31","945217380","217378735","5.0.14.0","1","3","end_of_study_questions_ufirst","unintentionality","0","0","0","0","a few","1","3477"
"081519","13:16:31","945217380","217378735","5.0.14.0","1","4","end_of_study_questions_ufirst","intentionality","0","0","0","0","less than half","1","4446"
"081519","13:16:31","945217380","217378735","5.0.14.0","1","5","end_of_study_questions_ufirst","self_exclusion_1","0","0","0","0","Yes, use my data","1","5615"
"081519","13:16:31","945217380","217378735","5.0.14.0","1","5","end_of_study_questions_ufirst","self_exclusion_1other","0","0","0","0","","1","5615"
"081519","08:17:42","342061117","617409170","5.0.14.0","1","1","end_of_study_questions_ifirst","awareness","0","0","0","0","all","1","29014"
"081519","08:17:42","342061117","617409170","5.0.14.0","1","2","end_of_study_questions_ifirst","influence_general","0","0","0","0","less than half","1","11038"
"081519","08:17:42","342061117","617409170","5.0.14.0","1","3","end_of_study_questions_ifirst","intentionality","0","0","0","0","none","1","13982"
"081519","08:17:42","342061117","617409170","5.0.14.0","1","4","end_of_study_questions_ifirst","unintentionality","0","0","0","0","less than half","1","15001"
"081519","08:17:42","342061117","617409170","5.0.14.0","1","5","end_of_study_questions_ifirst","self_exclusion_1","0","0","0","0","Yes, use my data","1","13630"
"081519","08:17:42","342061117","617409170","5.0.14.0","1","5","end_of_study_questions_ifirst","self_exclusion_1other","0","0","0","0","","1","13630"
"081519","13:19:00","115068759","932787356","5.0.14.0","1","1","end_of_study_questions_ifirst","awareness","0","0","0","0","all","1","19376"
"081519","13:19:00","115068759","932787356","5.0.14.0","1","2","end_of_study_questions_ifirst","influence_general","0","0","0","0","about half","1","19764"
"081519","13:19:00","115068759","932787356","5.0.14.0","1","3","end_of_study_questions_ifirst","intentionality","0","0","0","0","less than half","1","9607"
"081519","13:19:00","115068759","932787356","5.0.14.0","1","4","end_of_study_questions_ifirst","unintentionality","0","0","0","0","more than half","1","6443"
"081519","13:19:00","115068759","932787356","5.0.14.0","1","5","end_of_study_questions_ifirst","self_exclusion_1","0","0","0","0","Yes, use my data","1","17634"
"081519","13:19:00","115068759","932787356","5.0.14.0","1","5","end_of_study_questions_ifirst","self_exclusion_1other","0","0","0","0","","1","17634"
"081519","13:24:42","731604929","334542577","5.0.14.0","1","1","end_of_study_questions_ufirst","awareness","0","0","0","0","most","1","9016"
"081519","13:24:42","731604929","334542577","5.0.14.0","1","2","end_of_study_questions_ufirst","influence_general","0","0","0","0","less than half","1","5429"
"081519","13:24:42","731604929","334542577","5.0.14.0","1","3","end_of_study_questions_ufirst","unintentionality","0","0","0","0","about half","1","7444"
"081519","13:24:42","731604929","334542577","5.0.14.0","1","4","end_of_study_questions_ufirst","intentionality","0","0","0","0","about half","1","5088"
"081519","13:24:42","731604929","334542577","5.0.14.0","1","5","end_of_study_questions_ufirst","self_exclusion_1","0","0","0","0","Yes, use my data","1","14534"
"081519","13:24:42","731604929","334542577","5.0.14.0","1","5","end_of_study_questions_ufirst","self_exclusion_1other","0","0","0","0","","1","14534"
"081519","13:24:40","623076326","35402626","5.0.14.0","1","1","end_of_study_questions_ifirst","awareness","0","0","0","0","most","1","21495"
"081519","13:24:40","623076326","35402626","5.0.14.0","1","2","end_of_study_questions_ifirst","influence_general","0","0","0","0","about half","1","6333"
"081519","13:24:40","623076326","35402626","5.0.14.0","1","3","end_of_study_questions_ifirst","intentionality","0","0","0","0","a few","1","6569"
"081519","13:24:40","623076326","35402626","5.0.14.0","1","4","end_of_study_questions_ifirst","unintentionality","0","0","0","0","about half","1","5502"
"081519","13:24:40","623076326","35402626","5.0.14.0","1","5","end_of_study_questions_ifirst","self_exclusion_1","0","0","0","0","Yes, use my data","1","6557"
"081519","13:24:40","623076326","35402626","5.0.14.0","1","5","end_of_study_questions_ifirst","self_exclusion_1other","0","0","0","0","","1","6557"
"081519","13:25:35","989563501","240224944","5.0.14.0","1","1","end_of_study_questions_ifirst","awareness","0","0","0","0","most","1","6373"
"081519","13:25:35","989563501","240224944","5.0.14.0","1","2","end_of_study_questions_ifirst","influence_general","0","0","0","0","less than half","1","5305"
"081519","13:25:35","989563501","240224944","5.0.14.0","1","3","end_of_study_questions_ifirst","intentionality","0","0","0","0","none","1","4426"
"081519","13:25:35","989563501","240224944","5.0.14.0","1","4","end_of_study_questions_ifirst","unintentionality","0","0","0","0","a few","1","3431"
"081519","13:25:35","989563501","240224944","5.0.14.0","1","5","end_of_study_questions_ifirst","self_exclusion_1","0","0","0","0","Yes, use my data","1","4970"
"081519","13:25:35","989563501","240224944","5.0.14.0","1","5","end_of_study_questions_ifirst","self_exclusion_1other","0","0","0","0","","1","4970"
"081519","13:25:35","357858192","551689228","5.0.14.0","1","1","end_of_study_questions_ifirst","awareness","0","0","0","0","all","1","32659"
"081519","13:25:35","357858192","551689228","5.0.14.0","1","2","end_of_study_questions_ifirst","influence_general","0","0","0","0","less than half","1","11775"
"081519","13:25:35","357858192","551689228","5.0.14.0","1","3","end_of_study_questions_ifirst","intentionality","0","0","0","0","less than half","1","9070"
"081519","13:25:35","357858192","551689228","5.0.14.0","1","4","end_of_study_questions_ifirst","unintentionality","0","0","0","0","a few","1","12269"
"081519","13:25:35","357858192","551689228","5.0.14.0","1","5","end_of_study_questions_ifirst","self_exclusion_1","0","0","0","0","Yes, use my data","1","9754"
"081519","13:25:35","357858192","551689228","5.0.14.0","1","5","end_of_study_questions_ifirst","self_exclusion_1other","0","0","0","0","","1","9754"
"081519","13:26:38","242381356","420200615","5.0.14.0","1","1","end_of_study_questions_ufirst","awareness","0","0","0","0","all","1","18276"
"081519","13:26:38","242381356","420200615","5.0.14.0","1","2","end_of_study_questions_ufirst","influence_general","0","0","0","0","a few","1","11938"
"081519","13:26:38","242381356","420200615","5.0.14.0","1","3","end_of_study_questions_ufirst","unintentionality","0","0","0","0","a few","1","8855"
"081519","13:26:38","242381356","420200615","5.0.14.0","1","4","end_of_study_questions_ufirst","intentionality","0","0","0","0","none","1","9492"
"081519","13:26:38","242381356","420200615","5.0.14.0","1","5","end_of_study_questions_ufirst","self_exclusion_1","0","0","0","0","Yes, use my data","1","20228"
"081519","13:26:38","242381356","420200615","5.0.14.0","1","5","end_of_study_questions_ufirst","self_exclusion_1other","0","0","0","0","","1","20228"
"081519","13:28:05","601499655","522619371","5.0.14.0","1","1","end_of_study_questions_ufirst","awareness","0","0","0","0","all","1","17610"
"081519","13:28:05","601499655","522619371","5.0.14.0","1","2","end_of_study_questions_ufirst","influence_general","0","0","0","0","about half","1","5870"
"081519","13:28:05","601499655","522619371","5.0.14.0","1","3","end_of_study_questions_ufirst","unintentionality","0","0","0","0","more than half","1","6363"
"081519","13:28:05","601499655","522619371","5.0.14.0","1","4","end_of_study_questions_ufirst","intentionality","0","0","0","0","more than half","1","5090"
"081519","13:28:05","601499655","522619371","5.0.14.0","1","5","end_of_study_questions_ufirst","self_exclusion_1","0","0","0","0","Yes, use my data","1","13560"
"081519","13:28:05","601499655","522619371","5.0.14.0","1","5","end_of_study_questions_ufirst","self_exclusion_1other","0","0","0","0","","1","13560"
"081519","22:28:40","977396169","228057614","5.0.14.0","1","1","end_of_study_questions_ifirst","awareness","0","0","0","0","most","1","9223"
"081519","22:28:40","977396169","228057614","5.0.14.0","1","2","end_of_study_questions_ifirst","influence_general","0","0","0","0","all","1","8246"
"081519","22:28:40","977396169","228057614","5.0.14.0","1","3","end_of_study_questions_ifirst","intentionality","0","0","0","0","more than half","1","5032"
"081519","22:28:40","977396169","228057614","5.0.14.0","1","4","end_of_study_questions_ifirst","unintentionality","0","0","0","0","all","1","5971"
"081519","22:28:40","977396169","228057614","5.0.14.0","1","5","end_of_study_questions_ifirst","self_exclusion_1","0","0","0","0","Yes, use my data","1","4152"
"081519","22:28:40","977396169","228057614","5.0.14.0","1","5","end_of_study_questions_ifirst","self_exclusion_1other","0","0","0","0","","1","4152"
"081519","22:28:41","792010419","828608450","5.0.14.0","1","1","end_of_study_questions_ifirst","awareness","0","0","0","0","all","1","11817"
"081519","22:28:41","792010419","828608450","5.0.14.0","1","2","end_of_study_questions_ifirst","influence_general","0","0","0","0","a few","1","9865"
"081519","22:28:41","792010419","828608450","5.0.14.0","1","3","end_of_study_questions_ifirst","intentionality","0","0","0","0","most","1","7029"
"081519","22:28:41","792010419","828608450","5.0.14.0","1","4","end_of_study_questions_ifirst","unintentionality","0","0","0","0","most","1","4907"
"081519","22:28:41","792010419","828608450","5.0.14.0","1","5","end_of_study_questions_ifirst","self_exclusion_1","0","0","0","0","Yes, use my data","1","13337"
"081519","22:28:41","792010419","828608450","5.0.14.0","1","5","end_of_study_questions_ifirst","self_exclusion_1other","0","0","0","0","","1","13337"
"081519","13:28:43","176457227","81490762","5.0.14.0","1","1","end_of_study_questions_ifirst","awareness","0","0","0","0","all","1","15502"
"081519","13:28:43","176457227","81490762","5.0.14.0","1","2","end_of_study_questions_ifirst","influence_general","0","0","0","0","most","1","6294"
"081519","13:28:43","176457227","81490762","5.0.14.0","1","3","end_of_study_questions_ifirst","intentionality","0","0","0","0","more than half","1","4579"
"081519","13:28:43","176457227","81490762","5.0.14.0","1","4","end_of_study_questions_ifirst","unintentionality","0","0","0","0","about half","1","5995"
"081519","13:28:43","176457227","81490762","5.0.14.0","1","5","end_of_study_questions_ifirst","self_exclusion_1","0","0","0","0","Yes, use my data","1","12946"
"081519","13:28:43","176457227","81490762","5.0.14.0","1","5","end_of_study_questions_ifirst","self_exclusion_1other","0","0","0","0","","1","12946"
"081519","13:30:25","761519615","377356727","5.0.14.0","1","1","end_of_study_questions_ufirst","awareness","0","0","0","0","all","1","13700"
"081519","13:30:25","761519615","377356727","5.0.14.0","1","2","end_of_study_questions_ufirst","influence_general","0","0","0","0","a few","1","8064"
"081519","13:30:25","761519615","377356727","5.0.14.0","1","3","end_of_study_questions_ufirst","unintentionality","0","0","0","0","a few","1","8285"
"081519","13:30:25","761519615","377356727","5.0.14.0","1","4","end_of_study_questions_ufirst","intentionality","0","0","0","0","none","1","6326"
"081519","13:30:25","761519615","377356727","5.0.14.0","1","5","end_of_study_questions_ufirst","self_exclusion_1","0","0","0","0","Yes, use my data","1","19773"
"081519","13:30:25","761519615","377356727","5.0.14.0","1","5","end_of_study_questions_ufirst","self_exclusion_1other","0","0","0","0","","1","19773"
"081519","13:33:11","80128193","281254961","5.0.14.0","1","1","end_of_study_questions_ufirst","awareness","0","0","0","0","most","1","18897"
"081519","13:33:11","80128193","281254961","5.0.14.0","1","2","end_of_study_questions_ufirst","influence_general","0","0","0","0","a few","1","9602"
"081519","13:33:11","80128193","281254961","5.0.14.0","1","3","end_of_study_questions_ufirst","unintentionality","0","0","0","0","a few","1","6890"
"081519","13:33:11","80128193","281254961","5.0.14.0","1","4","end_of_study_questions_ufirst","intentionality","0","0","0","0","a few","1","8709"
"081519","13:33:11","80128193","281254961","5.0.14.0","1","5","end_of_study_questions_ufirst","self_exclusion_1","0","0","0","0","Yes, use my data","1","5025"
"081519","13:33:11","80128193","281254961","5.0.14.0","1","5","end_of_study_questions_ufirst","self_exclusion_1other","0","0","0","0","","1","5025"
"081519","13:33:20","719613865","439877301","5.0.14.0","1","1","end_of_study_questions_ufirst","awareness","0","0","0","0","most","1","17036"
"081519","13:33:20","719613865","439877301","5.0.14.0","1","2","end_of_study_questions_ufirst","influence_general","0","0","0","0","most","1","6539"
"081519","13:33:20","719613865","439877301","5.0.14.0","1","3","end_of_study_questions_ufirst","unintentionality","0","0","0","0","more than half","1","11695"
"081519","13:33:20","719613865","439877301","5.0.14.0","1","4","end_of_study_questions_ufirst","intentionality","0","0","0","0","a few","1","10602"
"081519","13:33:20","719613865","439877301","5.0.14.0","1","5","end_of_study_questions_ufirst","self_exclusion_1","0","0","0","0","Yes, use my data","1","4728"
"081519","13:33:20","719613865","439877301","5.0.14.0","1","5","end_of_study_questions_ufirst","self_exclusion_1other","0","0","0","0","","1","4728"
"081519","13:32:39","728334095","448597531","5.0.14.0","1","1","end_of_study_questions_ufirst","awareness","0","0","0","0","all","1","42551"
"081519","13:32:39","728334095","448597531","5.0.14.0","1","2","end_of_study_questions_ufirst","influence_general","0","0","0","0","less than half","1","6950"
"081519","13:32:39","728334095","448597531","5.0.14.0","1","3","end_of_study_questions_ufirst","unintentionality","0","0","0","0","a few","1","64878"
"081519","13:32:39","728334095","448597531","5.0.14.0","1","4","end_of_study_questions_ufirst","intentionality","0","0","0","0","a few","1","5830"
"081519","13:32:39","728334095","448597531","5.0.14.0","1","5","end_of_study_questions_ufirst","self_exclusion_1","0","0","0","0","Yes, use my data","1","4424"
"081519","13:32:39","728334095","448597531","5.0.14.0","1","5","end_of_study_questions_ufirst","self_exclusion_1other","0","0","0","0","","1","4424"
"081519","13:33:40","907986139","966084086","5.0.14.0","1","1","end_of_study_questions_ifirst","awareness","0","0","0","0","all","1","22602"
"081519","13:33:40","907986139","966084086","5.0.14.0","1","2","end_of_study_questions_ifirst","influence_general","0","0","0","0","none","1","6769"
"081519","13:33:40","907986139","966084086","5.0.14.0","1","3","end_of_study_questions_ifirst","intentionality","0","0","0","0","none","1","9111"
"081519","13:33:40","907986139","966084086","5.0.14.0","1","4","end_of_study_questions_ifirst","unintentionality","0","0","0","0","none","1","5879"
"081519","13:33:40","907986139","966084086","5.0.14.0","1","5","end_of_study_questions_ifirst","self_exclusion_1","0","0","0","0","Yes, use my data","1","19355"
"081519","13:33:40","907986139","966084086","5.0.14.0","1","5","end_of_study_questions_ifirst","self_exclusion_1other","0","0","0","0","","1","19355"
"081519","13:39:01","998726781","440128219","5.0.14.0","1","1","end_of_study_questions_ufirst","awareness","0","0","0","0","all","1","13288"
"081519","13:39:01","998726781","440128219","5.0.14.0","1","2","end_of_study_questions_ufirst","influence_general","0","0","0","0","about half","1","12810"
"081519","13:39:01","998726781","440128219","5.0.14.0","1","3","end_of_study_questions_ufirst","unintentionality","0","0","0","0","more than half","1","8077"
"081519","13:39:01","998726781","440128219","5.0.14.0","1","4","end_of_study_questions_ufirst","intentionality","0","0","0","0","none","1","7365"
"081519","13:39:01","998726781","440128219","5.0.14.0","1","5","end_of_study_questions_ufirst","self_exclusion_1","0","0","0","0","Yes, use my data","1","15279"
"081519","13:39:01","998726781","440128219","5.0.14.0","1","5","end_of_study_questions_ufirst","self_exclusion_1other","0","0","0","0","","1","15279"
"081519","13:39:55","661053526","208510603","5.0.14.0","1","1","end_of_study_questions_ufirst","awareness","0","0","0","0","all","1","10435"
"081519","13:39:55","661053526","208510603","5.0.14.0","1","2","end_of_study_questions_ufirst","influence_general","0","0","0","0","about half","1","5289"
"081519","13:39:55","661053526","208510603","5.0.14.0","1","3","end_of_study_questions_ufirst","unintentionality","0","0","0","0","more than half","1","7055"
"081519","13:39:55","661053526","208510603","5.0.14.0","1","4","end_of_study_questions_ufirst","intentionality","0","0","0","0","a few","1","5656"
"081519","13:39:55","661053526","208510603","5.0.14.0","1","5","end_of_study_questions_ufirst","self_exclusion_1","0","0","0","0","Yes, use my data","1","14299"
"081519","13:39:55","661053526","208510603","5.0.14.0","1","5","end_of_study_questions_ufirst","self_exclusion_1other","0","0","0","0","","1","14299"
"081519","13:40:29","270725511","483929503","5.0.14.0","1","1","end_of_study_questions_ufirst","awareness","0","0","0","0","all","1","8074"
"081519","13:40:29","270725511","483929503","5.0.14.0","1","2","end_of_study_questions_ufirst","influence_general","0","0","0","0","all","1","3732"
"081519","13:40:29","270725511","483929503","5.0.14.0","1","3","end_of_study_questions_ufirst","unintentionality","0","0","0","0","more than half","1","6545"
"081519","13:40:29","270725511","483929503","5.0.14.0","1","4","end_of_study_questions_ufirst","intentionality","0","0","0","0","all","1","6716"
"081519","13:40:29","270725511","483929503","5.0.14.0","1","5","end_of_study_questions_ufirst","self_exclusion_1","0","0","0","0","Yes, use my data","1","4087"
"081519","13:40:29","270725511","483929503","5.0.14.0","1","5","end_of_study_questions_ufirst","self_exclusion_1other","0","0","0","0","","1","4087"
"081519","07:40:28","803826869","629120711","5.0.14.0","1","1","end_of_study_questions_ufirst","awareness","0","0","0","0","all","1","22673"
"081519","07:40:28","803826869","629120711","5.0.14.0","1","2","end_of_study_questions_ufirst","influence_general","0","0","0","0","about half","1","5155"
"081519","07:40:28","803826869","629120711","5.0.14.0","1","3","end_of_study_questions_ufirst","unintentionality","0","0","0","0","about half","1","5712"
"081519","07:40:28","803826869","629120711","5.0.14.0","1","4","end_of_study_questions_ufirst","intentionality","0","0","0","0","a few","1","6853"
"081519","07:40:28","803826869","629120711","5.0.14.0","1","5","end_of_study_questions_ufirst","self_exclusion_1","0","0","0","0","Yes, use my data","1","8179"
"081519","07:40:28","803826869","629120711","5.0.14.0","1","5","end_of_study_questions_ufirst","self_exclusion_1other","0","0","0","0","","1","8179"
"081519","13:39:10","463205675","349627158","5.0.14.0","1","1","end_of_study_questions_ifirst","awareness","0","0","0","0","all","1","18037"
"081519","13:39:10","463205675","349627158","5.0.14.0","1","2","end_of_study_questions_ifirst","influence_general","0","0","0","0","about half","1","6601"
"081519","13:39:10","463205675","349627158","5.0.14.0","1","3","end_of_study_questions_ifirst","intentionality","0","0","0","0","less than half","1","7527"
"081519","13:39:10","463205675","349627158","5.0.14.0","1","4","end_of_study_questions_ifirst","unintentionality","0","0","0","0","more than half","1","6688"
"081519","13:39:10","463205675","349627158","5.0.14.0","1","5","end_of_study_questions_ifirst","self_exclusion_1","0","0","0","0","No, exclude my data (please specify why):","1","89365"
"081519","13:39:10","463205675","349627158","5.0.14.0","1","5","end_of_study_questions_ifirst","self_exclusion_1other","0","0","0","0","I barely had time to register the chinese characters, let alone judge them before they were gone","1","89365"
"081519","13:40:47","530229216","560059094","5.0.14.0","1","1","end_of_study_questions_ifirst","awareness","0","0","0","0","all","1","14294"
"081519","13:40:47","530229216","560059094","5.0.14.0","1","2","end_of_study_questions_ifirst","influence_general","0","0","0","0","a few","1","5982"
"081519","13:40:47","530229216","560059094","5.0.14.0","1","3","end_of_study_questions_ifirst","intentionality","0","0","0","0","a few","1","10281"
"081519","13:40:47","530229216","560059094","5.0.14.0","1","4","end_of_study_questions_ifirst","unintentionality","0","0","0","0","none","1","9181"
"081519","13:40:47","530229216","560059094","5.0.14.0","1","5","end_of_study_questions_ifirst","self_exclusion_1","0","0","0","0","Yes, use my data","1","5237"
"081519","13:40:47","530229216","560059094","5.0.14.0","1","5","end_of_study_questions_ifirst","self_exclusion_1other","0","0","0","0","","1","5237"
"081519","13:40:50","678028729","495747347","5.0.14.0","1","1","end_of_study_questions_ufirst","awareness","0","0","0","0","all","1","12848"
"081519","13:40:50","678028729","495747347","5.0.14.0","1","2","end_of_study_questions_ufirst","influence_general","0","0","0","0","less than half","1","6453"
"081519","13:40:50","678028729","495747347","5.0.14.0","1","3","end_of_study_questions_ufirst","unintentionality","0","0","0","0","less than half","1","7338"
"081519","13:40:50","678028729","495747347","5.0.14.0","1","4","end_of_study_questions_ufirst","intentionality","0","0","0","0","a few","1","4750"
"081519","13:40:50","678028729","495747347","5.0.14.0","1","5","end_of_study_questions_ufirst","self_exclusion_1","0","0","0","0","Yes, use my data","1","12629"
"081519","13:40:50","678028729","495747347","5.0.14.0","1","5","end_of_study_questions_ufirst","self_exclusion_1other","0","0","0","0","","1","12629"
"081519","08:42:37","453607225","413792409","5.0.14.0","1","1","end_of_study_questions_ufirst","awareness","0","0","0","0","most","1","15885"
"081519","08:42:37","453607225","413792409","5.0.14.0","1","2","end_of_study_questions_ufirst","influence_general","0","0","0","0","a few","1","4908"
"081519","08:42:37","453607225","413792409","5.0.14.0","1","3","end_of_study_questions_ufirst","unintentionality","0","0","0","0","less than half","1","5188"
"081519","08:42:37","453607225","413792409","5.0.14.0","1","4","end_of_study_questions_ufirst","intentionality","0","0","0","0","none","1","6728"
"081519","08:42:37","453607225","413792409","5.0.14.0","1","5","end_of_study_questions_ufirst","self_exclusion_1","0","0","0","0","Yes, use my data","1","3816"
"081519","08:42:37","453607225","413792409","5.0.14.0","1","5","end_of_study_questions_ufirst","self_exclusion_1other","0","0","0","0","","1","3816"
"081519","13:44:27","167030867","766781791","5.0.14.0","1","1","end_of_study_questions_ufirst","awareness","0","0","0","0","all","1","13165"
"081519","13:44:27","167030867","766781791","5.0.14.0","1","2","end_of_study_questions_ufirst","influence_general","0","0","0","0","less than half","1","6686"
"081519","13:44:27","167030867","766781791","5.0.14.0","1","3","end_of_study_questions_ufirst","unintentionality","0","0","0","0","less than half","1","8307"
"081519","13:44:27","167030867","766781791","5.0.14.0","1","4","end_of_study_questions_ufirst","intentionality","0","0","0","0","a few","1","5012"
"081519","13:44:27","167030867","766781791","5.0.14.0","1","5","end_of_study_questions_ufirst","self_exclusion_1","0","0","0","0","Yes, use my data","1","5761"
"081519","13:44:27","167030867","766781791","5.0.14.0","1","5","end_of_study_questions_ufirst","self_exclusion_1other","0","0","0","0","","1","5761"
"081519","13:44:22","644794453","164805700","5.0.14.0","1","1","end_of_study_questions_ifirst","awareness","0","0","0","0","all","1","15003"
"081519","13:44:22","644794453","164805700","5.0.14.0","1","2","end_of_study_questions_ifirst","influence_general","0","0","0","0","most","1","7503"
"081519","13:44:22","644794453","164805700","5.0.14.0","1","3","end_of_study_questions_ifirst","intentionality","0","0","0","0","more than half","1","17196"
"081519","13:44:22","644794453","164805700","5.0.14.0","1","4","end_of_study_questions_ifirst","unintentionality","0","0","0","0","less than half","1","12899"
"081519","13:44:22","644794453","164805700","5.0.14.0","1","5","end_of_study_questions_ifirst","self_exclusion_1","0","0","0","0","Yes, use my data","1","9382"
"081519","13:44:22","644794453","164805700","5.0.14.0","1","5","end_of_study_questions_ifirst","self_exclusion_1other","0","0","0","0","","1","9382"
"081519","13:43:58","29404700","74603181","5.0.14.0","1","1","end_of_study_questions_ufirst","awareness","0","0","0","0","all","1","24560"
"081519","13:43:58","29404700","74603181","5.0.14.0","1","2","end_of_study_questions_ufirst","influence_general","0","0","0","0","less than half","1","9407"
"081519","13:43:58","29404700","74603181","5.0.14.0","1","3","end_of_study_questions_ufirst","unintentionality","0","0","0","0","less than half","1","7918"
"081519","13:43:58","29404700","74603181","5.0.14.0","1","4","end_of_study_questions_ufirst","intentionality","0","0","0","0","a few","1","6908"
"081519","13:43:58","29404700","74603181","5.0.14.0","1","5","end_of_study_questions_ufirst","self_exclusion_1","0","0","0","0","No, exclude my data (please specify why):","1","72603"
"081519","13:43:58","29404700","74603181","5.0.14.0","1","5","end_of_study_questions_ufirst","self_exclusion_1other","0","0","0","0","I was distracted on the second task by somebody walking passed","1","72603"
"081519","13:45:03","621135066","507556554","5.0.14.0","1","1","end_of_study_questions_ifirst","awareness","0","0","0","0","all","1","17679"
"081519","13:45:03","621135066","507556554","5.0.14.0","1","2","end_of_study_questions_ifirst","influence_general","0","0","0","0","less than half","1","8809"
"081519","13:45:03","621135066","507556554","5.0.14.0","1","3","end_of_study_questions_ifirst","intentionality","0","0","0","0","less than half","1","14771"
"081519","13:45:03","621135066","507556554","5.0.14.0","1","4","end_of_study_questions_ifirst","unintentionality","0","0","0","0","a few","1","10382"
"081519","13:45:03","621135066","507556554","5.0.14.0","1","5","end_of_study_questions_ifirst","self_exclusion_1","0","0","0","0","Yes, use my data","1","13209"
"081519","13:45:03","621135066","507556554","5.0.14.0","1","5","end_of_study_questions_ifirst","self_exclusion_1other","0","0","0","0","","1","13209"
"081519","13:45:32","703090375","318927489","5.0.14.0","1","1","end_of_study_questions_ufirst","awareness","0","0","0","0","all","1","22767"
"081519","13:45:32","703090375","318927489","5.0.14.0","1","2","end_of_study_questions_ufirst","influence_general","0","0","0","0","about half","1","20762"
"081519","13:45:32","703090375","318927489","5.0.14.0","1","3","end_of_study_questions_ufirst","unintentionality","0","0","0","0","none","1","11273"
"081519","13:45:32","703090375","318927489","5.0.14.0","1","4","end_of_study_questions_ufirst","intentionality","0","0","0","0","less than half","1","12532"
"081519","13:45:32","703090375","318927489","5.0.14.0","1","5","end_of_study_questions_ufirst","self_exclusion_1","0","0","0","0","Yes, use my data","1","13449"
"081519","13:45:32","703090375","318927489","5.0.14.0","1","5","end_of_study_questions_ufirst","self_exclusion_1other","0","0","0","0","","1","13449"
"081519","13:46:04","518564673","731768671","5.0.14.0","1","1","end_of_study_questions_ufirst","awareness","0","0","0","0","most","1","18396"
"081519","13:46:04","518564673","731768671","5.0.14.0","1","2","end_of_study_questions_ufirst","influence_general","0","0","0","0","most","1","8988"
"081519","13:46:04","518564673","731768671","5.0.14.0","1","3","end_of_study_questions_ufirst","unintentionality","0","0","0","0","more than half","1","9981"
"081519","13:46:04","518564673","731768671","5.0.14.0","1","4","end_of_study_questions_ufirst","intentionality","0","0","0","0","more than half","1","10646"
"081519","13:46:04","518564673","731768671","5.0.14.0","1","5","end_of_study_questions_ufirst","self_exclusion_1","0","0","0","0","Yes, use my data","1","13878"
"081519","13:46:04","518564673","731768671","5.0.14.0","1","5","end_of_study_questions_ufirst","self_exclusion_1other","0","0","0","0","","1","13878"
"081519","13:47:15","517332293","308734979","5.0.14.0","1","1","end_of_study_questions_ufirst","awareness","0","0","0","0","all","1","21517"
"081519","13:47:15","517332293","308734979","5.0.14.0","1","2","end_of_study_questions_ufirst","influence_general","0","0","0","0","less than half","1","6271"
"081519","13:47:15","517332293","308734979","5.0.14.0","1","3","end_of_study_questions_ufirst","unintentionality","0","0","0","0","about half","1","5790"
"081519","13:47:15","517332293","308734979","5.0.14.0","1","4","end_of_study_questions_ufirst","intentionality","0","0","0","0","less than half","1","4857"
"081519","13:47:15","517332293","308734979","5.0.14.0","1","5","end_of_study_questions_ufirst","self_exclusion_1","0","0","0","0","Yes, use my data","1","6126"
"081519","13:47:15","517332293","308734979","5.0.14.0","1","5","end_of_study_questions_ufirst","self_exclusion_1other","0","0","0","0","","1","6126"
"081519","13:48:23","321688642","274836154","5.0.14.0","1","1","end_of_study_questions_ifirst","awareness","0","0","0","0","all","1","15168"
"081519","13:48:23","321688642","274836154","5.0.14.0","1","2","end_of_study_questions_ifirst","influence_general","0","0","0","0","about half","1","9801"
"081519","13:48:23","321688642","274836154","5.0.14.0","1","3","end_of_study_questions_ifirst","intentionality","0","0","0","0","about half","1","7995"
"081519","13:48:23","321688642","274836154","5.0.14.0","1","4","end_of_study_questions_ifirst","unintentionality","0","0","0","0","less than half","1","7132"
"081519","13:48:23","321688642","274836154","5.0.14.0","1","5","end_of_study_questions_ifirst","self_exclusion_1","0","0","0","0","Yes, use my data","1","14609"
"081519","13:48:23","321688642","274836154","5.0.14.0","1","5","end_of_study_questions_ifirst","self_exclusion_1other","0","0","0","0","","1","14609"
"081519","13:48:57","682322324","515409549","5.0.14.0","1","1","end_of_study_questions_ufirst","awareness","0","0","0","0","most","1","10493"
"081519","13:48:57","682322324","515409549","5.0.14.0","1","2","end_of_study_questions_ufirst","influence_general","0","0","0","0","a few","1","5653"
"081519","13:48:57","682322324","515409549","5.0.14.0","1","3","end_of_study_questions_ufirst","unintentionality","0","0","0","0","a few","1","7315"
"081519","13:48:57","682322324","515409549","5.0.14.0","1","4","end_of_study_questions_ufirst","intentionality","0","0","0","0","a few","1","6584"
"081519","13:48:57","682322324","515409549","5.0.14.0","1","5","end_of_study_questions_ufirst","self_exclusion_1","0","0","0","0","Yes, use my data","1","6196"
"081519","13:48:57","682322324","515409549","5.0.14.0","1","5","end_of_study_questions_ufirst","self_exclusion_1other","0","0","0","0","","1","6196"
"081519","08:48:57","707300227","94939907","5.0.14.0","1","1","end_of_study_questions_ufirst","awareness","0","0","0","0","all","1","8988"
"081519","08:48:57","707300227","94939907","5.0.14.0","1","2","end_of_study_questions_ufirst","influence_general","0","0","0","0","all","1","8727"
"081519","08:48:57","707300227","94939907","5.0.14.0","1","3","end_of_study_questions_ufirst","unintentionality","0","0","0","0","none","1","16529"
"081519","08:48:57","707300227","94939907","5.0.14.0","1","4","end_of_study_questions_ufirst","intentionality","0","0","0","0","all","1","5455"
"081519","08:48:57","707300227","94939907","5.0.14.0","1","5","end_of_study_questions_ufirst","self_exclusion_1","0","0","0","0","Yes, use my data","1","4372"
"081519","08:48:57","707300227","94939907","5.0.14.0","1","5","end_of_study_questions_ufirst","self_exclusion_1other","0","0","0","0","","1","4372"
"081519","08:49:16","612655213","255938164","5.0.14.0","1","1","end_of_study_questions_ifirst","awareness","0","0","0","0","all","1","21308"
"081519","08:49:16","612655213","255938164","5.0.14.0","1","2","end_of_study_questions_ifirst","influence_general","0","0","0","0","more than half","1","6103"
"081519","08:49:16","612655213","255938164","5.0.14.0","1","3","end_of_study_questions_ifirst","intentionality","0","0","0","0","less than half","1","6310"
"081519","08:49:16","612655213","255938164","5.0.14.0","1","4","end_of_study_questions_ifirst","unintentionality","0","0","0","0","most","1","5247"
"081519","08:49:16","612655213","255938164","5.0.14.0","1","5","end_of_study_questions_ifirst","self_exclusion_1","0","0","0","0","Yes, use my data","1","8730"
"081519","08:49:16","612655213","255938164","5.0.14.0","1","5","end_of_study_questions_ifirst","self_exclusion_1other","0","0","0","0","","1","8730"
"081519","13:49:21","693964034","762291740","5.0.14.0","1","1","end_of_study_questions_ifirst","awareness","0","0","0","0","all","1","21664"
"081519","13:49:21","693964034","762291740","5.0.14.0","1","2","end_of_study_questions_ifirst","influence_general","0","0","0","0","most","1","9293"
"081519","13:49:21","693964034","762291740","5.0.14.0","1","3","end_of_study_questions_ifirst","intentionality","0","0","0","0","most","1","11120"
"081519","13:49:21","693964034","762291740","5.0.14.0","1","4","end_of_study_questions_ifirst","unintentionality","0","0","0","0","most","1","13586"
"081519","13:49:21","693964034","762291740","5.0.14.0","1","5","end_of_study_questions_ifirst","self_exclusion_1","0","0","0","0","Yes, use my data","1","10024"
"081519","13:49:21","693964034","762291740","5.0.14.0","1","5","end_of_study_questions_ifirst","self_exclusion_1other","0","0","0","0","","1","10024"
"081519","15:49:59","336890906","953007500","5.0.14.0","1","1","end_of_study_questions_ifirst","awareness","0","0","0","0","all","1","21019"
"081519","15:49:59","336890906","953007500","5.0.14.0","1","2","end_of_study_questions_ifirst","influence_general","0","0","0","0","less than half","1","8218"
"081519","15:49:59","336890906","953007500","5.0.14.0","1","3","end_of_study_questions_ifirst","intentionality","0","0","0","0","none","1","8955"
"081519","15:49:59","336890906","953007500","5.0.14.0","1","4","end_of_study_questions_ifirst","unintentionality","0","0","0","0","less than half","1","6820"
"081519","15:49:59","336890906","953007500","5.0.14.0","1","5","end_of_study_questions_ifirst","self_exclusion_1","0","0","0","0","Yes, use my data","1","15421"
"081519","15:49:59","336890906","953007500","5.0.14.0","1","5","end_of_study_questions_ifirst","self_exclusion_1other","0","0","0","0","","1","15421"
"081519","13:49:59","326661405","942498505","5.0.14.0","1","1","end_of_study_questions_ufirst","awareness","0","0","0","0","a few","1","25006"
"081519","13:49:59","326661405","942498505","5.0.14.0","1","2","end_of_study_questions_ufirst","influence_general","0","0","0","0","a few","1","10478"
"081519","13:49:59","326661405","942498505","5.0.14.0","1","3","end_of_study_questions_ufirst","unintentionality","0","0","0","0","less than half","1","11966"
"081519","13:49:59","326661405","942498505","5.0.14.0","1","4","end_of_study_questions_ufirst","intentionality","0","0","0","0","a few","1","8986"
"081519","13:49:59","326661405","942498505","5.0.14.0","1","5","end_of_study_questions_ufirst","self_exclusion_1","0","0","0","0","Yes, use my data","1","8698"
"081519","13:49:59","326661405","942498505","5.0.14.0","1","5","end_of_study_questions_ufirst","self_exclusion_1other","0","0","0","0","","1","8698"
"081519","22:49:49","944153461","231683431","5.0.14.0","1","1","end_of_study_questions_ufirst","awareness","0","0","0","0","most","1","24576"
"081519","22:49:49","944153461","231683431","5.0.14.0","1","2","end_of_study_questions_ufirst","influence_general","0","0","0","0","about half","1","12854"
"081519","22:49:49","944153461","231683431","5.0.14.0","1","3","end_of_study_questions_ufirst","unintentionality","0","0","0","0","about half","1","5959"
"081519","22:49:49","944153461","231683431","5.0.14.0","1","4","end_of_study_questions_ufirst","intentionality","0","0","0","0","less than half","1","14218"
"081519","22:49:49","944153461","231683431","5.0.14.0","1","5","end_of_study_questions_ufirst","self_exclusion_1","0","0","0","0","Yes, use my data","1","17480"
"081519","22:49:49","944153461","231683431","5.0.14.0","1","5","end_of_study_questions_ufirst","self_exclusion_1other","0","0","0","0","","1","17480"
"081519","08:50:17","277270419","958010789","5.0.14.0","1","1","end_of_study_questions_ufirst","awareness","0","0","0","0","most","1","12401"
"081519","08:50:17","277270419","958010789","5.0.14.0","1","2","end_of_study_questions_ufirst","influence_general","0","0","0","0","most","1","9995"
"081519","08:50:17","277270419","958010789","5.0.14.0","1","3","end_of_study_questions_ufirst","unintentionality","0","0","0","0","all","1","16210"
"081519","08:50:17","277270419","958010789","5.0.14.0","1","4","end_of_study_questions_ufirst","intentionality","0","0","0","0","all","1","9727"
"081519","08:50:17","277270419","958010789","5.0.14.0","1","5","end_of_study_questions_ufirst","self_exclusion_1","0","0","0","0","Yes, use my data","1","9476"
"081519","08:50:17","277270419","958010789","5.0.14.0","1","5","end_of_study_questions_ufirst","self_exclusion_1other","0","0","0","0","","1","9476"
"081519","13:51:06","858241398","576148434","5.0.14.0","1","1","end_of_study_questions_ifirst","awareness","0","0","0","0","all","1","13123"
"081519","13:51:06","858241398","576148434","5.0.14.0","1","2","end_of_study_questions_ifirst","influence_general","0","0","0","0","none","1","8148"
"081519","13:51:06","858241398","576148434","5.0.14.0","1","3","end_of_study_questions_ifirst","intentionality","0","0","0","0","none","1","10876"
"081519","13:51:06","858241398","576148434","5.0.14.0","1","4","end_of_study_questions_ifirst","unintentionality","0","0","0","0","none","1","7234"
"081519","13:51:06","858241398","576148434","5.0.14.0","1","5","end_of_study_questions_ifirst","self_exclusion_1","0","0","0","0","Yes, use my data","1","3897"
"081519","13:51:06","858241398","576148434","5.0.14.0","1","5","end_of_study_questions_ifirst","self_exclusion_1other","0","0","0","0","","1","3897"
"081519","13:51:32","89189381","282740921","5.0.14.0","1","1","end_of_study_questions_ufirst","awareness","0","0","0","0","all","1","15958"
"081519","13:51:32","89189381","282740921","5.0.14.0","1","2","end_of_study_questions_ufirst","influence_general","0","0","0","0","none","1","7086"
"081519","13:51:32","89189381","282740921","5.0.14.0","1","3","end_of_study_questions_ufirst","unintentionality","0","0","0","0","a few","1","6795"
"081519","13:51:32","89189381","282740921","5.0.14.0","1","4","end_of_study_questions_ufirst","intentionality","0","0","0","0","none","1","7657"
"081519","13:51:32","89189381","282740921","5.0.14.0","1","5","end_of_study_questions_ufirst","self_exclusion_1","0","0","0","0","Yes, use my data","1","12988"
"081519","13:51:32","89189381","282740921","5.0.14.0","1","5","end_of_study_questions_ufirst","self_exclusion_1other","0","0","0","0","","1","12988"
"081519","05:50:11","949198795","757599396","5.0.14.0","1","1","end_of_study_questions_ifirst","awareness","0","0","0","0","all","1","35154"
"081519","05:50:11","949198795","757599396","5.0.14.0","1","2","end_of_study_questions_ifirst","influence_general","0","0","0","0","none","1","18059"
"081519","05:50:11","949198795","757599396","5.0.14.0","1","3","end_of_study_questions_ifirst","intentionality","0","0","0","0","none","1","24238"
"081519","05:50:11","949198795","757599396","5.0.14.0","1","4","end_of_study_questions_ifirst","unintentionality","0","0","0","0","a few","1","11461"
"081519","05:50:11","949198795","757599396","5.0.14.0","1","5","end_of_study_questions_ifirst","self_exclusion_1","0","0","0","0","Yes, use my data","1","71225"
"081519","05:50:11","949198795","757599396","5.0.14.0","1","5","end_of_study_questions_ifirst","self_exclusion_1other","0","0","0","0","","1","71225"
"081519","13:51:47","486954258","208847005","5.0.15.0","1","1","end_of_study_questions_ufirst","awareness","0","0","0","0","about half","1","17431"
"081519","13:51:47","486954258","208847005","5.0.15.0","1","2","end_of_study_questions_ufirst","influence_general","0","0","0","0","most","1","7840"
"081519","13:51:47","486954258","208847005","5.0.15.0","1","3","end_of_study_questions_ufirst","unintentionality","0","0","0","0","most","1","11288"
"081519","13:51:47","486954258","208847005","5.0.15.0","1","4","end_of_study_questions_ufirst","intentionality","0","0","0","0","none","1","5950"
"081519","13:51:47","486954258","208847005","5.0.15.0","1","5","end_of_study_questions_ufirst","self_exclusion_1","0","0","0","0","Yes, use my data","1","26951"
"081519","13:51:47","486954258","208847005","5.0.15.0","1","5","end_of_study_questions_ufirst","self_exclusion_1other","0","0","0","0","","1","26951"
"081519","13:46:25","343532534","815623241","5.0.14.0","1","1","end_of_study_questions_ufirst","awareness","0","0","0","0","more than half","1","268439"
"081519","13:46:25","343532534","815623241","5.0.14.0","1","2","end_of_study_questions_ufirst","influence_general","0","0","0","0","more than half","1","5729"
"081519","13:46:25","343532534","815623241","5.0.14.0","1","3","end_of_study_questions_ufirst","unintentionality","0","0","0","0","all","1","7854"
"081519","13:46:25","343532534","815623241","5.0.14.0","1","4","end_of_study_questions_ufirst","intentionality","0","0","0","0","more than half","1","63025"
"081519","13:46:25","343532534","815623241","5.0.14.0","1","5","end_of_study_questions_ufirst","self_exclusion_1","0","0","0","0","Yes, use my data","1","72111"
"081519","13:46:25","343532534","815623241","5.0.14.0","1","5","end_of_study_questions_ufirst","self_exclusion_1other","0","0","0","0","","1","72111"
"081519","08:52:15","932736508","902801968","5.0.14.0","1","1","end_of_study_questions_ifirst","awareness","0","0","0","0","all","1","25525"
"081519","08:52:15","932736508","902801968","5.0.14.0","1","2","end_of_study_questions_ifirst","influence_general","0","0","0","0","more than half","1","9682"
"081519","08:52:15","932736508","902801968","5.0.14.0","1","3","end_of_study_questions_ifirst","intentionality","0","0","0","0","more than half","1","11378"
"081519","08:52:15","932736508","902801968","5.0.14.0","1","4","end_of_study_questions_ifirst","unintentionality","0","0","0","0","more than half","1","5046"
"081519","08:52:15","932736508","902801968","5.0.14.0","1","5","end_of_study_questions_ifirst","self_exclusion_1","0","0","0","0","Yes, use my data","1","13583"
"081519","08:52:15","932736508","902801968","5.0.14.0","1","5","end_of_study_questions_ifirst","self_exclusion_1other","0","0","0","0","","1","13583"
"081519","13:52:34","862333881","579942789","5.0.14.0","1","1","end_of_study_questions_ufirst","awareness","0","0","0","0","all","1","22333"
"081519","13:52:34","862333881","579942789","5.0.14.0","1","2","end_of_study_questions_ufirst","influence_general","0","0","0","0","a few","1","13475"
"081519","13:52:34","862333881","579942789","5.0.14.0","1","3","end_of_study_questions_ufirst","unintentionality","0","0","0","0","a few","1","9799"
"081519","13:52:34","862333881","579942789","5.0.14.0","1","4","end_of_study_questions_ufirst","intentionality","0","0","0","0","a few","1","9875"
"081519","13:52:34","862333881","579942789","5.0.14.0","1","5","end_of_study_questions_ufirst","self_exclusion_1","0","0","0","0","Yes, use my data","1","12497"
"081519","13:52:34","862333881","579942789","5.0.14.0","1","5","end_of_study_questions_ufirst","self_exclusion_1other","0","0","0","0","","1","12497"
"081519","13:52:40","119561123","313112664","5.0.14.0","1","1","end_of_study_questions_ifirst","awareness","0","0","0","0","all","1","18435"
"081519","13:52:40","119561123","313112664","5.0.14.0","1","2","end_of_study_questions_ifirst","influence_general","0","0","0","0","none","1","11736"
"081519","13:52:40","119561123","313112664","5.0.14.0","1","3","end_of_study_questions_ifirst","intentionality","0","0","0","0","none","1","11222"
"081519","13:52:40","119561123","313112664","5.0.14.0","1","4","end_of_study_questions_ifirst","unintentionality","0","0","0","0","none","1","8994"
"081519","13:52:40","119561123","313112664","5.0.14.0","1","5","end_of_study_questions_ifirst","self_exclusion_1","0","0","0","0","Yes, use my data","1","28125"
"081519","13:52:40","119561123","313112664","5.0.14.0","1","5","end_of_study_questions_ifirst","self_exclusion_1other","0","0","0","0","","1","28125"
"081519","13:53:24","426836347","281528158","5.0.14.0","1","1","end_of_study_questions_ifirst","awareness","0","0","0","0","all","1","16356"
"081519","13:53:24","426836347","281528158","5.0.14.0","1","2","end_of_study_questions_ifirst","influence_general","0","0","0","0","none","1","4000"
"081519","13:53:24","426836347","281528158","5.0.14.0","1","3","end_of_study_questions_ifirst","intentionality","0","0","0","0","none","1","4408"
"081519","13:53:24","426836347","281528158","5.0.14.0","1","4","end_of_study_questions_ifirst","unintentionality","0","0","0","0","a few","1","9721"
"081519","13:53:24","426836347","281528158","5.0.14.0","1","5","end_of_study_questions_ifirst","self_exclusion_1","0","0","0","0","Yes, use my data","1","18745"
"081519","13:53:24","426836347","281528158","5.0.14.0","1","5","end_of_study_questions_ifirst","self_exclusion_1other","0","0","0","0","","1","18745"
"081519","13:53:35","537414892","663070643","5.0.14.0","1","1","end_of_study_questions_ufirst","awareness","0","0","0","0","about half","1","21319"
"081519","13:53:35","537414892","663070643","5.0.14.0","1","2","end_of_study_questions_ufirst","influence_general","0","0","0","0","about half","1","12134"
"081519","13:53:35","537414892","663070643","5.0.14.0","1","3","end_of_study_questions_ufirst","unintentionality","0","0","0","0","less than half","1","9295"
"081519","13:53:35","537414892","663070643","5.0.14.0","1","4","end_of_study_questions_ufirst","intentionality","0","0","0","0","most","1","14446"
"081519","13:53:35","537414892","663070643","5.0.14.0","1","5","end_of_study_questions_ufirst","self_exclusion_1","0","0","0","0","Yes, use my data","1","12799"
"081519","13:53:35","537414892","663070643","5.0.14.0","1","5","end_of_study_questions_ufirst","self_exclusion_1other","0","0","0","0","","1","12799"
"081519","08:54:32","899197373","736568442","5.0.14.0","1","1","end_of_study_questions_ifirst","awareness","0","0","0","0","about half","1","6878"
"081519","08:54:32","899197373","736568442","5.0.14.0","1","2","end_of_study_questions_ifirst","influence_general","0","0","0","0","more than half","1","2784"
"081519","08:54:32","899197373","736568442","5.0.14.0","1","3","end_of_study_questions_ifirst","intentionality","0","0","0","0","more than half","1","2354"
"081519","08:54:32","899197373","736568442","5.0.14.0","1","4","end_of_study_questions_ifirst","unintentionality","0","0","0","0","about half","1","5156"
"081519","08:54:32","899197373","736568442","5.0.14.0","1","5","end_of_study_questions_ifirst","self_exclusion_1","0","0","0","0","Yes, use my data","1","3644"
"081519","08:54:32","899197373","736568442","5.0.14.0","1","5","end_of_study_questions_ifirst","self_exclusion_1other","0","0","0","0","","1","3644"
"081519","13:58:01","192496755","250594697","5.0.14.0","1","1","end_of_study_questions_ufirst","awareness","0","0","0","0","all","1","27556"
"081519","13:58:01","192496755","250594697","5.0.14.0","1","2","end_of_study_questions_ufirst","influence_general","0","0","0","0","about half","1","5457"
"081519","13:58:01","192496755","250594697","5.0.14.0","1","3","end_of_study_questions_ufirst","unintentionality","0","0","0","0","less than half","1","6643"
"081519","13:58:01","192496755","250594697","5.0.14.0","1","4","end_of_study_questions_ufirst","intentionality","0","0","0","0","a few","1","8716"
"081519","13:58:01","192496755","250594697","5.0.14.0","1","5","end_of_study_questions_ufirst","self_exclusion_1","0","0","0","0","Yes, use my data","1","7527"
"081519","13:58:01","192496755","250594697","5.0.14.0","1","5","end_of_study_questions_ufirst","self_exclusion_1other","0","0","0","0","","1","7527"
"081519","08:54:53","377101936","243870969","5.0.14.0","1","1","end_of_study_questions_ufirst","awareness","0","0","0","0","all","1","8371"
"081519","08:54:53","377101936","243870969","5.0.14.0","1","2","end_of_study_questions_ufirst","influence_general","0","0","0","0","a few","1","4503"
"081519","08:54:53","377101936","243870969","5.0.14.0","1","3","end_of_study_questions_ufirst","unintentionality","0","0","0","0","none","1","6931"
"081519","08:54:53","377101936","243870969","5.0.14.0","1","4","end_of_study_questions_ufirst","intentionality","0","0","0","0","a few","1","6278"
"081519","08:54:53","377101936","243870969","5.0.14.0","1","5","end_of_study_questions_ufirst","self_exclusion_1","0","0","0","0","Yes, use my data","1","3539"
"081519","08:54:53","377101936","243870969","5.0.14.0","1","5","end_of_study_questions_ufirst","self_exclusion_1other","0","0","0","0","","1","3539"
"081519","13:55:34","124219365","317770907","5.0.14.0","1","1","end_of_study_questions_ufirst","awareness","0","0","0","0","all","1","14787"
"081519","13:55:34","124219365","317770907","5.0.14.0","1","2","end_of_study_questions_ufirst","influence_general","0","0","0","0","more than half","1","7564"
"081519","13:55:34","124219365","317770907","5.0.14.0","1","3","end_of_study_questions_ufirst","unintentionality","0","0","0","0","less than half","1","5113"
"081519","13:55:34","124219365","317770907","5.0.14.0","1","4","end_of_study_questions_ufirst","intentionality","0","0","0","0","more than half","1","8985"
"081519","13:55:34","124219365","317770907","5.0.14.0","1","5","end_of_study_questions_ufirst","self_exclusion_1","0","0","0","0","Yes, use my data","1","4086"
"081519","13:55:34","124219365","317770907","5.0.14.0","1","5","end_of_study_questions_ufirst","self_exclusion_1other","0","0","0","0","","1","4086"
"081519","13:55:52","774648190","705997667","5.0.14.0","1","1","end_of_study_questions_ufirst","awareness","0","0","0","0","most","1","14358"
"081519","13:55:52","774648190","705997667","5.0.14.0","1","2","end_of_study_questions_ufirst","influence_general","0","0","0","0","about half","1","5355"
"081519","13:55:52","774648190","705997667","5.0.14.0","1","3","end_of_study_questions_ufirst","unintentionality","0","0","0","0","less than half","1","6323"
"081519","13:55:52","774648190","705997667","5.0.14.0","1","4","end_of_study_questions_ufirst","intentionality","0","0","0","0","a few","1","12515"
"081519","13:55:52","774648190","705997667","5.0.14.0","1","5","end_of_study_questions_ufirst","self_exclusion_1","0","0","0","0","Yes, use my data","1","11418"
"081519","13:55:52","774648190","705997667","5.0.14.0","1","5","end_of_study_questions_ufirst","self_exclusion_1other","0","0","0","0","","1","11418"
"081519","08:56:05","922542192","180674197","5.0.14.0","1","1","end_of_study_questions_ufirst","awareness","0","0","0","0","most","1","10048"
"081519","08:56:05","922542192","180674197","5.0.14.0","1","2","end_of_study_questions_ufirst","influence_general","0","0","0","0","more than half","1","7931"
"081519","08:56:05","922542192","180674197","5.0.14.0","1","3","end_of_study_questions_ufirst","unintentionality","0","0","0","0","more than half","1","8064"
"081519","08:56:05","922542192","180674197","5.0.14.0","1","4","end_of_study_questions_ufirst","intentionality","0","0","0","0","a few","1","9336"
"081519","08:56:05","922542192","180674197","5.0.14.0","1","5","end_of_study_questions_ufirst","self_exclusion_1","0","0","0","0","Yes, use my data","1","4895"
"081519","08:56:05","922542192","180674197","5.0.14.0","1","5","end_of_study_questions_ufirst","self_exclusion_1other","0","0","0","0","","1","4895"
"081519","13:55:58","261895445","270225412","5.0.14.0","1","1","end_of_study_questions_ifirst","awareness","0","0","0","0","all","1","14436"
"081519","13:55:58","261895445","270225412","5.0.14.0","1","2","end_of_study_questions_ifirst","influence_general","0","0","0","0","less than half","1","8540"
"081519","13:55:58","261895445","270225412","5.0.14.0","1","3","end_of_study_questions_ifirst","intentionality","0","0","0","0","none","1","12606"
"081519","13:55:58","261895445","270225412","5.0.14.0","1","4","end_of_study_questions_ifirst","unintentionality","0","0","0","0","about half","1","10937"
"081519","13:55:58","261895445","270225412","5.0.14.0","1","5","end_of_study_questions_ifirst","self_exclusion_1","0","0","0","0","Yes, use my data","1","12304"
"081519","13:55:58","261895445","270225412","5.0.14.0","1","5","end_of_study_questions_ifirst","self_exclusion_1other","0","0","0","0","","1","12304"
"081519","13:55:39","114736290","613247605","5.0.14.0","1","1","end_of_study_questions_ufirst","awareness","0","0","0","0","all","1","26779"
"081519","13:55:39","114736290","613247605","5.0.14.0","1","2","end_of_study_questions_ufirst","influence_general","0","0","0","0","most","1","15366"
"081519","13:55:39","114736290","613247605","5.0.14.0","1","3","end_of_study_questions_ufirst","unintentionality","0","0","0","0","most","1","8908"
"081519","13:55:39","114736290","613247605","5.0.14.0","1","4","end_of_study_questions_ufirst","intentionality","0","0","0","0","more than half","1","26482"
"081519","13:55:39","114736290","613247605","5.0.14.0","1","5","end_of_study_questions_ufirst","self_exclusion_1","0","0","0","0","Yes, use my data","1","20994"
"081519","13:55:39","114736290","613247605","5.0.14.0","1","5","end_of_study_questions_ufirst","self_exclusion_1other","0","0","0","0","","1","20994"
"081519","13:56:46","279565580","942500958","5.0.14.0","1","1","end_of_study_questions_ifirst","awareness","0","0","0","0","all","1","13902"
"081519","13:56:46","279565580","942500958","5.0.14.0","1","2","end_of_study_questions_ifirst","influence_general","0","0","0","0","more than half","1","5060"
"081519","13:56:46","279565580","942500958","5.0.14.0","1","3","end_of_study_questions_ifirst","intentionality","0","0","0","0","about half","1","4848"
"081519","13:56:46","279565580","942500958","5.0.14.0","1","4","end_of_study_questions_ifirst","unintentionality","0","0","0","0","most","1","4969"
"081519","13:56:46","279565580","942500958","5.0.14.0","1","5","end_of_study_questions_ifirst","self_exclusion_1","0","0","0","0","Yes, use my data","1","4725"
"081519","13:56:46","279565580","942500958","5.0.14.0","1","5","end_of_study_questions_ifirst","self_exclusion_1other","0","0","0","0","","1","4725"
"081519","13:56:47","740572997","814039553","5.0.14.0","1","1","end_of_study_questions_ufirst","awareness","0","0","0","0","all","1","19821"
"081519","13:56:47","740572997","814039553","5.0.14.0","1","2","end_of_study_questions_ufirst","influence_general","0","0","0","0","a few","1","10138"
"081519","13:56:47","740572997","814039553","5.0.14.0","1","3","end_of_study_questions_ufirst","unintentionality","0","0","0","0","a few","1","12203"
"081519","13:56:47","740572997","814039553","5.0.14.0","1","4","end_of_study_questions_ufirst","intentionality","0","0","0","0","none","1","7216"
"081519","13:56:47","740572997","814039553","5.0.14.0","1","5","end_of_study_questions_ufirst","self_exclusion_1","0","0","0","0","Yes, use my data","1","8152"
"081519","13:56:47","740572997","814039553","5.0.14.0","1","5","end_of_study_questions_ufirst","self_exclusion_1other","0","0","0","0","","1","8152"
"081519","13:56:25","235867659","618900656","5.0.14.0","1","1","end_of_study_questions_ifirst","awareness","0","0","0","0","most","1","30206"
"081519","13:56:25","235867659","618900656","5.0.14.0","1","2","end_of_study_questions_ifirst","influence_general","0","0","0","0","most","1","11928"
"081519","13:56:25","235867659","618900656","5.0.14.0","1","3","end_of_study_questions_ifirst","intentionality","0","0","0","0","a few","1","20363"
"081519","13:56:25","235867659","618900656","5.0.14.0","1","4","end_of_study_questions_ifirst","unintentionality","0","0","0","0","a few","1","7956"
"081519","13:56:25","235867659","618900656","5.0.14.0","1","5","end_of_study_questions_ifirst","self_exclusion_1","0","0","0","0","Yes, use my data","1","26477"
"081519","13:56:25","235867659","618900656","5.0.14.0","1","5","end_of_study_questions_ifirst","self_exclusion_1other","0","0","0","0","","1","26477"
"081519","13:56:43","676978984","146415179","5.0.14.0","1","1","end_of_study_questions_ufirst","awareness","0","0","0","0","all","1","24152"
"081519","13:56:43","676978984","146415179","5.0.14.0","1","2","end_of_study_questions_ufirst","influence_general","0","0","0","0","more than half","1","11719"
"081519","13:56:43","676978984","146415179","5.0.14.0","1","3","end_of_study_questions_ufirst","unintentionality","0","0","0","0","about half","1","8002"
"081519","13:56:43","676978984","146415179","5.0.14.0","1","4","end_of_study_questions_ufirst","intentionality","0","0","0","0","a few","1","19106"
"081519","13:56:43","676978984","146415179","5.0.14.0","1","5","end_of_study_questions_ufirst","self_exclusion_1","0","0","0","0","Yes, use my data","1","14773"
"081519","13:56:43","676978984","146415179","5.0.14.0","1","5","end_of_study_questions_ufirst","self_exclusion_1other","0","0","0","0","","1","14773"
"081519","13:58:49","977183071","284365490","5.0.14.0","1","1","end_of_study_questions_ifirst","awareness","0","0","0","0","all","1","11242"
"081519","13:58:49","977183071","284365490","5.0.14.0","1","2","end_of_study_questions_ifirst","influence_general","0","0","0","0","a few","1","3873"
"081519","13:58:49","977183071","284365490","5.0.14.0","1","3","end_of_study_questions_ifirst","intentionality","0","0","0","0","a few","1","9036"
"081519","13:58:49","977183071","284365490","5.0.14.0","1","4","end_of_study_questions_ifirst","unintentionality","0","0","0","0","less than half","1","5196"
"081519","13:58:49","977183071","284365490","5.0.14.0","1","5","end_of_study_questions_ifirst","self_exclusion_1","0","0","0","0","Yes, use my data","1","3384"
"081519","13:58:49","977183071","284365490","5.0.14.0","1","5","end_of_study_questions_ifirst","self_exclusion_1other","0","0","0","0","","1","3384"
"081519","13:58:51","405930844","326273564","5.0.14.0","1","1","end_of_study_questions_ifirst","awareness","0","0","0","0","all","1","27304"
"081519","13:58:51","405930844","326273564","5.0.14.0","1","2","end_of_study_questions_ifirst","influence_general","0","0","0","0","more than half","1","7587"
"081519","13:58:51","405930844","326273564","5.0.14.0","1","3","end_of_study_questions_ifirst","intentionality","0","0","0","0","a few","1","10215"
"081519","13:58:51","405930844","326273564","5.0.14.0","1","4","end_of_study_questions_ifirst","unintentionality","0","0","0","0","most","1","9008"
"081519","13:58:51","405930844","326273564","5.0.14.0","1","5","end_of_study_questions_ifirst","self_exclusion_1","0","0","0","0","Yes, use my data","1","7033"
"081519","13:58:51","405930844","326273564","5.0.14.0","1","5","end_of_study_questions_ifirst","self_exclusion_1other","0","0","0","0","","1","7033"
"081519","13:59:22","716676051","111786283","5.0.14.0","1","1","end_of_study_questions_ufirst","awareness","0","0","0","0","all","1","18764"
"081519","13:59:22","716676051","111786283","5.0.14.0","1","2","end_of_study_questions_ufirst","influence_general","0","0","0","0","less than half","1","7066"
"081519","13:59:22","716676051","111786283","5.0.14.0","1","3","end_of_study_questions_ufirst","unintentionality","0","0","0","0","less than half","1","6708"
"081519","13:59:22","716676051","111786283","5.0.14.0","1","4","end_of_study_questions_ufirst","intentionality","0","0","0","0","none","1","6449"
"081519","13:59:22","716676051","111786283","5.0.14.0","1","5","end_of_study_questions_ufirst","self_exclusion_1","0","0","0","0","Yes, use my data","1","11927"
"081519","13:59:22","716676051","111786283","5.0.14.0","1","5","end_of_study_questions_ufirst","self_exclusion_1other","0","0","0","0","","1","11927"
"081519","14:00:25","231814957","642293786","5.0.14.0","1","1","end_of_study_questions_ifirst","awareness","0","0","0","0","all","1","21836"
"081519","14:00:25","231814957","642293786","5.0.14.0","1","2","end_of_study_questions_ifirst","influence_general","0","0","0","0","a few","1","7894"
"081519","14:00:25","231814957","642293786","5.0.14.0","1","3","end_of_study_questions_ifirst","intentionality","0","0","0","0","none","1","6246"
"081519","14:00:25","231814957","642293786","5.0.14.0","1","4","end_of_study_questions_ifirst","unintentionality","0","0","0","0","a few","1","6905"
"081519","14:00:25","231814957","642293786","5.0.14.0","1","5","end_of_study_questions_ifirst","self_exclusion_1","0","0","0","0","Yes, use my data","1","6793"
"081519","14:00:25","231814957","642293786","5.0.14.0","1","5","end_of_study_questions_ifirst","self_exclusion_1other","0","0","0","0","","1","6793"
"081519","14:00:10","277600596","997864018","5.0.14.0","1","1","end_of_study_questions_ifirst","awareness","0","0","0","0","less than half","1","26173"
"081519","14:00:10","277600596","997864018","5.0.14.0","1","2","end_of_study_questions_ifirst","influence_general","0","0","0","0","more than half","1","8099"
"081519","14:00:10","277600596","997864018","5.0.14.0","1","3","end_of_study_questions_ifirst","intentionality","0","0","0","0","most","1","8974"
"081519","14:00:10","277600596","997864018","5.0.14.0","1","4","end_of_study_questions_ifirst","unintentionality","0","0","0","0","most","1","6802"
"081519","14:00:10","277600596","997864018","5.0.14.0","1","5","end_of_study_questions_ifirst","self_exclusion_1","0","0","0","0","Yes, use my data","1","22181"
"081519","14:00:10","277600596","997864018","5.0.14.0","1","5","end_of_study_questions_ifirst","self_exclusion_1other","0","0","0","0","","1","22181"
"081519","15:01:27","808955607","67087604","5.0.14.0","1","1","end_of_study_questions_ifirst","awareness","0","0","0","0","a few","1","11609"
"081519","15:01:27","808955607","67087604","5.0.14.0","1","2","end_of_study_questions_ifirst","influence_general","0","0","0","0","more than half","1","9355"
"081519","15:01:27","808955607","67087604","5.0.14.0","1","3","end_of_study_questions_ifirst","intentionality","0","0","0","0","about half","1","4908"
"081519","15:01:27","808955607","67087604","5.0.14.0","1","4","end_of_study_questions_ifirst","unintentionality","0","0","0","0","more than half","1","4828"
"081519","15:01:27","808955607","67087604","5.0.14.0","1","5","end_of_study_questions_ifirst","self_exclusion_1","0","0","0","0","Yes, use my data","1","4621"
"081519","15:01:27","808955607","67087604","5.0.14.0","1","5","end_of_study_questions_ifirst","self_exclusion_1other","0","0","0","0","","1","4621"
"081519","14:02:05","307678497","857087693","5.0.14.0","1","1","end_of_study_questions_ufirst","awareness","0","0","0","0","a few","1","20481"
"081519","14:02:05","307678497","857087693","5.0.14.0","1","2","end_of_study_questions_ufirst","influence_general","0","0","0","0","a few","1","9109"
"081519","14:02:05","307678497","857087693","5.0.14.0","1","3","end_of_study_questions_ufirst","unintentionality","0","0","0","0","a few","1","8498"
"081519","14:02:05","307678497","857087693","5.0.14.0","1","4","end_of_study_questions_ufirst","intentionality","0","0","0","0","none","1","6532"
"081519","14:02:05","307678497","857087693","5.0.14.0","1","5","end_of_study_questions_ufirst","self_exclusion_1","0","0","0","0","Yes, use my data","1","22341"
"081519","14:02:05","307678497","857087693","5.0.14.0","1","5","end_of_study_questions_ufirst","self_exclusion_1other","0","0","0","0","","1","22341"
"081519","14:03:58","292578167","260796157","5.0.14.0","1","1","end_of_study_questions_ufirst","awareness","0","0","0","0","about half","1","12241"
"081519","14:03:58","292578167","260796157","5.0.14.0","1","2","end_of_study_questions_ufirst","influence_general","0","0","0","0","less than half","1","8189"
"081519","14:03:58","292578167","260796157","5.0.14.0","1","3","end_of_study_questions_ufirst","unintentionality","0","0","0","0","more than half","1","5792"
"081519","14:03:58","292578167","260796157","5.0.14.0","1","4","end_of_study_questions_ufirst","intentionality","0","0","0","0","a few","1","6501"
"081519","14:03:58","292578167","260796157","5.0.14.0","1","5","end_of_study_questions_ufirst","self_exclusion_1","0","0","0","0","Yes, use my data","1","8711"
"081519","14:03:58","292578167","260796157","5.0.14.0","1","5","end_of_study_questions_ufirst","self_exclusion_1other","0","0","0","0","","1","8711"
"081519","14:05:30","281342585","847411702","5.0.14.0","1","1","end_of_study_questions_ifirst","awareness","0","0","0","0","all","1","15522"
"081519","14:05:30","281342585","847411702","5.0.14.0","1","2","end_of_study_questions_ifirst","influence_general","0","0","0","0","most","1","8305"
"081519","14:05:30","281342585","847411702","5.0.14.0","1","3","end_of_study_questions_ifirst","intentionality","0","0","0","0","a few","1","13038"
"081519","14:05:30","281342585","847411702","5.0.14.0","1","4","end_of_study_questions_ifirst","unintentionality","0","0","0","0","most","1","4203"
"081519","14:05:30","281342585","847411702","5.0.14.0","1","5","end_of_study_questions_ifirst","self_exclusion_1","0","0","0","0","Yes, use my data","1","18675"
"081519","14:05:30","281342585","847411702","5.0.14.0","1","5","end_of_study_questions_ifirst","self_exclusion_1other","0","0","0","0","","1","18675"
"081519","14:06:07","277244085","854986156","5.0.14.0","1","1","end_of_study_questions_ifirst","awareness","0","0","0","0","all","1","19633"
"081519","14:06:07","277244085","854986156","5.0.14.0","1","2","end_of_study_questions_ifirst","influence_general","0","0","0","0","less than half","1","8552"
"081519","14:06:07","277244085","854986156","5.0.14.0","1","3","end_of_study_questions_ifirst","intentionality","0","0","0","0","about half","1","12766"
"081519","14:06:07","277244085","854986156","5.0.14.0","1","4","end_of_study_questions_ifirst","unintentionality","0","0","0","0","none","1","6597"
"081519","14:06:07","277244085","854986156","5.0.14.0","1","5","end_of_study_questions_ifirst","self_exclusion_1","0","0","0","0","No, exclude my data (please specify why):","1","70213"
"081519","14:06:07","277244085","854986156","5.0.14.0","1","5","end_of_study_questions_ifirst","self_exclusion_1other","0","0","0","0","The Chinese characters flashed up so quickly that I hardly saw them and did not feel that my judgment of whether they were appealing or not was valid.","1","70213"
"081519","14:09:07","637916829","701960702","5.0.14.0","1","1","end_of_study_questions_ifirst","awareness","0","0","0","0","all","1","30467"
"081519","14:09:07","637916829","701960702","5.0.14.0","1","2","end_of_study_questions_ifirst","influence_general","0","0","0","0","about half","1","8418"
"081519","14:09:07","637916829","701960702","5.0.14.0","1","3","end_of_study_questions_ifirst","intentionality","0","0","0","0","about half","1","64185"
"081519","14:09:07","637916829","701960702","5.0.14.0","1","4","end_of_study_questions_ifirst","unintentionality","0","0","0","0","a few","1","74577"
"081519","14:09:07","637916829","701960702","5.0.14.0","1","5","end_of_study_questions_ifirst","self_exclusion_1","0","0","0","0","Yes, use my data","1","7338"
"081519","14:09:07","637916829","701960702","5.0.14.0","1","5","end_of_study_questions_ifirst","self_exclusion_1other","0","0","0","0","","1","7338"
"081519","14:11:39","143607198","145805121","5.0.14.0","1","1","end_of_study_questions_ufirst","awareness","0","0","0","0","all","1","36527"
"081519","14:11:39","143607198","145805121","5.0.14.0","1","2","end_of_study_questions_ufirst","influence_general","0","0","0","0","a few","1","7292"
"081519","14:11:39","143607198","145805121","5.0.14.0","1","3","end_of_study_questions_ufirst","unintentionality","0","0","0","0","less than half","1","11076"
"081519","14:11:39","143607198","145805121","5.0.14.0","1","4","end_of_study_questions_ufirst","intentionality","0","0","0","0","none","1","8036"
"081519","14:11:39","143607198","145805121","5.0.14.0","1","5","end_of_study_questions_ufirst","self_exclusion_1","0","0","0","0","Yes, use my data","1","20398"
"081519","14:11:39","143607198","145805121","5.0.14.0","1","5","end_of_study_questions_ufirst","self_exclusion_1other","0","0","0","0","","1","20398"
"081519","14:12:03","316058845","509610385","5.0.14.0","1","1","end_of_study_questions_ufirst","awareness","0","0","0","0","all","1","24666"
"081519","14:12:03","316058845","509610385","5.0.14.0","1","2","end_of_study_questions_ufirst","influence_general","0","0","0","0","less than half","1","10898"
"081519","14:12:03","316058845","509610385","5.0.14.0","1","3","end_of_study_questions_ufirst","unintentionality","0","0","0","0","more than half","1","11175"
"081519","14:12:03","316058845","509610385","5.0.14.0","1","4","end_of_study_questions_ufirst","intentionality","0","0","0","0","a few","1","8285"
"081519","14:12:03","316058845","509610385","5.0.14.0","1","5","end_of_study_questions_ufirst","self_exclusion_1","0","0","0","0","Yes, use my data","1","21067"
"081519","14:12:03","316058845","509610385","5.0.14.0","1","5","end_of_study_questions_ufirst","self_exclusion_1other","0","0","0","0","","1","21067"
"081519","14:11:06","82419329","398919744","5.0.14.0","1","1","end_of_study_questions_ifirst","awareness","0","0","0","0","none","1","66036"
"081519","14:11:06","82419329","398919744","5.0.14.0","1","2","end_of_study_questions_ifirst","influence_general","0","0","0","0","a few","1","16675"
"081519","14:11:06","82419329","398919744","5.0.14.0","1","3","end_of_study_questions_ifirst","intentionality","0","0","0","0","a few","1","20354"
"081519","14:11:06","82419329","398919744","5.0.14.0","1","4","end_of_study_questions_ifirst","unintentionality","0","0","0","0","less than half","1","14152"
"081519","14:11:06","82419329","398919744","5.0.14.0","1","5","end_of_study_questions_ifirst","self_exclusion_1","0","0","0","0","Yes, use my data","1","23123"
"081519","14:11:06","82419329","398919744","5.0.14.0","1","5","end_of_study_questions_ifirst","self_exclusion_1other","0","0","0","0","","1","23123"
"081519","14:14:20","208741273","805837667","5.0.14.0","1","1","end_of_study_questions_ufirst","awareness","0","0","0","0","most","1","17380"
"081519","14:14:20","208741273","805837667","5.0.14.0","1","2","end_of_study_questions_ufirst","influence_general","0","0","0","0","a few","1","6262"
"081519","14:14:20","208741273","805837667","5.0.14.0","1","3","end_of_study_questions_ufirst","unintentionality","0","0","0","0","a few","1","8610"
"081519","14:14:20","208741273","805837667","5.0.14.0","1","4","end_of_study_questions_ufirst","intentionality","0","0","0","0","none","1","6733"
"081519","14:14:20","208741273","805837667","5.0.14.0","1","5","end_of_study_questions_ufirst","self_exclusion_1","0","0","0","0","Yes, use my data","1","6883"
"081519","14:14:20","208741273","805837667","5.0.14.0","1","5","end_of_study_questions_ufirst","self_exclusion_1other","0","0","0","0","","1","6883"
"081519","14:15:42","806367211","523976115","5.0.14.0","1","1","end_of_study_questions_ufirst","awareness","0","0","0","0","about half","1","26328"
"081519","14:15:42","806367211","523976115","5.0.14.0","1","2","end_of_study_questions_ufirst","influence_general","0","0","0","0","most","1","9083"
"081519","14:15:42","806367211","523976115","5.0.14.0","1","3","end_of_study_questions_ufirst","unintentionality","0","0","0","0","less than half","1","11077"
"081519","14:15:42","806367211","523976115","5.0.14.0","1","4","end_of_study_questions_ufirst","intentionality","0","0","0","0","a few","1","8689"
"081519","14:15:42","806367211","523976115","5.0.14.0","1","5","end_of_study_questions_ufirst","self_exclusion_1","0","0","0","0","Yes, use my data","1","24033"
"081519","14:15:42","806367211","523976115","5.0.14.0","1","5","end_of_study_questions_ufirst","self_exclusion_1other","0","0","0","0","","1","24033"
"081519","14:19:28","633880950","576500581","5.0.14.0","1","1","end_of_study_questions_ufirst","awareness","0","0","0","0","all","1","15829"
"081519","14:19:28","633880950","576500581","5.0.14.0","1","2","end_of_study_questions_ufirst","influence_general","0","0","0","0","about half","1","8600"
"081519","14:19:28","633880950","576500581","5.0.14.0","1","3","end_of_study_questions_ufirst","unintentionality","0","0","0","0","about half","1","11036"
"081519","14:19:28","633880950","576500581","5.0.14.0","1","4","end_of_study_questions_ufirst","intentionality","0","0","0","0","none","1","5590"
"081519","14:19:28","633880950","576500581","5.0.14.0","1","5","end_of_study_questions_ufirst","self_exclusion_1","0","0","0","0","Yes, use my data","1","24066"
"081519","14:19:28","633880950","576500581","5.0.14.0","1","5","end_of_study_questions_ufirst","self_exclusion_1other","0","0","0","0","","1","24066"
"081519","14:24:48","980236893","798235002","5.0.14.0","1","1","end_of_study_questions_ifirst","awareness","0","0","0","0","all","1","18985"
"081519","14:24:48","980236893","798235002","5.0.14.0","1","2","end_of_study_questions_ifirst","influence_general","0","0","0","0","more than half","1","4948"
"081519","14:24:48","980236893","798235002","5.0.14.0","1","3","end_of_study_questions_ifirst","intentionality","0","0","0","0","more than half","1","7580"
"081519","14:24:48","980236893","798235002","5.0.14.0","1","4","end_of_study_questions_ifirst","unintentionality","0","0","0","0","less than half","1","8222"
"081519","14:24:48","980236893","798235002","5.0.14.0","1","5","end_of_study_questions_ifirst","self_exclusion_1","0","0","0","0","Yes, use my data","1","4648"
"081519","14:24:48","980236893","798235002","5.0.14.0","1","5","end_of_study_questions_ifirst","self_exclusion_1other","0","0","0","0","","1","4648"
"081519","14:34:27","141624696","151802119","5.0.14.0","1","1","end_of_study_questions_ufirst","awareness","0","0","0","0","all","1","19883"
"081519","14:34:27","141624696","151802119","5.0.14.0","1","2","end_of_study_questions_ufirst","influence_general","0","0","0","0","about half","1","8394"
"081519","14:34:27","141624696","151802119","5.0.14.0","1","3","end_of_study_questions_ufirst","unintentionality","0","0","0","0","a few","1","9625"
"081519","14:34:27","141624696","151802119","5.0.14.0","1","4","end_of_study_questions_ufirst","intentionality","0","0","0","0","about half","1","9335"
"081519","14:34:27","141624696","151802119","5.0.14.0","1","5","end_of_study_questions_ufirst","self_exclusion_1","0","0","0","0","Yes, use my data","1","12506"
"081519","14:34:27","141624696","151802119","5.0.14.0","1","5","end_of_study_questions_ufirst","self_exclusion_1other","0","0","0","0","","1","12506"
"081519","14:41:53","792338542","654500905","5.0.14.0","1","1","end_of_study_questions_ufirst","awareness","0","0","0","0","all","1","10078"
"081519","14:41:53","792338542","654500905","5.0.14.0","1","2","end_of_study_questions_ufirst","influence_general","0","0","0","0","about half","1","4387"
"081519","14:41:53","792338542","654500905","5.0.14.0","1","3","end_of_study_questions_ufirst","unintentionality","0","0","0","0","more than half","1","4439"
"081519","14:41:53","792338542","654500905","5.0.14.0","1","4","end_of_study_questions_ufirst","intentionality","0","0","0","0","none","1","5930"
"081519","14:41:53","792338542","654500905","5.0.14.0","1","5","end_of_study_questions_ufirst","self_exclusion_1","0","0","0","0","Yes, use my data","1","3362"
"081519","14:41:53","792338542","654500905","5.0.14.0","1","5","end_of_study_questions_ufirst","self_exclusion_1other","0","0","0","0","","1","3362"
"081519","14:43:41","687409504","409302252","5.0.15.0","1","1","end_of_study_questions_ifirst","awareness","0","0","0","0","all","1","8787"
"081519","14:43:41","687409504","409302252","5.0.15.0","1","2","end_of_study_questions_ifirst","influence_general","0","0","0","0","most","1","5683"
"081519","14:43:41","687409504","409302252","5.0.15.0","1","3","end_of_study_questions_ifirst","intentionality","0","0","0","0","more than half","1","6235"
"081519","14:43:41","687409504","409302252","5.0.15.0","1","4","end_of_study_questions_ifirst","unintentionality","0","0","0","0","a few","1","9188"
"081519","14:43:41","687409504","409302252","5.0.15.0","1","5","end_of_study_questions_ifirst","self_exclusion_1","0","0","0","0","Yes, use my data","1","10487"
"081519","14:43:41","687409504","409302252","5.0.15.0","1","5","end_of_study_questions_ifirst","self_exclusion_1other","0","0","0","0","","1","10487"
"081519","14:43:45","211978748","892719115","5.0.14.0","1","1","end_of_study_questions_ufirst","awareness","0","0","0","0","all","1","21334"
"081519","14:43:45","211978748","892719115","5.0.14.0","1","2","end_of_study_questions_ufirst","influence_general","0","0","0","0","none","1","6890"
"081519","14:43:45","211978748","892719115","5.0.14.0","1","3","end_of_study_questions_ufirst","unintentionality","0","0","0","0","a few","1","8015"
"081519","14:43:45","211978748","892719115","5.0.14.0","1","4","end_of_study_questions_ufirst","intentionality","0","0","0","0","none","1","9326"
"081519","14:43:45","211978748","892719115","5.0.14.0","1","5","end_of_study_questions_ufirst","self_exclusion_1","0","0","0","0","Yes, use my data","1","13017"
"081519","14:43:45","211978748","892719115","5.0.14.0","1","5","end_of_study_questions_ufirst","self_exclusion_1other","0","0","0","0","","1","13017"
"081519","14:44:56","836083520","336442314","5.0.14.0","1","1","end_of_study_questions_ifirst","awareness","0","0","0","0","most","1","30568"
"081519","14:44:56","836083520","336442314","5.0.14.0","1","2","end_of_study_questions_ifirst","influence_general","0","0","0","0","most","1","6486"
"081519","14:44:56","836083520","336442314","5.0.14.0","1","3","end_of_study_questions_ifirst","intentionality","0","0","0","0","about half","1","21474"
"081519","14:44:56","836083520","336442314","5.0.14.0","1","4","end_of_study_questions_ifirst","unintentionality","0","0","0","0","about half","1","24706"
"081519","14:44:56","836083520","336442314","5.0.14.0","1","5","end_of_study_questions_ifirst","self_exclusion_1","0","0","0","0","Yes, use my data","1","10335"
"081519","14:44:56","836083520","336442314","5.0.14.0","1","5","end_of_study_questions_ifirst","self_exclusion_1other","0","0","0","0","","1","10335"
"081519","15:51:29","782779870","598651026","5.0.14.0","1","1","end_of_study_questions_ifirst","awareness","0","0","0","0","all","1","32455"
"081519","15:51:29","782779870","598651026","5.0.14.0","1","2","end_of_study_questions_ifirst","influence_general","0","0","0","0","about half","1","12902"
"081519","15:51:29","782779870","598651026","5.0.14.0","1","3","end_of_study_questions_ifirst","intentionality","0","0","0","0","about half","1","5876"
"081519","15:51:29","782779870","598651026","5.0.14.0","1","4","end_of_study_questions_ifirst","unintentionality","0","0","0","0","about half","1","6525"
"081519","15:51:29","782779870","598651026","5.0.14.0","1","5","end_of_study_questions_ifirst","self_exclusion_1","0","0","0","0","Yes, use my data","1","28724"
"081519","15:51:29","782779870","598651026","5.0.14.0","1","5","end_of_study_questions_ifirst","self_exclusion_1other","0","0","0","0","","1","28724"
