"date","time","subject","blockcode","blocknum","trialcode","trialnum","values.primestim","values.targetstim","correct","latency","trial.prime_positive.totalpercentcorrect","trial.prime_negative.totalpercentcorrect"
"081519","12:27:11","905579695","practice","1","prime_negative_practice","4","0","0","1","615","0","0"
"081519","12:27:11","905579695","practice","1","prime_negative_practice","5","0","0","1","1053","0","0"
"081519","12:27:11","905579695","practice","1","prime_positive_practice","6","0","0","0","638","0","0"
"081519","12:27:11","905579695","practice","1","prime_positive_practice","7","0","0","1","1176","0","0"
"081519","12:27:11","905579695","practice","1","prime_negative_practice","8","0","0","1","809","0","0"
"081519","12:27:11","905579695","practice","1","prime_negative_practice","9","0","0","1","763","0","0"
"081519","12:27:11","905579695","practice","1","prime_negative_practice","10","0","0","0","468","0","0"
"081519","12:27:11","905579695","practice","1","prime_positive_practice","11","0","0","0","482","0","0"
"081519","12:27:11","905579695","practice","1","prime_positive_practice","12","0","0","0","634","0","0"
"081519","12:27:11","905579695","practice","1","prime_positive_practice","13","0","0","0","763","0","0"
"081519","12:27:11","905579695","test","2","prime_positive","2","2","6","1","749","100","0"
"081519","12:27:11","905579695","test","2","prime_positive","3","12","60","1","537","100","0"
"081519","12:27:11","905579695","test","2","prime_positive","4","6","24","0","558","66","0"
"081519","12:27:11","905579695","test","2","prime_negative","5","3","32","1","533","66","100"
"081519","12:27:11","905579695","test","2","prime_positive","6","7","52","0","455","50","100"
"081519","12:27:11","905579695","test","2","prime_positive","7","11","69","0","339","40","100"
"081519","12:27:11","905579695","test","2","prime_negative","8","9","5","1","449","40","100"
"081519","12:27:11","905579695","test","2","prime_negative","9","11","26","1","340","40","100"
"081519","12:27:11","905579695","test","2","prime_positive","10","1","10","0","378","33","100"
"081519","12:27:11","905579695","test","2","prime_positive","11","9","67","0","354","28","100"
"081519","12:27:11","905579695","test","2","prime_negative","12","7","62","1","506","28","100"
"081519","12:27:11","905579695","test","2","prime_positive","13","6","12","1","641","37","100"
"081519","12:27:11","905579695","test","2","prime_negative","14","1","53","0","404","37","80"
"081519","12:27:11","905579695","test","2","prime_positive","15","12","37","1","446","44","80"
"081519","12:27:11","905579695","test","2","prime_negative","16","12","4","1","379","44","83"
"081519","12:27:11","905579695","test","2","prime_positive","17","9","36","1","501","50","83"
"081519","12:27:11","905579695","test","2","prime_negative","18","8","44","0","369","50","71"
"081519","12:27:11","905579695","test","2","prime_positive","19","11","25","0","352","45","71"
"081519","12:27:11","905579695","test","2","prime_negative","20","1","55","0","403","45","62"
"081519","12:27:11","905579695","test","2","prime_positive","21","10","71","0","488","41","62"
"081519","12:27:11","905579695","test","2","prime_negative","22","4","47","1","420","41","66"
"081519","12:27:11","905579695","test","2","prime_negative","23","7","29","1","477","41","70"
"081519","12:27:11","905579695","test","2","prime_negative","24","3","27","0","463","41","63"
"081519","12:27:11","905579695","test","2","prime_positive","25","8","64","0","650","38","63"
"081519","12:27:11","905579695","test","2","prime_negative","26","10","18","0","422","38","58"
"081519","12:27:11","905579695","test","2","prime_negative","27","12","34","1","433","38","61"
"081519","12:27:11","905579695","test","2","prime_positive","28","3","9","1","461","42","61"
"081519","12:27:11","905579695","test","2","prime_negative","29","5","49","1","474","42","64"
"081519","12:27:11","905579695","test","2","prime_negative","30","2","15","0","631","42","60"
"081519","12:27:11","905579695","test","2","prime_positive","31","5","40","0","466","40","60"
"081519","12:27:11","905579695","test","2","prime_positive","32","1","3","0","588","37","60"
"081519","12:27:11","905579695","test","2","prime_negative","33","11","14","0","698","37","56"
"081519","12:27:11","905579695","test","2","prime_negative","34","8","19","1","599","37","58"
"081519","12:27:11","905579695","test","2","prime_positive","35","4","42","1","616","41","58"
"081519","12:27:11","905579695","test","2","prime_negative","36","9","16","1","704","41","61"
"081519","12:27:11","905579695","test","2","prime_positive","37","7","63","1","1128","44","61"
"081519","12:27:11","905579695","test","2","prime_positive","38","2","72","1","680","47","61"
"081519","12:27:11","905579695","test","2","prime_negative","39","6","31","1","1850","47","63"
"081519","12:27:11","905579695","test","2","prime_positive","40","10","17","1","549","50","63"
"081519","12:27:11","905579695","test","2","prime_positive","41","12","35","0","387","47","63"
"081519","12:27:11","905579695","test","2","prime_negative","42","1","68","0","373","47","60"
"081519","12:27:11","905579695","test","2","prime_negative","43","12","39","0","471","47","57"
"081519","12:27:11","905579695","test","2","prime_negative","44","3","56","1","672","47","59"
"081519","12:27:11","905579695","test","2","prime_positive","45","2","45","1","477","50","59"
"081519","12:27:11","905579695","test","2","prime_positive","46","11","13","1","604","52","59"
"081519","12:27:11","905579695","test","2","prime_positive","47","5","28","0","357","50","59"
"081519","12:27:11","905579695","test","2","prime_negative","48","7","8","0","577","50","56"
"081519","12:27:11","905579695","test","2","prime_negative","49","6","30","0","546","50","54"
"081519","12:27:11","905579695","test","2","prime_negative","50","5","21","0","569","50","52"
"081519","12:27:11","905579695","test","2","prime_negative","51","10","70","1","428","50","53"
"081519","12:27:11","905579695","test","2","prime_positive","52","7","48","1","583","52","53"
"081519","12:27:11","905579695","test","2","prime_positive","53","9","22","1","522","53","53"
"081519","12:27:11","905579695","test","2","prime_positive","54","1","38","1","516","55","53"
"081519","12:27:11","905579695","test","2","prime_positive","55","4","54","1","544","57","53"
"081519","12:27:11","905579695","test","2","prime_negative","56","4","2","1","662","57","55"
"081519","12:27:11","905579695","test","2","prime_positive","57","3","20","1","476","58","55"
"081519","12:27:11","905579695","test","2","prime_positive","58","6","43","1","618","60","55"
"081519","12:27:11","905579695","test","2","prime_negative","59","8","57","1","578","60","57"
"081519","12:27:11","905579695","test","2","prime_negative","60","2","33","1","960","60","58"
"081519","12:27:11","905579695","test","2","prime_negative","61","9","11","0","905","60","56"
"081519","12:27:11","905579695","test","2","prime_positive","62","8","23","0","513","58","56"
"081519","12:27:11","905579695","test","2","prime_negative","63","11","65","0","700","58","54"
"081519","12:27:11","905579695","test","2","prime_positive","64","4","64","0","816","56","54"
"081519","12:27:11","905579695","test","2","prime_negative","65","11","21","0","871","56","53"
"081519","12:27:11","905579695","test","2","prime_negative","66","7","17","0","743","56","51"
"081519","12:27:11","905579695","test","2","prime_positive","67","7","6","0","647","54","51"
"081519","12:27:11","905579695","test","2","prime_positive","68","11","49","0","559","52","51"
"081519","12:27:11","905579695","test","2","prime_positive","69","6","3","1","737","54","51"
"081519","12:27:11","905579695","test","2","prime_negative","70","5","68","0","513","54","50"
"081519","12:27:11","905579695","test","2","prime_positive","71","8","9","0","770","52","50"
"081519","12:27:11","905579695","test","2","prime_negative","72","6","4","0","600","52","48"
"081519","12:27:11","905579695","test","2","prime_negative","73","10","51","1","526","52","50"
"081519","12:32:10","753217927","practice","1","prime_positive_practice","4","0","0","0","3416","0","0"
"081519","12:32:10","753217927","practice","1","prime_positive_practice","5","0","0","0","2145","0","0"
"081519","12:32:10","753217927","practice","1","prime_negative_practice","6","0","0","1","3697","0","0"
"081519","12:32:10","753217927","practice","1","prime_positive_practice","7","0","0","1","1183","0","0"
"081519","12:32:10","753217927","practice","1","prime_negative_practice","8","0","0","0","1409","0","0"
"081519","12:32:10","753217927","practice","1","prime_negative_practice","9","0","0","0","843","0","0"
"081519","12:32:10","753217927","practice","1","prime_negative_practice","10","0","0","0","864","0","0"
"081519","12:32:10","753217927","practice","1","prime_positive_practice","11","0","0","1","617","0","0"
"081519","12:32:10","753217927","practice","1","prime_negative_practice","12","0","0","1","994","0","0"
"081519","12:32:10","753217927","practice","1","prime_positive_practice","13","0","0","1","814","0","0"
"081519","12:32:10","753217927","test","2","prime_positive","2","3","32","0","824","0","0"
"081519","12:32:10","753217927","test","2","prime_negative","3","5","28","1","1406","0","100"
"081519","12:32:10","753217927","test","2","prime_positive","4","12","66","1","639","50","100"
"081519","12:32:10","753217927","test","2","prime_positive","5","7","31","0","752","33","100"
"081519","12:32:10","753217927","test","2","prime_negative","6","2","43","1","834","33","100"
"081519","12:32:10","753217927","test","2","prime_positive","7","2","34","1","1486","50","100"
"081519","12:32:10","753217927","test","2","prime_positive","8","4","20","1","927","60","100"
"081519","12:32:10","753217927","test","2","prime_positive","9","11","47","1","736","66","100"
"081519","12:32:10","753217927","test","2","prime_positive","10","8","36","1","702","71","100"
"081519","12:32:10","753217927","test","2","prime_positive","11","1","1","0","646","62","100"
"081519","12:32:10","753217927","test","2","prime_negative","12","12","9","1","671","62","100"
"081519","12:32:10","753217927","test","2","prime_positive","13","7","65","0","688","55","100"
"081519","12:32:10","753217927","test","2","prime_negative","14","9","41","1","576","55","100"
"081519","12:32:10","753217927","test","2","prime_negative","15","10","51","1","1102","55","100"
"081519","12:32:10","753217927","test","2","prime_negative","16","7","15","0","570","55","83"
"081519","12:32:10","753217927","test","2","prime_positive","17","9","26","0","1008","50","83"
"081519","12:32:10","753217927","test","2","prime_positive","18","8","52","1","521","54","83"
"081519","12:32:10","753217927","test","2","prime_positive","19","3","23","1","575","58","83"
"081519","12:32:10","753217927","test","2","prime_positive","20","6","49","1","653","61","83"
"081519","12:32:10","753217927","test","2","prime_positive","21","10","67","0","601","57","83"
"081519","12:32:10","753217927","test","2","prime_negative","22","11","5","0","782","57","71"
"081519","12:32:10","753217927","test","2","prime_negative","23","6","18","0","640","57","62"
"081519","12:32:10","753217927","test","2","prime_positive","24","11","45","0","640","53","62"
"081519","12:32:10","753217927","test","2","prime_positive","25","5","70","1","543","56","62"
"081519","12:32:10","753217927","test","2","prime_positive","26","4","29","1","472","58","62"
"081519","12:32:10","753217927","test","2","prime_positive","27","2","11","1","490","61","62"
"081519","12:32:10","753217927","test","2","prime_positive","28","12","35","1","518","63","62"
"081519","12:32:10","753217927","test","2","prime_positive","29","8","21","1","978","65","62"
"081519","12:32:10","753217927","test","2","prime_negative","30","5","4","0","479","65","55"
"081519","12:32:10","753217927","test","2","prime_negative","31","2","27","1","657","65","60"
"081519","12:32:10","753217927","test","2","prime_negative","32","11","56","0","990","65","54"
"081519","12:32:10","753217927","test","2","prime_positive","33","7","39","1","518","66","54"
"081519","12:32:10","753217927","test","2","prime_positive","34","2","30","1","825","68","54"
"081519","12:32:10","753217927","test","2","prime_negative","35","4","69","1","734","68","58"
"081519","12:32:10","753217927","test","2","prime_positive","36","1","13","1","538","69","58"
"081519","12:32:10","753217927","test","2","prime_negative","37","1","63","1","572","69","61"
"081519","12:32:10","753217927","test","2","prime_positive","38","10","3","1","472","70","61"
"081519","12:32:10","753217927","test","2","prime_negative","39","3","7","1","650","70","64"
"081519","12:32:10","753217927","test","2","prime_negative","40","8","10","0","498","70","60"
"081519","12:32:10","753217927","test","2","prime_positive","41","12","58","0","487","68","60"
"081519","12:32:10","753217927","test","2","prime_negative","42","12","37","1","609","68","62"
"081519","12:32:10","753217927","test","2","prime_positive","43","5","33","1","422","69","62"
"081519","12:32:10","753217927","test","2","prime_negative","44","7","12","0","447","69","58"
"081519","12:32:10","753217927","test","2","prime_positive","45","4","42","0","583","66","58"
"081519","12:32:10","753217927","test","2","prime_negative","46","10","54","1","529","66","61"
"081519","12:32:10","753217927","test","2","prime_positive","47","6","72","1","762","67","61"
"081519","12:32:10","753217927","test","2","prime_negative","48","9","68","1","428","67","63"
"081519","12:32:10","753217927","test","2","prime_negative","49","6","46","1","454","67","65"
"081519","12:32:10","753217927","test","2","prime_positive","50","3","48","0","571","65","65"
"081519","12:32:10","753217927","test","2","prime_negative","51","12","25","1","414","65","66"
"081519","12:32:10","753217927","test","2","prime_negative","52","9","8","1","482","65","68"
"081519","12:32:10","753217927","test","2","prime_positive","53","9","59","0","441","63","68"
"081519","12:32:10","753217927","test","2","prime_negative","54","5","55","0","828","63","65"
"081519","12:32:10","753217927","test","2","prime_negative","55","1","38","1","528","63","66"
"081519","12:32:10","753217927","test","2","prime_negative","56","2","6","1","482","63","68"
"081519","12:32:10","753217927","test","2","prime_negative","57","10","22","1","615","63","69"
"081519","12:32:10","753217927","test","2","prime_positive","58","11","24","1","495","64","69"
"081519","12:32:10","753217927","test","2","prime_negative","59","7","53","0","497","64","66"
"081519","12:32:10","753217927","test","2","prime_positive","60","8","14","0","419","62","66"
"081519","12:32:10","753217927","test","2","prime_negative","61","11","40","0","495","62","64"
"081519","12:32:10","753217927","test","2","prime_negative","62","3","64","0","382","62","62"
"081519","12:32:10","753217927","test","2","prime_negative","63","4","17","1","441","62","63"
"081519","12:32:10","753217927","test","2","prime_negative","64","8","17","1","306","62","64"
"081519","12:32:10","753217927","test","2","prime_negative","65","8","20","0","495","62","62"
"081519","12:32:10","753217927","test","2","prime_positive","66","5","65","0","448","60","62"
"081519","12:32:10","753217927","test","2","prime_negative","67","11","55","0","311","60","60"
"081519","12:32:10","753217927","test","2","prime_positive","68","6","49","0","316","58","60"
"081519","12:32:10","753217927","test","2","prime_negative","69","1","31","0","471","58","58"
"081519","12:32:10","753217927","test","2","prime_negative","70","6","64","0","512","58","57"
"081519","12:32:10","753217927","test","2","prime_positive","71","1","16","0","498","57","57"
"081519","12:32:10","753217927","test","2","prime_negative","72","7","62","0","500","57","55"
"081519","12:32:10","753217927","test","2","prime_positive","73","7","25","1","419","58","55"
"081519","12:44:48","265032689","practice","1","prime_positive_practice","4","0","0","0","7729","0","0"
"081519","12:44:48","265032689","practice","1","prime_positive_practice","5","0","0","0","4179","0","0"
"081519","12:44:48","265032689","practice","1","prime_positive_practice","6","0","0","1","1134","0","0"
"081519","12:44:48","265032689","practice","1","prime_negative_practice","7","0","0","0","1141","0","0"
"081519","12:44:48","265032689","practice","1","prime_positive_practice","8","0","0","1","571","0","0"
"081519","12:44:48","265032689","practice","1","prime_negative_practice","9","0","0","1","1025","0","0"
"081519","12:44:48","265032689","practice","1","prime_negative_practice","10","0","0","1","868","0","0"
"081519","12:44:48","265032689","practice","1","prime_negative_practice","11","0","0","0","1054","0","0"
"081519","12:44:48","265032689","practice","1","prime_positive_practice","12","0","0","1","441","0","0"
"081519","12:44:48","265032689","practice","1","prime_negative_practice","13","0","0","0","812","0","0"
"081519","12:44:48","265032689","test","2","prime_positive","2","6","30","1","1016","100","0"
"081519","12:44:48","265032689","test","2","prime_positive","3","5","15","1","580","100","0"
"081519","12:44:48","265032689","test","2","prime_positive","4","4","64","0","1393","66","0"
"081519","12:44:48","265032689","test","2","prime_negative","5","2","58","0","1381","66","0"
"081519","12:44:48","265032689","test","2","prime_negative","6","9","67","0","1474","66","0"
"081519","12:44:48","265032689","test","2","prime_negative","7","4","7","0","1084","66","0"
"081519","12:44:48","265032689","test","2","prime_negative","8","1","37","0","477","66","0"
"081519","12:44:48","265032689","test","2","prime_positive","9","11","49","1","902","75","0"
"081519","12:44:48","265032689","test","2","prime_negative","10","5","32","1","839","75","20"
"081519","12:44:48","265032689","test","2","prime_negative","11","3","12","0","809","75","16"
"081519","12:44:48","265032689","test","2","prime_negative","12","6","14","1","965","75","28"
"081519","12:44:48","265032689","test","2","prime_positive","13","1","69","0","971","60","28"
"081519","12:44:48","265032689","test","2","prime_negative","14","10","35","1","1009","60","37"
"081519","12:44:48","265032689","test","2","prime_negative","15","2","42","0","574","60","33"
"081519","12:44:48","265032689","test","2","prime_positive","16","12","61","1","795","66","33"
"081519","12:44:48","265032689","test","2","prime_negative","17","11","72","0","1473","66","30"
"081519","12:44:48","265032689","test","2","prime_negative","18","12","34","1","1082","66","36"
"081519","12:44:48","265032689","test","2","prime_positive","19","2","68","1","635","71","36"
"081519","12:44:48","265032689","test","2","prime_positive","20","7","10","1","711","75","36"
"081519","12:44:48","265032689","test","2","prime_negative","21","8","6","1","727","75","41"
"081519","12:44:48","265032689","test","2","prime_negative","22","4","38","0","687","75","38"
"081519","12:44:48","265032689","test","2","prime_negative","23","9","21","0","961","75","35"
"081519","12:44:48","265032689","test","2","prime_negative","24","6","3","0","959","75","33"
"081519","12:44:48","265032689","test","2","prime_positive","25","4","51","0","614","66","33"
"081519","12:44:48","265032689","test","2","prime_positive","26","10","65","1","803","70","33"
"081519","12:44:48","265032689","test","2","prime_positive","27","11","26","0","751","63","33"
"081519","12:44:48","265032689","test","2","prime_negative","28","5","63","0","1134","63","31"
"081519","12:44:48","265032689","test","2","prime_positive","29","12","53","1","733","66","31"
"081519","12:44:48","265032689","test","2","prime_negative","30","1","31","1","948","66","35"
"081519","12:44:48","265032689","test","2","prime_negative","31","3","43","1","747","66","38"
"081519","12:44:48","265032689","test","2","prime_negative","32","7","27","1","618","66","42"
"081519","12:44:48","265032689","test","2","prime_negative","33","5","25","1","662","66","45"
"081519","12:44:48","265032689","test","2","prime_positive","34","8","4","0","913","61","45"
"081519","12:44:48","265032689","test","2","prime_positive","35","5","54","1","642","64","45"
"081519","12:44:48","265032689","test","2","prime_negative","36","11","59","0","749","64","42"
"081519","12:44:48","265032689","test","2","prime_positive","37","9","39","1","652","66","42"
"081519","12:44:48","265032689","test","2","prime_positive","38","2","55","1","839","68","42"
"081519","12:44:48","265032689","test","2","prime_positive","39","3","41","0","762","64","42"
"081519","12:44:48","265032689","test","2","prime_negative","40","2","9","1","689","64","45"
"081519","12:44:48","265032689","test","2","prime_positive","41","1","29","1","554","66","45"
"081519","12:44:48","265032689","test","2","prime_negative","42","4","5","0","569","66","43"
"081519","12:44:48","265032689","test","2","prime_positive","43","6","45","0","535","63","43"
"081519","12:44:48","265032689","test","2","prime_negative","44","7","56","0","519","63","41"
"081519","12:44:48","265032689","test","2","prime_positive","45","5","20","0","463","60","41"
"081519","12:44:48","265032689","test","2","prime_positive","46","4","33","1","666","61","41"
"081519","12:44:48","265032689","test","2","prime_negative","47","8","71","0","548","61","40"
"081519","12:44:48","265032689","test","2","prime_positive","48","8","57","1","1035","63","40"
"081519","12:44:48","265032689","test","2","prime_positive","49","1","11","1","726","65","40"
"081519","12:44:48","265032689","test","2","prime_negative","50","3","36","1","542","65","42"
"081519","12:44:48","265032689","test","2","prime_positive","51","9","2","1","485","66","42"
"081519","12:44:48","265032689","test","2","prime_negative","52","9","44","1","951","66","44"
"081519","12:44:48","265032689","test","2","prime_positive","53","3","22","1","542","68","44"
"081519","12:44:48","265032689","test","2","prime_negative","54","12","17","1","405","68","46"
"081519","12:44:48","265032689","test","2","prime_positive","55","10","60","1","490","69","46"
"081519","12:44:48","265032689","test","2","prime_negative","56","6","13","1","1372","69","48"
"081519","12:44:48","265032689","test","2","prime_positive","57","7","50","0","529","66","48"
"081519","12:44:48","265032689","test","2","prime_negative","58","1","46","1","481","66","50"
"081519","12:44:48","265032689","test","2","prime_negative","59","10","16","0","627","66","48"
"081519","12:44:48","265032689","test","2","prime_negative","60","4","1","0","487","66","46"
"081519","12:44:48","265032689","test","2","prime_positive","61","6","70","1","409","67","46"
"081519","12:44:48","265032689","test","2","prime_positive","62","11","52","1","566","68","46"
"081519","12:44:48","265032689","test","2","prime_positive","63","2","18","0","604","66","46"
"081519","12:44:48","265032689","test","2","prime_positive","64","12","32","1","529","67","46"
"081519","12:44:48","265032689","test","2","prime_negative","65","7","60","1","521","67","48"
"081519","12:44:48","265032689","test","2","prime_positive","66","6","33","1","409","68","48"
"081519","12:44:48","265032689","test","2","prime_positive","67","1","49","1","406","69","48"
"081519","12:44:48","265032689","test","2","prime_positive","68","9","24","1","459","70","48"
"081519","12:44:48","265032689","test","2","prime_negative","69","1","20","0","446","70","47"
"081519","12:44:48","265032689","test","2","prime_negative","70","8","55","0","674","70","45"
"081519","12:44:48","265032689","test","2","prime_positive","71","5","71","0","508","68","45"
"081519","12:44:48","265032689","test","2","prime_negative","72","2","38","1","389","68","47"
"081519","12:44:48","265032689","test","2","prime_positive","73","7","27","1","418","69","47"
"081519","12:48:05","565504645","practice","1","prime_negative_practice","4","0","0","0","2898","0","0"
"081519","12:48:05","565504645","practice","1","prime_positive_practice","5","0","0","1","1071","0","0"
"081519","12:48:05","565504645","practice","1","prime_negative_practice","6","0","0","1","818","0","0"
"081519","12:48:05","565504645","practice","1","prime_negative_practice","7","0","0","0","1836","0","0"
"081519","12:48:05","565504645","practice","1","prime_positive_practice","8","0","0","1","650","0","0"
"081519","12:48:05","565504645","practice","1","prime_positive_practice","9","0","0","1","403","0","0"
"081519","12:48:05","565504645","practice","1","prime_positive_practice","10","0","0","1","723","0","0"
"081519","12:48:05","565504645","practice","1","prime_positive_practice","11","0","0","1","584","0","0"
"081519","12:48:05","565504645","practice","1","prime_negative_practice","12","0","0","1","963","0","0"
"081519","12:48:05","565504645","practice","1","prime_negative_practice","13","0","0","1","748","0","0"
"081519","12:48:05","565504645","test","2","prime_negative","2","8","35","1","2121","0","100"
"081519","12:48:05","565504645","test","2","prime_positive","3","9","46","1","626","100","100"
"081519","12:48:05","565504645","test","2","prime_positive","4","2","72","1","922","100","100"
"081519","12:48:05","565504645","test","2","prime_positive","5","5","61","0","826","66","100"
"081519","12:48:05","565504645","test","2","prime_negative","6","11","4","1","487","66","100"
"081519","12:48:05","565504645","test","2","prime_negative","7","9","58","1","585","66","100"
"081519","12:48:05","565504645","test","2","prime_negative","8","10","10","1","520","66","100"
"081519","12:48:05","565504645","test","2","prime_negative","9","6","65","1","520","66","100"
"081519","12:48:05","565504645","test","2","prime_positive","10","7","56","1","566","75","100"
"081519","12:48:05","565504645","test","2","prime_positive","11","8","25","1","362","80","100"
"081519","12:48:05","565504645","test","2","prime_positive","12","10","63","1","424","83","100"
"081519","12:48:05","565504645","test","2","prime_positive","13","3","42","1","691","85","100"
"081519","12:48:05","565504645","test","2","prime_positive","14","12","69","1","500","87","100"
"081519","12:48:05","565504645","test","2","prime_negative","15","7","33","1","702","87","100"
"081519","12:48:05","565504645","test","2","prime_negative","16","3","1","1","603","87","100"
"081519","12:48:05","565504645","test","2","prime_negative","17","12","17","1","778","87","100"
"081519","12:48:05","565504645","test","2","prime_positive","18","1","15","1","722","88","100"
"081519","12:48:05","565504645","test","2","prime_negative","19","7","32","1","545","88","100"
"081519","12:48:05","565504645","test","2","prime_negative","20","4","49","1","569","88","100"
"081519","12:48:05","565504645","test","2","prime_positive","21","10","44","1","857","90","100"
"081519","12:48:05","565504645","test","2","prime_negative","22","6","59","1","1941","90","100"
"081519","12:48:05","565504645","test","2","prime_negative","23","8","8","1","706","90","100"
"081519","12:48:05","565504645","test","2","prime_positive","24","3","57","1","604","90","100"
"081519","12:48:05","565504645","test","2","prime_negative","25","2","62","0","911","90","92"
"081519","12:48:05","565504645","test","2","prime_positive","26","2","31","1","413","91","92"
"081519","12:48:05","565504645","test","2","prime_negative","27","10","34","1","495","91","92"
"081519","12:48:05","565504645","test","2","prime_negative","28","5","3","1","616","91","93"
"081519","12:48:05","565504645","test","2","prime_negative","29","1","21","1","787","91","93"
"081519","12:48:05","565504645","test","2","prime_positive","30","9","27","1","712","92","93"
"081519","12:48:05","565504645","test","2","prime_negative","31","11","71","1","459","92","94"
"081519","12:48:05","565504645","test","2","prime_negative","32","9","29","1","496","92","94"
"081519","12:48:05","565504645","test","2","prime_positive","33","7","43","1","547","92","94"
"081519","12:48:05","565504645","test","2","prime_negative","34","3","30","1","528","92","94"
"081519","12:48:05","565504645","test","2","prime_negative","35","9","70","1","437","92","95"
"081519","12:48:05","565504645","test","2","prime_negative","36","8","20","0","529","92","90"
"081519","12:48:05","565504645","test","2","prime_positive","37","5","22","1","339","93","90"
"081519","12:48:05","565504645","test","2","prime_negative","38","12","36","0","556","93","86"
"081519","12:48:05","565504645","test","2","prime_negative","39","3","48","1","470","93","86"
"081519","12:48:05","565504645","test","2","prime_negative","40","6","67","1","536","93","87"
"081519","12:48:05","565504645","test","2","prime_positive","41","4","9","1","533","93","87"
"081519","12:48:05","565504645","test","2","prime_negative","42","7","60","1","422","93","88"
"081519","12:48:05","565504645","test","2","prime_negative","43","5","19","1","453","93","88"
"081519","12:48:05","565504645","test","2","prime_negative","44","11","39","0","609","93","85"
"081519","12:48:05","565504645","test","2","prime_positive","45","8","23","1","449","94","85"
"081519","12:48:05","565504645","test","2","prime_negative","46","2","54","0","416","94","82"
"081519","12:48:05","565504645","test","2","prime_negative","47","1","12","0","594","94","79"
"081519","12:48:05","565504645","test","2","prime_negative","48","10","28","1","441","94","80"
"081519","12:48:05","565504645","test","2","prime_positive","49","11","68","1","385","94","80"
"081519","12:48:05","565504645","test","2","prime_positive","50","6","6","1","382","94","80"
"081519","12:48:05","565504645","test","2","prime_positive","51","9","24","1","303","95","80"
"081519","12:48:05","565504645","test","2","prime_negative","52","4","37","1","917","95","80"
"081519","12:48:05","565504645","test","2","prime_positive","53","12","2","1","400","95","80"
"081519","12:48:05","565504645","test","2","prime_positive","54","6","40","1","273","95","80"
"081519","12:48:05","565504645","test","2","prime_negative","55","5","38","1","909","95","81"
"081519","12:48:05","565504645","test","2","prime_positive","56","4","55","1","306","95","81"
"081519","12:48:05","565504645","test","2","prime_negative","57","6","53","1","289","95","81"
"081519","12:48:05","565504645","test","2","prime_positive","58","11","18","1","243","95","81"
"081519","12:48:05","565504645","test","2","prime_positive","59","8","52","1","443","96","81"
"081519","12:48:05","565504645","test","2","prime_positive","60","5","47","1","261","96","81"
"081519","12:48:05","565504645","test","2","prime_positive","61","3","51","1","273","96","81"
"081519","12:48:05","565504645","test","2","prime_positive","62","7","50","1","339","96","81"
"081519","12:48:05","565504645","test","2","prime_positive","63","1","64","1","701","96","81"
"081519","12:48:05","565504645","test","2","prime_negative","64","8","1","1","527","96","82"
"081519","12:48:05","565504645","test","2","prime_positive","65","10","5","1","244","96","82"
"081519","12:48:05","565504645","test","2","prime_positive","66","2","22","1","180","96","82"
"081519","12:48:05","565504645","test","2","prime_positive","67","11","24","1","261","96","82"
"081519","12:48:05","565504645","test","2","prime_positive","68","3","53","1","215","96","82"
"081519","12:48:05","565504645","test","2","prime_positive","69","5","61","1","306","97","82"
"081519","12:48:05","565504645","test","2","prime_positive","70","9","55","1","246","97","82"
"081519","12:48:05","565504645","test","2","prime_negative","71","9","16","1","275","97","82"
"081519","12:48:05","565504645","test","2","prime_positive","72","1","27","1","328","97","82"
"081519","12:48:05","565504645","test","2","prime_negative","73","10","41","0","642","97","80"
"081519","12:50:10","288595434","practice","1","prime_positive_practice","4","0","0","0","1646","0","0"
"081519","12:50:10","288595434","practice","1","prime_negative_practice","5","0","0","0","2023","0","0"
"081519","12:50:10","288595434","practice","1","prime_positive_practice","6","0","0","0","1856","0","0"
"081519","12:50:10","288595434","practice","1","prime_negative_practice","7","0","0","0","1508","0","0"
"081519","12:50:10","288595434","practice","1","prime_positive_practice","8","0","0","0","642","0","0"
"081519","12:50:10","288595434","practice","1","prime_negative_practice","9","0","0","1","546","0","0"
"081519","12:50:10","288595434","practice","1","prime_positive_practice","10","0","0","0","548","0","0"
"081519","12:50:10","288595434","practice","1","prime_positive_practice","11","0","0","1","551","0","0"
"081519","12:50:10","288595434","practice","1","prime_negative_practice","12","0","0","1","366","0","0"
"081519","12:50:10","288595434","practice","1","prime_negative_practice","13","0","0","0","639","0","0"
"081519","12:50:10","288595434","test","2","prime_positive","2","9","59","0","1062","0","0"
"081519","12:50:10","288595434","test","2","prime_positive","3","8","65","1","485","50","0"
"081519","12:50:10","288595434","test","2","prime_positive","4","10","30","0","491","33","0"
"081519","12:50:10","288595434","test","2","prime_negative","5","2","14","1","657","33","100"
"081519","12:50:10","288595434","test","2","prime_negative","6","10","51","1","630","33","100"
"081519","12:50:10","288595434","test","2","prime_negative","7","5","54","1","1375","33","100"
"081519","12:50:10","288595434","test","2","prime_negative","8","8","42","0","618","33","75"
"081519","12:50:10","288595434","test","2","prime_negative","9","3","58","0","528","33","60"
"081519","12:50:10","288595434","test","2","prime_positive","10","2","71","1","547","50","60"
"081519","12:50:10","288595434","test","2","prime_negative","11","4","41","0","462","50","50"
"081519","12:50:10","288595434","test","2","prime_negative","12","7","17","0","587","50","42"
"081519","12:50:10","288595434","test","2","prime_positive","13","1","39","1","568","60","42"
"081519","12:50:10","288595434","test","2","prime_positive","14","5","46","1","354","66","42"
"081519","12:50:10","288595434","test","2","prime_negative","15","12","69","1","969","66","50"
"081519","12:50:10","288595434","test","2","prime_positive","16","6","57","1","504","71","50"
"081519","12:50:10","288595434","test","2","prime_positive","17","9","48","1","608","75","50"
"081519","12:50:10","288595434","test","2","prime_negative","18","8","38","0","306","75","44"
"081519","12:50:10","288595434","test","2","prime_negative","19","1","16","0","259","75","40"
"081519","12:50:10","288595434","test","2","prime_positive","20","3","22","1","308","77","40"
"081519","12:50:10","288595434","test","2","prime_negative","21","9","36","0","1294","77","36"
"081519","12:50:10","288595434","test","2","prime_negative","22","5","9","1","583","77","41"
"081519","12:50:10","288595434","test","2","prime_negative","23","6","68","0","1002","77","38"
"081519","12:50:10","288595434","test","2","prime_positive","24","7","67","1","416","80","38"
"081519","12:50:10","288595434","test","2","prime_negative","25","3","29","1","1028","80","42"
"081519","12:50:10","288595434","test","2","prime_negative","26","11","55","1","622","80","46"
"081519","12:50:10","288595434","test","2","prime_negative","27","4","15","0","557","80","43"
"081519","12:50:10","288595434","test","2","prime_negative","28","2","33","0","281","80","41"
"081519","12:50:10","288595434","test","2","prime_positive","29","10","53","1","876","81","41"
"081519","12:50:10","288595434","test","2","prime_negative","30","7","27","0","595","81","38"
"081519","12:50:10","288595434","test","2","prime_positive","31","6","35","1","646","83","38"
"081519","12:50:10","288595434","test","2","prime_negative","32","10","66","1","787","83","42"
"081519","12:50:10","288595434","test","2","prime_positive","33","12","25","0","705","76","42"
"081519","12:50:10","288595434","test","2","prime_positive","34","5","34","1","608","78","42"
"081519","12:50:10","288595434","test","2","prime_positive","35","11","4","1","569","80","42"
"081519","12:50:10","288595434","test","2","prime_negative","36","9","31","0","567","80","40"
"081519","12:50:10","288595434","test","2","prime_positive","37","2","5","1","490","81","40"
"081519","12:50:10","288595434","test","2","prime_negative","38","11","50","0","319","81","38"
"081519","12:50:10","288595434","test","2","prime_negative","39","3","63","0","155","81","36"
"081519","12:50:10","288595434","test","2","prime_positive","40","4","72","1","482","82","36"
"081519","12:50:10","288595434","test","2","prime_negative","41","1","10","0","127","82","34"
"081519","12:50:10","288595434","test","2","prime_positive","42","8","62","1","572","83","34"
"081519","12:50:10","288595434","test","2","prime_positive","43","1","70","1","208","84","34"
"081519","12:50:10","288595434","test","2","prime_negative","44","12","21","0","682","84","33"
"081519","12:50:10","288595434","test","2","prime_positive","45","1","61","1","301","85","33"
"081519","12:50:10","288595434","test","2","prime_positive","46","9","20","1","365","85","33"
"081519","12:50:10","288595434","test","2","prime_positive","47","7","12","1","278","86","33"
"081519","12:50:10","288595434","test","2","prime_negative","48","2","37","0","260","86","32"
"081519","12:50:10","288595434","test","2","prime_negative","49","8","43","0","396","86","30"
"081519","12:50:10","288595434","test","2","prime_negative","50","4","13","0","1286","86","29"
"081519","12:50:10","288595434","test","2","prime_positive","51","5","56","1","404","86","29"
"081519","12:50:10","288595434","test","2","prime_positive","52","2","44","0","1132","83","29"
"081519","12:50:10","288595434","test","2","prime_positive","53","6","26","1","326","84","29"
"081519","12:50:10","288595434","test","2","prime_negative","54","6","45","0","396","84","28"
"081519","12:50:10","288595434","test","2","prime_positive","55","8","18","0","1236","80","28"
"081519","12:50:10","288595434","test","2","prime_positive","56","3","32","1","354","81","28"
"081519","12:50:10","288595434","test","2","prime_positive","57","12","7","1","706","82","28"
"081519","12:50:10","288595434","test","2","prime_negative","58","5","28","1","359","82","31"
"081519","12:50:10","288595434","test","2","prime_positive","59","11","8","1","333","82","31"
"081519","12:50:10","288595434","test","2","prime_negative","60","10","19","0","564","82","30"
"081519","12:50:10","288595434","test","2","prime_negative","61","7","6","0","476","82","29"
"081519","12:50:10","288595434","test","2","prime_negative","62","8","40","0","183","82","28"
"081519","12:50:10","288595434","test","2","prime_positive","63","4","47","1","402","83","28"
"081519","12:50:10","288595434","test","2","prime_positive","64","10","18","1","217","83","28"
"081519","12:50:10","288595434","test","2","prime_positive","65","1","31","1","478","84","28"
"081519","12:50:10","288595434","test","2","prime_positive","66","3","37","1","686","84","28"
"081519","12:50:10","288595434","test","2","prime_positive","67","11","45","1","429","85","28"
"081519","12:50:10","288595434","test","2","prime_negative","68","10","14","0","249","85","27"
"081519","12:50:10","288595434","test","2","prime_positive","69","6","34","1","377","85","27"
"081519","12:50:10","288595434","test","2","prime_negative","70","5","30","0","322","85","26"
"081519","12:50:10","288595434","test","2","prime_negative","71","1","6","0","257","85","25"
"081519","12:50:10","288595434","test","2","prime_negative","72","6","53","0","257","85","25"
"081519","12:50:10","288595434","test","2","prime_positive","73","8","35","1","156","86","25"
"081519","23:52:15","306937639","practice","1","prime_negative_practice","4","0","0","0","7702","0","0"
"081519","23:52:15","306937639","practice","1","prime_positive_practice","5","0","0","0","2976","0","0"
"081519","23:52:15","306937639","practice","1","prime_positive_practice","6","0","0","0","865","0","0"
"081519","23:52:15","306937639","practice","1","prime_negative_practice","7","0","0","1","871","0","0"
"081519","23:52:15","306937639","practice","1","prime_negative_practice","8","0","0","1","1637","0","0"
"081519","23:52:15","306937639","practice","1","prime_negative_practice","9","0","0","0","1086","0","0"
"081519","23:52:15","306937639","practice","1","prime_negative_practice","10","0","0","0","771","0","0"
"081519","23:52:15","306937639","practice","1","prime_positive_practice","11","0","0","0","1230","0","0"
"081519","23:52:15","306937639","practice","1","prime_positive_practice","12","0","0","1","614","0","0"
"081519","23:52:15","306937639","practice","1","prime_positive_practice","13","0","0","0","1039","0","0"
"081519","23:52:15","306937639","test","2","prime_positive","2","10","57","1","1751","100","0"
"081519","23:52:15","306937639","test","2","prime_positive","3","7","34","1","1261","100","0"
"081519","23:52:15","306937639","test","2","prime_positive","4","9","46","1","1268","100","0"
"081519","23:52:15","306937639","test","2","prime_positive","5","12","61","1","713","100","0"
"081519","23:52:15","306937639","test","2","prime_negative","6","11","41","0","1958","100","0"
"081519","23:52:15","306937639","test","2","prime_negative","7","3","20","1","889","100","50"
"081519","23:52:15","306937639","test","2","prime_negative","8","5","13","0","2625","100","33"
"081519","23:52:15","306937639","test","2","prime_positive","9","11","70","1","747","100","33"
"081519","23:52:15","306937639","test","2","prime_negative","10","2","5","0","862","100","25"
"081519","23:52:15","306937639","test","2","prime_positive","11","4","60","0","966","83","25"
"081519","23:52:15","306937639","test","2","prime_positive","12","2","47","1","2600","85","25"
"081519","23:52:15","306937639","test","2","prime_negative","13","10","43","1","1169","85","40"
"081519","23:52:15","306937639","test","2","prime_negative","14","6","72","0","828","85","33"
"081519","23:52:15","306937639","test","2","prime_positive","15","2","21","0","3701","75","33"
"081519","23:52:15","306937639","test","2","prime_negative","16","1","67","1","857","75","42"
"081519","23:52:15","306937639","test","2","prime_negative","17","1","55","0","937","75","37"
"081519","23:52:15","306937639","test","2","prime_negative","18","2","69","0","966","75","33"
"081519","23:52:15","306937639","test","2","prime_negative","19","7","36","1","946","75","40"
"081519","23:52:15","306937639","test","2","prime_positive","20","6","23","0","449","66","40"
"081519","23:52:15","306937639","test","2","prime_positive","21","5","53","0","1116","60","40"
"081519","23:52:15","306937639","test","2","prime_negative","22","8","64","0","1009","60","36"
"081519","23:52:15","306937639","test","2","prime_negative","23","4","4","0","909","60","33"
"081519","23:52:15","306937639","test","2","prime_negative","24","6","48","0","1053","60","30"
"081519","23:52:15","306937639","test","2","prime_negative","25","5","49","1","798","60","35"
"081519","23:52:15","306937639","test","2","prime_positive","26","3","35","1","650","63","35"
"081519","23:52:15","306937639","test","2","prime_negative","27","9","27","1","493","63","40"
"081519","23:52:15","306937639","test","2","prime_negative","28","12","68","1","590","63","43"
"081519","23:52:15","306937639","test","2","prime_positive","29","11","71","1","1739","66","43"
"081519","23:52:15","306937639","test","2","prime_negative","30","3","40","1","729","66","47"
"081519","23:52:15","306937639","test","2","prime_negative","31","10","33","1","942","66","50"
"081519","23:52:15","306937639","test","2","prime_positive","32","12","54","1","515","69","50"
"081519","23:52:15","306937639","test","2","prime_positive","33","9","17","1","506","71","50"
"081519","23:52:15","306937639","test","2","prime_negative","34","11","22","1","611","71","52"
"081519","23:52:15","306937639","test","2","prime_negative","35","1","38","1","559","71","55"
"081519","23:52:15","306937639","test","2","prime_positive","36","1","12","0","1540","66","55"
"081519","23:52:15","306937639","test","2","prime_positive","37","4","10","0","583","62","55"
"081519","23:52:15","306937639","test","2","prime_positive","38","10","59","1","915","64","55"
"081519","23:52:15","306937639","test","2","prime_positive","39","8","3","0","811","61","55"
"081519","23:52:15","306937639","test","2","prime_negative","40","4","58","0","607","61","52"
"081519","23:52:15","306937639","test","2","prime_positive","41","7","24","0","1372","57","52"
"081519","23:52:15","306937639","test","2","prime_negative","42","7","56","0","538","57","50"
"081519","23:52:15","306937639","test","2","prime_negative","43","6","66","0","545","57","47"
"081519","23:52:15","306937639","test","2","prime_positive","44","1","39","1","688","60","47"
"081519","23:52:15","306937639","test","2","prime_negative","45","8","19","0","690","60","45"
"081519","23:52:15","306937639","test","2","prime_negative","46","11","15","1","1017","60","48"
"081519","23:52:15","306937639","test","2","prime_negative","47","9","45","0","716","60","46"
"081519","23:52:15","306937639","test","2","prime_negative","48","2","26","0","641","60","44"
"081519","23:52:15","306937639","test","2","prime_positive","49","2","51","0","811","57","44"
"081519","23:52:15","306937639","test","2","prime_negative","50","12","14","0","656","57","42"
"081519","23:52:15","306937639","test","2","prime_positive","51","4","29","1","529","59","42"
"081519","23:52:15","306937639","test","2","prime_positive","52","12","44","1","750","60","42"
"081519","23:52:15","306937639","test","2","prime_positive","53","6","2","0","435","58","42"
"081519","23:52:15","306937639","test","2","prime_positive","54","8","1","0","942","56","42"
"081519","23:52:15","306937639","test","2","prime_positive","55","9","37","0","907","53","42"
"081519","23:52:15","306937639","test","2","prime_positive","56","3","42","0","824","51","42"
"081519","23:52:15","306937639","test","2","prime_negative","57","3","62","0","1548","51","41"
"081519","23:52:15","306937639","test","2","prime_positive","58","7","52","0","611","50","41"
"081519","23:52:15","306937639","test","2","prime_positive","59","10","6","1","437","51","41"
"081519","23:52:15","306937639","test","2","prime_negative","60","5","30","0","439","51","40"
"081519","23:52:15","306937639","test","2","prime_positive","61","11","25","1","673","53","40"
"081519","23:52:15","306937639","test","2","prime_negative","62","10","11","1","721","53","41"
"081519","23:52:15","306937639","test","2","prime_positive","63","5","63","1","640","54","41"
"081519","23:52:15","306937639","test","2","prime_negative","64","8","60","0","354","54","40"
"081519","23:52:15","306937639","test","2","prime_positive","65","9","67","1","889","56","40"
"081519","23:52:15","306937639","test","2","prime_negative","66","11","21","1","1042","56","42"
"081519","23:52:15","306937639","test","2","prime_positive","67","1","49","1","414","57","42"
"081519","23:52:15","306937639","test","2","prime_negative","68","6","8","0","889","57","41"
"081519","23:52:15","306937639","test","2","prime_positive","69","11","65","0","794","55","41"
"081519","23:52:15","306937639","test","2","prime_negative","70","9","6","1","736","55","42"
"081519","23:52:15","306937639","test","2","prime_positive","71","6","15","0","608","54","42"
"081519","23:52:15","306937639","test","2","prime_positive","72","10","61","1","1172","55","42"
"081519","23:52:15","306937639","test","2","prime_negative","73","5","1","0","362","55","41"
"081519","12:58:57","151750430","practice","1","prime_negative_practice","4","0","0","1","1373","0","0"
"081519","12:58:57","151750430","practice","1","prime_positive_practice","5","0","0","1","1218","0","0"
"081519","12:58:57","151750430","practice","1","prime_negative_practice","6","0","0","0","696","0","0"
"081519","12:58:57","151750430","practice","1","prime_negative_practice","7","0","0","0","604","0","0"
"081519","12:58:57","151750430","practice","1","prime_positive_practice","8","0","0","0","938","0","0"
"081519","12:58:57","151750430","practice","1","prime_negative_practice","9","0","0","1","1212","0","0"
"081519","12:58:57","151750430","practice","1","prime_positive_practice","10","0","0","1","633","0","0"
"081519","12:58:57","151750430","practice","1","prime_positive_practice","11","0","0","0","1034","0","0"
"081519","12:58:57","151750430","practice","1","prime_positive_practice","12","0","0","0","693","0","0"
"081519","12:58:57","151750430","practice","1","prime_negative_practice","13","0","0","0","810","0","0"
"081519","12:58:57","151750430","test","2","prime_positive","2","5","24","1","673","100","0"
"081519","12:58:57","151750430","test","2","prime_positive","3","4","59","1","528","100","0"
"081519","12:58:57","151750430","test","2","prime_negative","4","1","71","1","642","100","100"
"081519","12:58:57","151750430","test","2","prime_positive","5","3","68","1","610","100","100"
"081519","12:58:57","151750430","test","2","prime_positive","6","1","7","0","455","75","100"
"081519","12:58:57","151750430","test","2","prime_negative","7","10","37","0","391","75","50"
"081519","12:58:57","151750430","test","2","prime_negative","8","4","56","0","633","75","33"
"081519","12:58:57","151750430","test","2","prime_positive","9","6","25","0","706","60","33"
"081519","12:58:57","151750430","test","2","prime_negative","10","3","12","0","571","60","25"
"081519","12:58:57","151750430","test","2","prime_positive","11","7","69","1","373","66","25"
"081519","12:58:57","151750430","test","2","prime_positive","12","8","6","1","619","71","25"
"081519","12:58:57","151750430","test","2","prime_positive","13","6","8","1","473","75","25"
"081519","12:58:57","151750430","test","2","prime_negative","14","7","67","1","900","75","40"
"081519","12:58:57","151750430","test","2","prime_positive","15","9","33","1","779","77","40"
"081519","12:58:57","151750430","test","2","prime_positive","16","11","65","0","589","70","40"
"081519","12:58:57","151750430","test","2","prime_negative","17","2","47","0","595","70","33"
"081519","12:58:57","151750430","test","2","prime_negative","18","9","52","0","645","70","28"
"081519","12:58:57","151750430","test","2","prime_positive","19","5","17","1","591","72","28"
"081519","12:58:57","151750430","test","2","prime_positive","20","3","39","1","383","75","28"
"081519","12:58:57","151750430","test","2","prime_positive","21","2","63","1","804","76","28"
"081519","12:58:57","151750430","test","2","prime_negative","22","11","26","1","457","76","37"
"081519","12:58:57","151750430","test","2","prime_negative","23","8","3","1","786","76","44"
"081519","12:58:57","151750430","test","2","prime_negative","24","6","29","0","701","76","40"
"081519","12:58:57","151750430","test","2","prime_negative","25","1","64","0","446","76","36"
"081519","12:58:57","151750430","test","2","prime_negative","26","3","35","1","781","76","41"
"081519","12:58:57","151750430","test","2","prime_positive","27","8","22","1","661","78","41"
"081519","12:58:57","151750430","test","2","prime_negative","28","5","55","0","902","78","38"
"081519","12:58:57","151750430","test","2","prime_negative","29","9","38","0","416","78","35"
"081519","12:58:57","151750430","test","2","prime_negative","30","4","16","0","546","78","33"
"081519","12:58:57","151750430","test","2","prime_positive","31","4","9","1","551","80","33"
"081519","12:58:57","151750430","test","2","prime_negative","32","2","48","0","372","80","31"
"081519","12:58:57","151750430","test","2","prime_positive","33","7","21","0","327","75","31"
"081519","12:58:57","151750430","test","2","prime_positive","34","1","13","1","357","76","31"
"081519","12:58:57","151750430","test","2","prime_positive","35","12","46","1","462","77","31"
"081519","12:58:57","151750430","test","2","prime_negative","36","10","42","0","451","77","29"
"081519","12:58:57","151750430","test","2","prime_negative","37","7","66","0","446","77","27"
"081519","12:58:57","151750430","test","2","prime_negative","38","12","40","0","371","77","26"
"081519","12:58:57","151750430","test","2","prime_negative","39","5","36","0","401","77","25"
"081519","12:58:57","151750430","test","2","prime_positive","40","10","11","1","470","78","25"
"081519","12:58:57","151750430","test","2","prime_positive","41","3","62","1","327","80","25"
"081519","12:58:57","151750430","test","2","prime_negative","42","12","70","0","466","80","23"
"081519","12:58:57","151750430","test","2","prime_negative","43","1","53","0","317","80","22"
"081519","12:58:57","151750430","test","2","prime_negative","44","9","31","0","523","80","21"
"081519","12:58:57","151750430","test","2","prime_negative","45","8","19","0","315","80","20"
"081519","12:58:57","151750430","test","2","prime_positive","46","6","30","0","357","76","20"
"081519","12:58:57","151750430","test","2","prime_positive","47","10","41","0","294","72","20"
"081519","12:58:57","151750430","test","2","prime_positive","48","2","15","1","270","73","20"
"081519","12:58:57","151750430","test","2","prime_negative","49","11","14","0","192","73","20"
"081519","12:58:57","151750430","test","2","prime_positive","50","9","72","0","259","70","20"
"081519","12:58:57","151750430","test","2","prime_negative","51","2","18","0","314","70","19"
"081519","12:58:57","151750430","test","2","prime_negative","52","7","28","0","463","70","18"
"081519","12:58:57","151750430","test","2","prime_positive","53","1","49","0","687","68","18"
"081519","12:58:57","151750430","test","2","prime_positive","54","12","5","1","419","69","18"
"081519","12:58:57","151750430","test","2","prime_positive","55","4","44","1","325","70","18"
"081519","12:58:57","151750430","test","2","prime_negative","56","10","45","1","327","70","21"
"081519","12:58:57","151750430","test","2","prime_positive","57","5","61","1","391","71","21"
"081519","12:58:57","151750430","test","2","prime_negative","58","4","20","1","503","71","24"
"081519","12:58:57","151750430","test","2","prime_positive","59","7","10","1","893","72","24"
"081519","12:58:57","151750430","test","2","prime_positive","60","8","4","1","1183","73","24"
"081519","12:58:57","151750430","test","2","prime_negative","61","6","34","1","378","73","26"
"081519","12:58:57","151750430","test","2","prime_negative","62","3","32","1","425","73","29"
"081519","12:58:57","151750430","test","2","prime_positive","63","11","60","0","601","70","29"
"081519","12:58:57","151750430","test","2","prime_positive","64","1","37","0","326","68","29"
"081519","12:58:57","151750430","test","2","prime_negative","65","5","19","0","486","68","28"
"081519","12:58:57","151750430","test","2","prime_negative","66","4","64","1","329","68","30"
"081519","12:58:57","151750430","test","2","prime_negative","67","9","28","1","452","68","32"
"081519","12:58:57","151750430","test","2","prime_positive","68","4","40","0","323","66","32"
"081519","12:58:57","151750430","test","2","prime_positive","69","11","22","1","303","67","32"
"081519","12:58:57","151750430","test","2","prime_positive","70","10","47","1","881","68","32"
"081519","12:58:57","151750430","test","2","prime_positive","71","9","61","1","590","69","32"
"081519","12:58:57","151750430","test","2","prime_negative","72","1","65","0","177","69","31"
"081519","12:58:57","151750430","test","2","prime_negative","73","12","20","0","243","69","30"
"081519","12:58:45","70921114","practice","1","prime_positive_practice","4","0","0","0","1334","0","0"
"081519","12:58:45","70921114","practice","1","prime_positive_practice","5","0","0","1","612","0","0"
"081519","12:58:45","70921114","practice","1","prime_negative_practice","6","0","0","0","402","0","0"
"081519","12:58:45","70921114","practice","1","prime_positive_practice","7","0","0","1","750","0","0"
"081519","12:58:45","70921114","practice","1","prime_negative_practice","8","0","0","0","520","0","0"
"081519","12:58:45","70921114","practice","1","prime_positive_practice","9","0","0","1","401","0","0"
"081519","12:58:45","70921114","practice","1","prime_negative_practice","10","0","0","1","566","0","0"
"081519","12:58:45","70921114","practice","1","prime_positive_practice","11","0","0","1","469","0","0"
"081519","12:58:45","70921114","practice","1","prime_negative_practice","12","0","0","1","583","0","0"
"081519","12:58:45","70921114","practice","1","prime_negative_practice","13","0","0","0","537","0","0"
"081519","12:58:45","70921114","test","2","prime_positive","2","1","57","1","812","100","0"
"081519","12:58:45","70921114","test","2","prime_negative","3","1","60","1","375","100","100"
"081519","12:58:45","70921114","test","2","prime_positive","4","2","30","1","776","100","100"
"081519","12:58:45","70921114","test","2","prime_negative","5","2","21","1","464","100","100"
"081519","12:58:45","70921114","test","2","prime_positive","6","5","63","0","428","66","100"
"081519","12:58:45","70921114","test","2","prime_negative","7","3","61","1","517","66","100"
"081519","12:58:45","70921114","test","2","prime_positive","8","12","71","1","657","75","100"
"081519","12:58:45","70921114","test","2","prime_negative","9","10","72","0","560","75","75"
"081519","12:58:45","70921114","test","2","prime_positive","10","7","33","1","318","80","75"
"081519","12:58:45","70921114","test","2","prime_negative","11","11","19","1","782","80","80"
"081519","12:58:45","70921114","test","2","prime_negative","12","9","65","1","464","80","83"
"081519","12:58:45","70921114","test","2","prime_positive","13","8","70","0","719","66","83"
"081519","12:58:45","70921114","test","2","prime_negative","14","8","64","1","555","66","85"
"081519","12:58:45","70921114","test","2","prime_positive","15","4","66","1","651","71","85"
"081519","12:58:45","70921114","test","2","prime_negative","16","4","23","1","704","71","87"
"081519","12:58:45","70921114","test","2","prime_positive","17","6","15","1","806","75","87"
"081519","12:58:45","70921114","test","2","prime_positive","18","4","31","1","730","77","87"
"081519","12:58:45","70921114","test","2","prime_positive","19","9","18","0","801","70","87"
"081519","12:58:45","70921114","test","2","prime_positive","20","10","43","1","672","72","87"
"081519","12:58:45","70921114","test","2","prime_positive","21","8","17","0","849","66","87"
"081519","12:58:45","70921114","test","2","prime_negative","22","10","20","1","345","66","88"
"081519","12:58:45","70921114","test","2","prime_negative","23","6","53","1","936","66","90"
"081519","12:58:45","70921114","test","2","prime_positive","24","7","29","0","838","61","90"
"081519","12:58:45","70921114","test","2","prime_positive","25","12","38","1","853","64","90"
"081519","12:58:45","70921114","test","2","prime_positive","26","1","52","1","678","66","90"
"081519","12:58:45","70921114","test","2","prime_positive","27","5","55","0","887","62","90"
"081519","12:58:45","70921114","test","2","prime_positive","28","3","44","0","956","58","90"
"081519","12:58:45","70921114","test","2","prime_positive","29","11","25","1","509","61","90"
"081519","12:58:45","70921114","test","2","prime_negative","30","2","62","1","585","61","90"
"081519","12:58:45","70921114","test","2","prime_positive","31","2","69","0","855","57","90"
"081519","12:58:45","70921114","test","2","prime_negative","32","12","42","0","964","57","83"
"081519","12:58:45","70921114","test","2","prime_negative","33","9","16","0","872","57","76"
"081519","12:58:45","70921114","test","2","prime_negative","34","7","67","1","652","57","78"
"081519","12:58:45","70921114","test","2","prime_positive","35","4","32","1","577","60","78"
"081519","12:58:45","70921114","test","2","prime_positive","36","5","54","1","461","61","78"
"081519","12:58:45","70921114","test","2","prime_negative","37","1","7","1","507","61","80"
"081519","12:58:45","70921114","test","2","prime_positive","38","8","8","0","733","59","80"
"081519","12:58:45","70921114","test","2","prime_negative","39","11","27","1","418","59","81"
"081519","12:58:45","70921114","test","2","prime_positive","40","6","34","0","587","56","81"
"081519","12:58:45","70921114","test","2","prime_positive","41","11","39","1","359","58","81"
"081519","12:58:45","70921114","test","2","prime_negative","42","8","9","0","752","58","76"
"081519","12:58:45","70921114","test","2","prime_negative","43","5","11","1","403","58","77"
"081519","12:58:45","70921114","test","2","prime_positive","44","7","59","0","624","56","77"
"081519","12:58:45","70921114","test","2","prime_negative","45","3","4","1","858","56","78"
"081519","12:58:45","70921114","test","2","prime_positive","46","2","49","1","510","57","78"
"081519","12:58:45","70921114","test","2","prime_positive","47","1","28","0","860","55","78"
"081519","12:58:45","70921114","test","2","prime_negative","48","2","14","1","389","55","80"
"081519","12:58:45","70921114","test","2","prime_positive","49","12","58","1","693","57","80"
"081519","12:58:45","70921114","test","2","prime_positive","50","3","3","1","508","58","80"
"081519","12:58:45","70921114","test","2","prime_negative","51","7","12","0","460","58","76"
"081519","12:58:45","70921114","test","2","prime_negative","52","12","41","1","428","58","77"
"081519","12:58:45","70921114","test","2","prime_negative","53","8","40","1","628","58","78"
"081519","12:58:45","70921114","test","2","prime_positive","54","9","50","0","864","56","78"
"081519","12:58:45","70921114","test","2","prime_positive","55","10","13","1","896","58","78"
"081519","12:58:45","70921114","test","2","prime_positive","56","5","51","0","876","56","78"
"081519","12:58:45","70921114","test","2","prime_positive","57","10","48","1","466","57","78"
"081519","12:58:45","70921114","test","2","prime_negative","58","6","22","0","585","57","75"
"081519","12:58:45","70921114","test","2","prime_negative","59","1","47","1","556","57","76"
"081519","12:58:45","70921114","test","2","prime_negative","60","4","2","1","509","57","76"
"081519","12:58:45","70921114","test","2","prime_positive","61","12","1","1","620","58","76"
"081519","12:58:45","70921114","test","2","prime_negative","62","10","36","1","514","58","77"
"081519","12:58:45","70921114","test","2","prime_negative","63","9","10","0","573","58","75"
"081519","12:58:45","70921114","test","2","prime_negative","64","3","18","0","853","58","72"
"081519","12:58:45","70921114","test","2","prime_negative","65","5","37","1","732","58","73"
"081519","12:58:45","70921114","test","2","prime_negative","66","11","22","1","781","58","74"
"081519","12:58:45","70921114","test","2","prime_negative","67","8","46","1","831","58","75"
"081519","12:58:45","70921114","test","2","prime_negative","68","4","8","1","787","58","75"
"081519","12:58:45","70921114","test","2","prime_positive","69","4","2","1","673","60","75"
"081519","12:58:45","70921114","test","2","prime_negative","70","7","51","1","889","60","76"
"081519","12:58:45","70921114","test","2","prime_negative","71","9","58","0","491","60","74"
"081519","12:58:45","70921114","test","2","prime_positive","72","11","27","1","1602","61","74"
"081519","12:58:45","70921114","test","2","prime_negative","73","5","67","0","889","61","72"
"081519","13:01:36","913814467","practice","1","prime_negative_practice","4","0","0","0","5873","0","0"
"081519","13:01:36","913814467","practice","1","prime_positive_practice","5","0","0","1","5212","0","0"
"081519","13:01:36","913814467","practice","1","prime_positive_practice","6","0","0","0","1036","0","0"
"081519","13:01:36","913814467","practice","1","prime_negative_practice","7","0","0","1","997","0","0"
"081519","13:01:36","913814467","practice","1","prime_negative_practice","8","0","0","1","1127","0","0"
"081519","13:01:36","913814467","practice","1","prime_positive_practice","9","0","0","0","898","0","0"
"081519","13:01:36","913814467","practice","1","prime_negative_practice","10","0","0","1","1175","0","0"
"081519","13:01:36","913814467","practice","1","prime_negative_practice","11","0","0","1","1204","0","0"
"081519","13:01:36","913814467","practice","1","prime_positive_practice","12","0","0","1","1449","0","0"
"081519","13:01:36","913814467","practice","1","prime_positive_practice","13","0","0","0","1397","0","0"
"081519","13:01:36","913814467","test","2","prime_positive","2","9","67","0","1570","0","0"
"081519","13:01:36","913814467","test","2","prime_positive","3","7","49","1","821","50","0"
"081519","13:01:36","913814467","test","2","prime_positive","4","12","14","1","1516","66","0"
"081519","13:01:36","913814467","test","2","prime_positive","5","2","53","0","795","50","0"
"081519","13:01:36","913814467","test","2","prime_positive","6","8","20","0","1369","40","0"
"081519","13:01:36","913814467","test","2","prime_negative","7","6","16","0","1064","40","0"
"081519","13:01:36","913814467","test","2","prime_positive","8","1","5","1","969","50","0"
"081519","13:01:36","913814467","test","2","prime_negative","9","12","45","0","1269","50","0"
"081519","13:01:36","913814467","test","2","prime_negative","10","1","11","1","829","50","33"
"081519","13:01:36","913814467","test","2","prime_positive","11","5","52","0","654","42","33"
"081519","13:01:36","913814467","test","2","prime_positive","12","7","6","0","1156","37","33"
"081519","13:01:36","913814467","test","2","prime_negative","13","10","13","1","976","37","50"
"081519","13:01:36","913814467","test","2","prime_positive","14","4","72","1","664","44","50"
"081519","13:01:36","913814467","test","2","prime_positive","15","3","21","1","587","50","50"
"081519","13:01:36","913814467","test","2","prime_negative","16","11","54","1","515","50","60"
"081519","13:01:36","913814467","test","2","prime_positive","17","2","17","1","504","54","60"
"081519","13:01:36","913814467","test","2","prime_positive","18","10","34","0","603","50","60"
"081519","13:01:36","913814467","test","2","prime_negative","19","8","8","0","574","50","50"
"081519","13:01:36","913814467","test","2","prime_negative","20","5","68","0","639","50","42"
"081519","13:01:36","913814467","test","2","prime_negative","21","4","58","0","816","50","37"
"081519","13:01:36","913814467","test","2","prime_negative","22","1","1","0","593","50","33"
"081519","13:01:36","913814467","test","2","prime_positive","23","12","66","1","523","53","33"
"081519","13:01:36","913814467","test","2","prime_negative","24","3","29","1","604","53","40"
"081519","13:01:36","913814467","test","2","prime_positive","25","5","47","0","439","50","40"
"081519","13:01:36","913814467","test","2","prime_negative","26","5","42","0","659","50","36"
"081519","13:01:36","913814467","test","2","prime_positive","27","1","7","0","559","46","36"
"081519","13:01:36","913814467","test","2","prime_negative","28","12","30","0","567","46","33"
"081519","13:01:36","913814467","test","2","prime_negative","29","2","55","0","834","46","30"
"081519","13:01:36","913814467","test","2","prime_positive","30","11","10","0","457","43","30"
"081519","13:01:36","913814467","test","2","prime_positive","31","9","15","0","463","41","30"
"081519","13:01:36","913814467","test","2","prime_positive","32","8","35","0","651","38","30"
"081519","13:01:36","913814467","test","2","prime_positive","33","6","36","1","622","42","30"
"081519","13:01:36","913814467","test","2","prime_negative","34","9","59","0","575","42","28"
"081519","13:01:36","913814467","test","2","prime_positive","35","3","50","0","658","40","28"
"081519","13:01:36","913814467","test","2","prime_negative","36","7","69","0","570","40","26"
"081519","13:01:36","913814467","test","2","prime_positive","37","11","27","1","528","42","26"
"081519","13:01:36","913814467","test","2","prime_positive","38","5","25","0","423","40","26"
"081519","13:01:36","913814467","test","2","prime_negative","39","6","70","0","742","40","25"
"081519","13:01:36","913814467","test","2","prime_positive","40","2","26","0","488","39","25"
"081519","13:01:36","913814467","test","2","prime_negative","41","8","37","0","674","39","23"
"081519","13:01:36","913814467","test","2","prime_positive","42","7","63","0","543","37","23"
"081519","13:01:36","913814467","test","2","prime_negative","43","10","4","0","436","37","22"
"081519","13:01:36","913814467","test","2","prime_negative","44","11","43","0","1165","37","21"
"081519","13:01:36","913814467","test","2","prime_negative","45","8","31","0","451","37","20"
"081519","13:01:36","913814467","test","2","prime_negative","46","10","39","1","403","37","23"
"081519","13:01:36","913814467","test","2","prime_negative","47","9","3","0","699","37","22"
"081519","13:01:36","913814467","test","2","prime_positive","48","8","40","0","558","36","22"
"081519","13:01:36","913814467","test","2","prime_positive","49","9","38","0","643","34","22"
"081519","13:01:36","913814467","test","2","prime_negative","50","5","62","0","782","34","21"
"081519","13:01:36","913814467","test","2","prime_positive","51","12","51","1","724","37","21"
"081519","13:01:36","913814467","test","2","prime_negative","52","3","24","1","509","37","25"
"081519","13:01:36","913814467","test","2","prime_positive","53","1","46","1","639","39","25"
"081519","13:01:36","913814467","test","2","prime_negative","54","12","33","0","499","39","24"
"081519","13:01:36","913814467","test","2","prime_positive","55","6","2","0","789","37","24"
"081519","13:01:36","913814467","test","2","prime_positive","56","4","32","1","649","40","24"
"081519","13:01:36","913814467","test","2","prime_negative","57","6","41","0","523","40","23"
"081519","13:01:36","913814467","test","2","prime_positive","58","10","64","0","609","38","23"
"081519","13:01:36","913814467","test","2","prime_negative","59","11","56","0","667","38","22"
"081519","13:01:36","913814467","test","2","prime_positive","60","2","44","0","450","37","22"
"081519","13:01:36","913814467","test","2","prime_negative","61","1","60","0","524","37","21"
"081519","13:01:36","913814467","test","2","prime_negative","62","2","22","1","593","37","24"
"081519","13:01:36","913814467","test","2","prime_negative","63","7","61","0","936","37","23"
"081519","13:01:36","913814467","test","2","prime_positive","64","5","21","1","590","39","23"
"081519","13:01:36","913814467","test","2","prime_negative","65","4","71","0","465","39","22"
"081519","13:01:36","913814467","test","2","prime_negative","66","5","41","0","514","39","21"
"081519","13:01:36","913814467","test","2","prime_negative","67","10","33","1","780","39","24"
"081519","13:01:36","913814467","test","2","prime_negative","68","2","8","0","508","39","23"
"081519","13:01:36","913814467","test","2","prime_positive","69","9","19","0","490","38","23"
"081519","13:01:36","913814467","test","2","prime_negative","70","8","10","0","518","38","22"
"081519","13:01:36","913814467","test","2","prime_positive","71","6","70","0","869","37","22"
"081519","13:01:36","913814467","test","2","prime_negative","72","12","56","0","812","37","22"
"081519","13:01:36","913814467","test","2","prime_positive","73","8","27","1","579","38","22"
"081519","20:02:09","524104369","practice","1","prime_positive_practice","4","0","0","0","2858","0","0"
"081519","20:02:09","524104369","practice","1","prime_positive_practice","5","0","0","1","891","0","0"
"081519","20:02:09","524104369","practice","1","prime_negative_practice","6","0","0","1","665","0","0"
"081519","20:02:09","524104369","practice","1","prime_positive_practice","7","0","0","1","869","0","0"
"081519","20:02:09","524104369","practice","1","prime_negative_practice","8","0","0","0","826","0","0"
"081519","20:02:09","524104369","practice","1","prime_positive_practice","9","0","0","1","392","0","0"
"081519","20:02:09","524104369","practice","1","prime_negative_practice","10","0","0","1","809","0","0"
"081519","20:02:09","524104369","practice","1","prime_negative_practice","11","0","0","1","1154","0","0"
"081519","20:02:09","524104369","practice","1","prime_positive_practice","12","0","0","0","726","0","0"
"081519","20:02:09","524104369","practice","1","prime_negative_practice","13","0","0","1","839","0","0"
"081519","20:02:09","524104369","test","2","prime_positive","2","11","66","1","1283","100","0"
"081519","20:02:09","524104369","test","2","prime_negative","3","9","32","1","1061","100","100"
"081519","20:02:09","524104369","test","2","prime_negative","4","5","33","0","2035","100","50"
"081519","20:02:09","524104369","test","2","prime_negative","5","2","56","0","1197","100","33"
"081519","20:02:09","524104369","test","2","prime_negative","6","7","30","0","1014","100","25"
"081519","20:02:09","524104369","test","2","prime_negative","7","3","60","0","913","100","20"
"081519","20:02:09","524104369","test","2","prime_positive","8","9","2","1","383","100","20"
"081519","20:02:09","524104369","test","2","prime_positive","9","12","50","1","529","100","20"
"081519","20:02:09","524104369","test","2","prime_negative","10","1","48","0","498","100","16"
"081519","20:02:09","524104369","test","2","prime_positive","11","6","67","1","337","100","16"
"081519","20:02:09","524104369","test","2","prime_positive","12","1","18","1","730","100","16"
"081519","20:02:09","524104369","test","2","prime_negative","13","11","58","1","417","100","28"
"081519","20:02:09","524104369","test","2","prime_positive","14","3","43","1","277","100","28"
"081519","20:02:09","524104369","test","2","prime_positive","15","5","72","1","453","100","28"
"081519","20:02:09","524104369","test","2","prime_positive","16","5","24","1","328","100","28"
"081519","20:02:09","524104369","test","2","prime_positive","17","3","36","1","381","100","28"
"081519","20:02:09","524104369","test","2","prime_negative","18","9","19","0","338","100","25"
"081519","20:02:09","524104369","test","2","prime_positive","19","8","53","1","329","100","25"
"081519","20:02:09","524104369","test","2","prime_negative","20","1","68","0","369","100","22"
"081519","20:02:09","524104369","test","2","prime_negative","21","6","59","1","372","100","30"
"081519","20:02:09","524104369","test","2","prime_negative","22","12","21","1","281","100","36"
"081519","20:02:09","524104369","test","2","prime_positive","23","2","44","0","392","90","36"
"081519","20:02:09","524104369","test","2","prime_negative","24","8","46","1","623","90","41"
"081519","20:02:09","524104369","test","2","prime_positive","25","9","45","1","476","91","41"
"081519","20:02:09","524104369","test","2","prime_negative","26","10","42","0","751","91","38"
"081519","20:02:09","524104369","test","2","prime_negative","27","7","12","0","419","91","35"
"081519","20:02:09","524104369","test","2","prime_positive","28","11","25","1","189","92","35"
"081519","20:02:09","524104369","test","2","prime_negative","29","3","6","0","671","92","33"
"081519","20:02:09","524104369","test","2","prime_negative","30","4","69","1","487","92","37"
"081519","20:02:09","524104369","test","2","prime_positive","31","7","47","1","375","92","37"
"081519","20:02:09","524104369","test","2","prime_positive","32","12","54","1","254","93","37"
"081519","20:02:09","524104369","test","2","prime_positive","33","6","52","1","270","93","37"
"081519","20:02:09","524104369","test","2","prime_positive","34","4","49","1","289","94","37"
"081519","20:02:09","524104369","test","2","prime_positive","35","1","23","1","228","94","37"
"081519","20:02:09","524104369","test","2","prime_positive","36","10","64","1","164","94","37"
"081519","20:02:09","524104369","test","2","prime_positive","37","9","31","1","155","95","37"
"081519","20:02:09","524104369","test","2","prime_positive","38","2","61","1","288","95","37"
"081519","20:02:09","524104369","test","2","prime_negative","39","11","62","1","590","95","41"
"081519","20:02:09","524104369","test","2","prime_negative","40","2","39","0","194","95","38"
"081519","20:02:09","524104369","test","2","prime_negative","41","5","34","0","232","95","36"
"081519","20:02:09","524104369","test","2","prime_negative","42","10","15","0","224","95","35"
"081519","20:02:09","524104369","test","2","prime_negative","43","4","63","0","148","95","33"
"081519","20:02:09","524104369","test","2","prime_negative","44","5","13","0","200","95","31"
"081519","20:02:09","524104369","test","2","prime_positive","45","5","14","1","278","95","31"
"081519","20:02:09","524104369","test","2","prime_negative","46","7","22","1","110","95","34"
"081519","20:02:09","524104369","test","2","prime_negative","47","9","7","1","163","95","37"
"081519","20:02:09","524104369","test","2","prime_positive","48","1","8","1","152","95","37"
"081519","20:02:09","524104369","test","2","prime_positive","49","11","38","1","305","95","37"
"081519","20:02:09","524104369","test","2","prime_positive","50","3","17","1","256","96","37"
"081519","20:02:09","524104369","test","2","prime_positive","51","7","26","1","380","96","37"
"081519","20:02:09","524104369","test","2","prime_negative","52","3","28","0","799","96","36"
"081519","20:02:09","524104369","test","2","prime_positive","53","8","40","1","2003","96","36"
"081519","20:02:09","524104369","test","2","prime_positive","54","4","37","1","1404","96","36"
"081519","20:02:09","524104369","test","2","prime_negative","55","11","51","1","536","96","38"
"081519","20:02:09","524104369","test","2","prime_positive","56","10","5","1","5393","96","38"
"081519","20:02:09","524104369","test","2","prime_negative","57","2","71","0","337","96","37"
"081519","20:02:09","524104369","test","2","prime_negative","58","6","35","0","207","96","35"
"081519","20:02:09","524104369","test","2","prime_positive","59","12","27","1","412","96","35"
"081519","20:02:09","524104369","test","2","prime_positive","60","6","55","0","103","93","35"
"081519","20:02:09","524104369","test","2","prime_negative","61","8","11","1","450","93","37"
"081519","20:02:09","524104369","test","2","prime_positive","62","6","65","1","269","93","37"
"081519","20:02:09","524104369","test","2","prime_negative","63","12","3","0","382","93","36"
"081519","20:02:09","524104369","test","2","prime_negative","64","1","17","0","313","93","35"
"081519","20:02:09","524104369","test","2","prime_negative","65","6","1","1","382","93","37"
"081519","20:02:09","524104369","test","2","prime_positive","66","5","20","1","296","93","37"
"081519","20:02:09","524104369","test","2","prime_negative","67","3","47","1","242","93","39"
"081519","20:02:09","524104369","test","2","prime_negative","68","2","3","0","201","93","38"
"081519","20:02:09","524104369","test","2","prime_negative","69","8","29","1","514","93","40"
"081519","20:02:09","524104369","test","2","prime_positive","70","8","16","1","342","94","40"
"081519","20:02:09","524104369","test","2","prime_negative","71","9","45","0","226","94","38"
"081519","20:02:09","524104369","test","2","prime_positive","72","1","28","1","263","94","38"
"081519","20:02:09","524104369","test","2","prime_positive","73","7","38","1","220","94","38"
"081519","13:04:17","622389180","practice","1","prime_positive_practice","4","0","0","0","3537","0","0"
"081519","13:04:17","622389180","practice","1","prime_positive_practice","5","0","0","1","917","0","0"
"081519","13:04:17","622389180","practice","1","prime_negative_practice","6","0","0","0","1203","0","0"
"081519","13:04:17","622389180","practice","1","prime_negative_practice","7","0","0","1","874","0","0"
"081519","13:04:17","622389180","practice","1","prime_positive_practice","8","0","0","0","1046","0","0"
"081519","13:04:17","622389180","practice","1","prime_negative_practice","9","0","0","0","975","0","0"
"081519","13:04:17","622389180","practice","1","prime_positive_practice","10","0","0","1","765","0","0"
"081519","13:04:17","622389180","practice","1","prime_positive_practice","11","0","0","1","1039","0","0"
"081519","13:04:17","622389180","practice","1","prime_negative_practice","12","0","0","1","1574","0","0"
"081519","13:04:17","622389180","practice","1","prime_negative_practice","13","0","0","1","676","0","0"
"081519","13:04:17","622389180","test","2","prime_negative","2","9","28","0","655","0","0"
"081519","13:04:17","622389180","test","2","prime_negative","3","11","1","0","716","0","0"
"081519","13:04:17","622389180","test","2","prime_negative","4","10","71","0","521","0","0"
"081519","13:04:17","622389180","test","2","prime_positive","5","2","11","1","819","100","0"
"081519","13:04:17","622389180","test","2","prime_positive","6","3","23","1","543","100","0"
"081519","13:04:17","622389180","test","2","prime_negative","7","1","33","1","716","100","25"
"081519","13:04:17","622389180","test","2","prime_positive","8","9","26","1","760","100","25"
"081519","13:04:17","622389180","test","2","prime_negative","9","4","34","0","621","100","20"
"081519","13:04:17","622389180","test","2","prime_positive","10","12","49","1","1067","100","20"
"081519","13:04:17","622389180","test","2","prime_positive","11","7","5","0","981","80","20"
"081519","13:04:17","622389180","test","2","prime_negative","12","2","54","0","673","80","16"
"081519","13:04:17","622389180","test","2","prime_positive","13","1","15","0","594","66","16"
"081519","13:04:17","622389180","test","2","prime_negative","14","8","43","1","758","66","28"
"081519","13:04:17","622389180","test","2","prime_positive","15","11","65","0","677","57","28"
"081519","13:04:17","622389180","test","2","prime_negative","16","7","24","1","484","57","37"
"081519","13:04:17","622389180","test","2","prime_negative","17","11","14","0","616","57","33"
"081519","13:04:17","622389180","test","2","prime_negative","18","12","51","0","674","57","30"
"081519","13:04:17","622389180","test","2","prime_positive","19","12","3","1","1119","62","30"
"081519","13:04:17","622389180","test","2","prime_negative","20","5","22","1","802","62","36"
"081519","13:04:17","622389180","test","2","prime_positive","21","10","20","0","548","55","36"
"081519","13:04:17","622389180","test","2","prime_positive","22","1","58","0","579","50","36"
"081519","13:04:17","622389180","test","2","prime_positive","23","11","31","0","554","45","36"
"081519","13:04:17","622389180","test","2","prime_positive","24","2","44","0","576","41","36"
"081519","13:04:17","622389180","test","2","prime_negative","25","4","69","0","925","41","33"
"081519","13:04:17","622389180","test","2","prime_negative","26","6","70","1","462","41","38"
"081519","13:04:17","622389180","test","2","prime_positive","27","5","42","0","590","38","38"
"081519","13:04:17","622389180","test","2","prime_positive","28","7","40","1","1136","42","38"
"081519","13:04:17","622389180","test","2","prime_negative","29","9","55","0","402","42","35"
"081519","13:04:17","622389180","test","2","prime_negative","30","10","66","0","848","42","33"
"081519","13:04:17","622389180","test","2","prime_negative","31","3","9","0","993","42","31"
"081519","13:04:17","622389180","test","2","prime_negative","32","8","57","0","626","42","29"
"081519","13:04:17","622389180","test","2","prime_negative","33","1","35","0","489","42","27"
"081519","13:04:17","622389180","test","2","prime_positive","34","8","52","1","487","46","27"
"081519","13:04:17","622389180","test","2","prime_negative","35","2","48","0","406","46","26"
"081519","13:04:17","622389180","test","2","prime_positive","36","9","47","0","735","43","26"
"081519","13:04:17","622389180","test","2","prime_positive","37","6","7","1","1073","47","26"
"081519","13:04:17","622389180","test","2","prime_positive","38","3","27","1","469","50","26"
"081519","13:04:17","622389180","test","2","prime_negative","39","9","29","1","513","50","30"
"081519","13:04:17","622389180","test","2","prime_positive","40","4","13","1","543","52","30"
"081519","13:04:17","622389180","test","2","prime_positive","41","6","12","1","445","55","30"
"081519","13:04:17","622389180","test","2","prime_positive","42","3","61","1","575","57","30"
"081519","13:04:17","622389180","test","2","prime_negative","43","1","30","0","328","57","28"
"081519","13:04:17","622389180","test","2","prime_negative","44","12","62","0","350","57","27"
"081519","13:04:17","622389180","test","2","prime_negative","45","6","16","0","318","57","26"
"081519","13:04:17","622389180","test","2","prime_negative","46","4","63","0","370","57","25"
"081519","13:04:17","622389180","test","2","prime_negative","47","8","64","0","433","57","24"
"081519","13:04:17","622389180","test","2","prime_negative","48","11","46","0","650","57","23"
"081519","13:04:17","622389180","test","2","prime_positive","49","7","37","1","505","59","23"
"081519","13:04:17","622389180","test","2","prime_negative","50","7","6","0","343","59","22"
"081519","13:04:17","622389180","test","2","prime_positive","51","8","25","1","1074","60","22"
"081519","13:04:17","622389180","test","2","prime_negative","52","10","45","0","600","60","21"
"081519","13:04:17","622389180","test","2","prime_positive","53","2","18","0","574","58","21"
"081519","13:04:17","622389180","test","2","prime_positive","54","4","53","0","479","56","21"
"081519","13:04:17","622389180","test","2","prime_positive","55","12","56","0","454","53","21"
"081519","13:04:17","622389180","test","2","prime_positive","56","11","32","0","367","51","21"
"081519","13:04:17","622389180","test","2","prime_negative","57","2","19","0","379","51","20"
"081519","13:04:17","622389180","test","2","prime_positive","58","9","4","1","673","53","20"
"081519","13:04:17","622389180","test","2","prime_positive","59","1","2","1","518","55","20"
"081519","13:04:17","622389180","test","2","prime_positive","60","10","50","0","586","53","20"
"081519","13:04:17","622389180","test","2","prime_negative","61","5","60","0","588","53","20"
"081519","13:04:17","622389180","test","2","prime_positive","62","5","8","0","1706","51","20"
"081519","13:04:17","622389180","test","2","prime_positive","63","7","67","1","623","53","20"
"081519","13:04:17","622389180","test","2","prime_negative","64","3","27","1","545","53","22"
"081519","13:04:17","622389180","test","2","prime_negative","65","5","47","0","481","53","21"
"081519","13:04:17","622389180","test","2","prime_positive","66","12","33","1","571","54","21"
"081519","13:04:17","622389180","test","2","prime_negative","67","9","66","0","351","54","21"
"081519","13:04:17","622389180","test","2","prime_negative","68","1","4","0","401","54","20"
"081519","13:04:17","622389180","test","2","prime_negative","69","3","63","0","318","54","20"
"081519","13:04:17","622389180","test","2","prime_positive","70","1","15","0","518","52","20"
"081519","13:04:17","622389180","test","2","prime_positive","71","4","54","0","648","51","20"
"081519","13:04:17","622389180","test","2","prime_negative","72","8","68","1","506","51","22"
"081519","13:04:17","622389180","test","2","prime_positive","73","2","40","1","714","52","22"
"081519","13:04:03","217378735","practice","1","prime_positive_practice","4","0","0","1","17904","0","0"
"081519","13:04:03","217378735","practice","1","prime_negative_practice","5","0","0","1","905","0","0"
"081519","13:04:03","217378735","practice","1","prime_negative_practice","6","0","0","0","672","0","0"
"081519","13:04:03","217378735","practice","1","prime_negative_practice","7","0","0","0","1124","0","0"
"081519","13:04:03","217378735","practice","1","prime_positive_practice","8","0","0","1","315","0","0"
"081519","13:04:03","217378735","practice","1","prime_positive_practice","9","0","0","1","151","0","0"
"081519","13:04:03","217378735","practice","1","prime_negative_practice","10","0","0","0","432","0","0"
"081519","13:04:03","217378735","practice","1","prime_positive_practice","11","0","0","1","205","0","0"
"081519","13:04:03","217378735","practice","1","prime_positive_practice","12","0","0","1","186","0","0"
"081519","13:04:03","217378735","practice","1","prime_negative_practice","13","0","0","0","228","0","0"
"081519","13:04:03","217378735","test","2","prime_negative","2","2","37","0","1519","0","0"
"081519","13:04:03","217378735","test","2","prime_positive","3","1","23","1","707","100","0"
"081519","13:04:03","217378735","test","2","prime_negative","4","5","45","0","235","100","0"
"081519","13:04:03","217378735","test","2","prime_negative","5","9","30","0","332","100","0"
"081519","13:04:03","217378735","test","2","prime_positive","6","6","4","1","166","100","0"
"081519","13:04:03","217378735","test","2","prime_negative","7","4","22","0","310","100","0"
"081519","13:04:03","217378735","test","2","prime_negative","8","10","65","0","334","100","0"
"081519","13:04:03","217378735","test","2","prime_positive","9","9","5","1","340","100","0"
"081519","13:04:03","217378735","test","2","prime_positive","10","2","10","1","201","100","0"
"081519","13:04:03","217378735","test","2","prime_positive","11","4","25","1","180","100","0"
"081519","13:04:03","217378735","test","2","prime_positive","12","12","39","1","336","100","0"
"081519","13:04:03","217378735","test","2","prime_negative","13","8","11","0","284","100","0"
"081519","13:04:03","217378735","test","2","prime_negative","14","1","18","0","274","100","0"
"081519","13:04:03","217378735","test","2","prime_positive","15","11","62","1","256","100","0"
"081519","13:04:03","217378735","test","2","prime_positive","16","6","44","1","233","100","0"
"081519","13:04:03","217378735","test","2","prime_negative","17","5","51","0","290","100","0"
"081519","13:04:03","217378735","test","2","prime_positive","18","11","28","1","253","100","0"
"081519","13:04:03","217378735","test","2","prime_positive","19","1","32","1","256","100","0"
"081519","13:04:03","217378735","test","2","prime_positive","20","12","14","1","415","100","0"
"081519","13:04:03","217378735","test","2","prime_negative","21","9","16","0","342","100","0"
"081519","13:04:03","217378735","test","2","prime_positive","22","9","53","1","435","100","0"
"081519","13:04:03","217378735","test","2","prime_positive","23","7","43","1","262","100","0"
"081519","13:04:03","217378735","test","2","prime_positive","24","5","6","1","145","100","0"
"081519","13:04:03","217378735","test","2","prime_negative","25","6","36","0","243","100","0"
"081519","13:04:03","217378735","test","2","prime_positive","26","10","26","1","146","100","0"
"081519","13:04:03","217378735","test","2","prime_positive","27","4","63","0","409","93","0"
"081519","13:04:03","217378735","test","2","prime_negative","28","7","55","1","171","93","9"
"081519","13:04:03","217378735","test","2","prime_negative","29","3","70","0","608","93","8"
"081519","13:04:03","217378735","test","2","prime_positive","30","2","69","1","288","94","8"
"081519","13:04:03","217378735","test","2","prime_negative","31","4","27","0","320","94","7"
"081519","13:04:03","217378735","test","2","prime_negative","32","2","15","0","171","94","7"
"081519","13:04:03","217378735","test","2","prime_negative","33","10","40","0","182","94","6"
"081519","13:04:03","217378735","test","2","prime_positive","34","8","56","1","106","94","6"
"081519","13:04:03","217378735","test","2","prime_negative","35","1","42","0","220","94","6"
"081519","13:04:03","217378735","test","2","prime_positive","36","3","7","1","164","94","6"
"081519","13:04:03","217378735","test","2","prime_positive","37","2","17","0","196","90","6"
"081519","13:04:03","217378735","test","2","prime_positive","38","1","58","1","327","90","6"
"081519","13:04:03","217378735","test","2","prime_positive","39","9","21","1","256","90","6"
"081519","13:04:03","217378735","test","2","prime_negative","40","12","50","0","372","90","5"
"081519","13:04:03","217378735","test","2","prime_negative","41","8","71","0","268","90","5"
"081519","13:04:03","217378735","test","2","prime_negative","42","11","57","0","280","90","5"
"081519","13:04:03","217378735","test","2","prime_negative","43","3","1","0","290","90","5"
"081519","13:04:03","217378735","test","2","prime_negative","44","1","72","0","86","90","4"
"081519","13:04:03","217378735","test","2","prime_positive","45","7","68","1","99","91","4"
"081519","13:04:03","217378735","test","2","prime_negative","46","7","41","1","192","91","9"
"081519","13:04:03","217378735","test","2","prime_positive","47","3","61","1","51","91","9"
"081519","13:04:03","217378735","test","2","prime_positive","48","10","49","1","128","92","9"
"081519","13:04:03","217378735","test","2","prime_negative","49","9","38","0","147","92","8"
"081519","13:04:03","217378735","test","2","prime_negative","50","4","54","1","156","92","12"
"081519","13:04:03","217378735","test","2","prime_negative","51","6","13","0","317","92","12"
"081519","13:04:03","217378735","test","2","prime_positive","52","4","66","0","92","88","12"
"081519","13:04:03","217378735","test","2","prime_negative","53","12","34","0","308","88","11"
"081519","13:04:03","217378735","test","2","prime_positive","54","6","9","1","92","88","11"
"081519","13:04:03","217378735","test","2","prime_negative","55","2","67","0","215","88","11"
"081519","13:04:03","217378735","test","2","prime_positive","56","8","19","1","261","89","11"
"081519","13:04:03","217378735","test","2","prime_positive","57","12","12","0","1185","86","11"
"081519","13:04:03","217378735","test","2","prime_negative","58","11","20","0","559","86","10"
"081519","13:04:03","217378735","test","2","prime_positive","59","11","59","1","718","86","10"
"081519","13:04:03","217378735","test","2","prime_positive","60","5","2","1","148","87","10"
"081519","13:04:03","217378735","test","2","prime_positive","61","10","3","1","107","87","10"
"081519","13:04:03","217378735","test","2","prime_negative","62","10","35","0","957","87","10"
"081519","13:04:03","217378735","test","2","prime_negative","63","5","52","0","275","87","10"
"081519","13:04:03","217378735","test","2","prime_negative","64","8","10","0","166","87","9"
"081519","13:04:03","217378735","test","2","prime_negative","65","5","61","0","108","87","9"
"081519","13:04:03","217378735","test","2","prime_positive","66","6","11","1","488","87","9"
"081519","13:04:03","217378735","test","2","prime_negative","67","1","27","0","735","87","9"
"081519","13:04:03","217378735","test","2","prime_negative","68","4","57","0","375","87","8"
"081519","13:04:03","217378735","test","2","prime_positive","69","8","15","1","545","88","8"
"081519","13:04:03","217378735","test","2","prime_positive","70","2","37","1","134","88","8"
"081519","13:04:03","217378735","test","2","prime_positive","71","12","64","1","181","88","8"
"081519","13:04:03","217378735","test","2","prime_negative","72","6","26","0","996","88","8"
"081519","13:04:03","217378735","test","2","prime_negative","73","8","69","0","115","88","8"
"081519","08:07:54","617409170","practice","1","prime_positive_practice","4","0","0","1","3523","0","0"
"081519","08:07:54","617409170","practice","1","prime_positive_practice","5","0","0","0","1210","0","0"
"081519","08:07:54","617409170","practice","1","prime_negative_practice","6","0","0","0","933","0","0"
"081519","08:07:54","617409170","practice","1","prime_negative_practice","7","0","0","1","865","0","0"
"081519","08:07:54","617409170","practice","1","prime_negative_practice","8","0","0","0","737","0","0"
"081519","08:07:54","617409170","practice","1","prime_positive_practice","9","0","0","1","1368","0","0"
"081519","08:07:54","617409170","practice","1","prime_positive_practice","10","0","0","1","931","0","0"
"081519","08:07:54","617409170","practice","1","prime_negative_practice","11","0","0","1","777","0","0"
"081519","08:07:54","617409170","practice","1","prime_positive_practice","12","0","0","1","1460","0","0"
"081519","08:07:54","617409170","practice","1","prime_negative_practice","13","0","0","1","696","0","0"
"081519","08:07:54","617409170","test","2","prime_positive","2","2","53","0","868","0","0"
"081519","08:07:54","617409170","test","2","prime_negative","3","7","41","1","1188","0","100"
"081519","08:07:54","617409170","test","2","prime_negative","4","9","10","1","654","0","100"
"081519","08:07:54","617409170","test","2","prime_positive","5","3","19","1","545","50","100"
"081519","08:07:54","617409170","test","2","prime_negative","6","2","35","0","1054","50","66"
"081519","08:07:54","617409170","test","2","prime_positive","7","4","5","0","770","33","66"
"081519","08:07:54","617409170","test","2","prime_positive","8","12","30","1","843","50","66"
"081519","08:07:54","617409170","test","2","prime_negative","9","3","70","1","975","50","75"
"081519","08:07:54","617409170","test","2","prime_negative","10","4","55","0","1109","50","60"
"081519","08:07:54","617409170","test","2","prime_negative","11","10","18","1","789","50","66"
"081519","08:07:54","617409170","test","2","prime_negative","12","8","31","1","1214","50","71"
"081519","08:07:54","617409170","test","2","prime_positive","13","1","67","1","686","60","71"
"081519","08:07:54","617409170","test","2","prime_negative","14","5","57","1","676","60","75"
"081519","08:07:54","617409170","test","2","prime_positive","15","6","71","1","636","66","75"
"081519","08:07:54","617409170","test","2","prime_positive","16","10","7","0","594","57","75"
"081519","08:07:54","617409170","test","2","prime_negative","17","3","26","0","814","57","66"
"081519","08:07:54","617409170","test","2","prime_positive","18","8","37","1","658","62","66"
"081519","08:07:54","617409170","test","2","prime_negative","19","8","25","0","702","62","60"
"081519","08:07:54","617409170","test","2","prime_positive","20","1","66","1","516","66","60"
"081519","08:07:54","617409170","test","2","prime_negative","21","7","8","1","616","66","63"
"081519","08:07:54","617409170","test","2","prime_positive","22","5","11","0","635","60","63"
"081519","08:07:54","617409170","test","2","prime_positive","23","9","48","1","646","63","63"
"081519","08:07:54","617409170","test","2","prime_positive","24","2","29","1","542","66","63"
"081519","08:07:54","617409170","test","2","prime_negative","25","2","63","0","615","66","58"
"081519","08:07:54","617409170","test","2","prime_positive","26","4","64","0","636","61","58"
"081519","08:07:54","617409170","test","2","prime_positive","27","11","36","1","475","64","58"
"081519","08:07:54","617409170","test","2","prime_negative","28","6","59","1","537","64","61"
"081519","08:07:54","617409170","test","2","prime_negative","29","1","42","1","560","64","64"
"081519","08:07:54","617409170","test","2","prime_negative","30","9","40","0","617","64","60"
"081519","08:07:54","617409170","test","2","prime_positive","31","12","1","1","447","66","60"
"081519","08:07:54","617409170","test","2","prime_negative","32","4","34","1","583","66","62"
"081519","08:07:54","617409170","test","2","prime_negative","33","11","52","0","708","66","58"
"081519","08:07:54","617409170","test","2","prime_negative","34","12","54","1","575","66","61"
"081519","08:07:54","617409170","test","2","prime_negative","35","10","50","1","691","66","63"
"081519","08:07:54","617409170","test","2","prime_positive","36","10","22","0","550","62","63"
"081519","08:07:54","617409170","test","2","prime_positive","37","7","72","0","563","58","63"
"081519","08:07:54","617409170","test","2","prime_positive","38","3","65","1","553","61","63"
"081519","08:07:54","617409170","test","2","prime_negative","39","1","28","0","1317","61","60"
"081519","08:07:54","617409170","test","2","prime_positive","40","6","12","0","671","57","60"
"081519","08:07:54","617409170","test","2","prime_negative","41","9","4","1","612","57","61"
"081519","08:07:54","617409170","test","2","prime_negative","42","7","21","0","650","57","59"
"081519","08:07:54","617409170","test","2","prime_positive","43","1","46","1","515","60","59"
