"","V1","date","time","group","subject","build","blocknum","trialnum","blockcode","trialcode","pretrialpause","posttrialpause","windowcenter","trialduration","trialtimeout","blocktimeout","response","correct","latency","inwindow"
"1",1,71618,"08:07:40",849062963,217658675,"4.0.10.0",1,2,"demographics","age",0,0,0,0,0,0,"21",1,4787,0
"2",2,71618,"08:07:40",849062963,217658675,"4.0.10.0",1,3,"demographics","gender",0,0,0,0,0,0,"Male",1,4249,0
"3",3,71618,"13:25:20",95361462,387783740,"4.0.10.0",1,2,"demographics","age",0,0,0,0,0,0,"41",1,4884,0
"4",4,71618,"13:25:20",95361462,387783740,"4.0.10.0",1,3,"demographics","gender",0,0,0,0,0,0,"male",1,5564,0
"5",5,71618,"22:28:14",356979141,187488134,"4.0.10.0",1,2,"demographics","age",0,0,0,0,0,0,"29",1,2700,0
"6",6,71618,"22:28:14",356979141,187488134,"4.0.10.0",1,3,"demographics","gender",0,0,0,0,0,0,"male",1,3056,0
"7",7,71618,"13:28:54",95361462,387783740,"4.0.10.0",1,2,"demographics","age",0,0,0,0,0,0,"41",1,4395,0
"8",8,71618,"13:28:54",95361462,387783740,"4.0.10.0",1,3,"demographics","gender",0,0,0,0,0,0,"male",1,4940,0
"9",9,71618,"07:30:52",434342216,608526962,"4.0.10.0",1,2,"demographics","age",0,0,0,0,0,0,"29",1,3319,0
"10",10,71618,"07:30:52",434342216,608526962,"4.0.10.0",1,3,"demographics","gender",0,0,0,0,0,0,"male",1,4802,0
"11",11,71618,"05:32:56",218796003,3545965,"4.0.10.0",1,2,"demographics","age",0,0,0,0,0,0,"63",1,4625,0
"12",12,71618,"05:32:56",218796003,3545965,"4.0.10.0",1,3,"demographics","gender",0,0,0,0,0,0,"female",1,4120,0
"13",13,71618,"08:45:14",761820482,689281609,"4.0.10.0",1,2,"demographics","age",0,0,0,0,0,0,"27",1,2771,0
"14",14,71618,"08:45:14",761820482,689281609,"4.0.10.0",1,3,"demographics","gender",0,0,0,0,0,0,"Male",1,3497,0
"15",15,71618,"16:45:30",91765804,651077529,"4.0.10.0",1,2,"demographics","age",0,0,0,0,0,0,"27",1,5708,0
"16",16,71618,"16:45:30",91765804,651077529,"4.0.10.0",1,3,"demographics","gender",0,0,0,0,0,0,"male",1,4721,0
"17",17,71618,"20:50:22",783479691,861999982,"4.0.10.0",1,2,"demographics","age",0,0,0,0,0,0,"18",1,3779,0
"18",18,71618,"20:50:22",783479691,861999982,"4.0.10.0",1,3,"demographics","gender",0,0,0,0,0,0,"Male",1,2932,0
"19",19,71618,"07:50:32",605451267,142189929,"4.0.10.0",1,2,"demographics","age",0,0,0,0,0,0,"27",1,5245,0
"20",20,71618,"07:50:32",605451267,142189929,"4.0.10.0",1,3,"demographics","gender",0,0,0,0,0,0,"female",1,7703,0
"21",21,71618,"13:51:06",373449468,252686048,"4.0.10.0",1,2,"demographics","age",0,0,0,0,0,0,"25",1,3703,0
"22",22,71618,"13:51:06",373449468,252686048,"4.0.10.0",1,3,"demographics","gender",0,0,0,0,0,0,"female",1,5900,0
"23",23,71618,"20:52:19",783479691,861999982,"4.0.10.0",1,2,"demographics","age",0,0,0,0,0,0,"18",1,2945,0
"24",24,71618,"20:52:19",783479691,861999982,"4.0.10.0",1,3,"demographics","gender",0,0,0,0,0,0,"Male",1,1934,0
"25",25,71618,"13:51:55",448512600,745230009,"4.0.10.0",1,2,"demographics","age",0,0,0,0,0,0,"29",1,2533,0
"26",26,71618,"13:51:55",448512600,745230009,"4.0.10.0",1,3,"demographics","gender",0,0,0,0,0,0,"Female",1,4533,0
"27",27,71618,"13:53:47",373449468,252686048,"4.0.10.0",1,2,"demographics","age",0,0,0,0,0,0,"25",1,3543,0
"28",28,71618,"13:53:47",373449468,252686048,"4.0.10.0",1,3,"demographics","gender",0,0,0,0,0,0,"Female",1,6497,0
"29",29,71618,"08:54:10",319591345,347479845,"4.0.10.0",1,2,"demographics","age",0,0,0,0,0,0,"32",1,2097,0
"30",30,71618,"08:54:10",319591345,347479845,"4.0.10.0",1,3,"demographics","gender",0,0,0,0,0,0,"Male",1,4929,0
"31",31,71618,"14:12:45",569075955,347568400,"4.0.10.0",1,2,"demographics","age",0,0,0,0,0,0,"28",1,2378,0
"32",32,71618,"14:12:45",569075955,347568400,"4.0.10.0",1,3,"demographics","gender",0,0,0,0,0,0,"Male",1,2985,0
"33",33,71618,"14:13:37",41254049,601178662,"4.0.10.0",1,2,"demographics","age",0,0,0,0,0,0,"42",1,6081,0
"34",34,71618,"14:13:37",41254049,601178662,"4.0.10.0",1,3,"demographics","gender",0,0,0,0,0,0,"female",1,8291,0
"35",35,71618,"14:14:05",569075955,347568400,"4.0.10.0",1,2,"demographics","age",0,0,0,0,0,0,"28",1,1914,0
"36",36,71618,"14:14:05",569075955,347568400,"4.0.10.0",1,3,"demographics","gender",0,0,0,0,0,0,"Male",1,2652,0
"37",37,71618,"09:13:06",747279265,698994348,"4.0.10.0",1,2,"demographics","age",0,0,0,0,0,0,"50",1,3305,0
"38",38,71618,"09:13:06",747279265,698994348,"4.0.10.0",1,3,"demographics","gender",0,0,0,0,0,0,"male",1,4234,0
"39",39,71618,"14:15:57",41254049,601178662,"4.0.10.0",1,2,"demographics","age",0,0,0,0,0,0,"42",1,5753,0
"40",40,71618,"14:15:57",41254049,601178662,"4.0.10.0",1,3,"demographics","gender",0,0,0,0,0,0,"female",1,6966,0
"41",41,71618,"09:20:27",16758641,181289079,"4.0.10.0",1,2,"demographics","age",0,0,0,0,0,0,"60",1,3218,0
"42",42,71618,"09:20:27",16758641,181289079,"4.0.10.0",1,3,"demographics","gender",0,0,0,0,0,0,"female",1,3784,0
"43",43,71618,"09:22:34",489875680,654107985,"4.0.10.0",1,2,"demographics","age",0,0,0,0,0,0,"36",1,2553,0
"44",44,71618,"09:22:34",489875680,654107985,"4.0.10.0",1,3,"demographics","gender",0,0,0,0,0,0,"Male",1,3109,0
"45",45,71618,"14:23:21",791747305,328485968,"4.0.10.0",1,2,"demographics","age",0,0,0,0,0,0,"21",1,2212,0
"46",46,71618,"14:23:21",791747305,328485968,"4.0.10.0",1,3,"demographics","gender",0,0,0,0,0,0,"male",1,3425,0
"47",47,71618,"14:19:57",66648559,754556216,"4.0.10.0",1,2,"demographics","age",0,0,0,0,0,0,"27",1,3527,0
"48",48,71618,"14:19:57",66648559,754556216,"4.0.10.0",1,3,"demographics","gender",0,0,0,0,0,0,"female",1,3174,0
"49",49,71618,"14:24:30",951003308,487741973,"4.0.10.0",1,2,"demographics","age",0,0,0,0,0,0,"30",1,3934,0
"50",50,71618,"14:24:30",951003308,487741973,"4.0.10.0",1,3,"demographics","gender",0,0,0,0,0,0,"female",1,5690,0
"51",51,71618,"14:24:45",542150554,184299191,"4.0.10.0",1,2,"demographics","age",0,0,0,0,0,0,"26",1,4270,0
"52",52,71618,"14:24:45",542150554,184299191,"4.0.10.0",1,3,"demographics","gender",0,0,0,0,0,0,"male",1,3663,0
"53",53,71618,"09:23:58",935355174,795100721,"4.0.10.0",1,2,"demographics","age",0,0,0,0,0,0,"19",1,3712,0
"54",54,71618,"09:23:58",935355174,795100721,"4.0.10.0",1,3,"demographics","gender",0,0,0,0,0,0,"Male",1,4750,0
"55",55,71618,"14:25:37",281855895,426804087,"4.0.10.0",1,2,"demographics","age",0,0,0,0,0,0,"44",1,3733,0
"56",56,71618,"14:25:37",281855895,426804087,"4.0.10.0",1,3,"demographics","gender",0,0,0,0,0,0,"female",1,5024,0
"57",57,71618,"14:27:39",678466629,380785653,"4.0.10.0",1,2,"demographics","age",0,0,0,0,0,0,"20",1,2762,0
"58",58,71618,"14:27:39",678466629,380785653,"4.0.10.0",1,3,"demographics","gender",0,0,0,0,0,0,"male",1,4429,0
"59",59,71618,"09:28:15",433405794,136022943,"4.0.10.0",1,2,"demographics","age",0,0,0,0,0,0,"63",1,3514,0
"60",60,71618,"09:28:15",433405794,136022943,"4.0.10.0",1,3,"demographics","gender",0,0,0,0,0,0,"female",1,6026,0
"61",61,71618,"14:28:12",302033217,985068112,"4.0.10.0",1,2,"demographics","age",0,0,0,0,0,0,"36",1,7027,0
"62",62,71618,"14:28:12",302033217,985068112,"4.0.10.0",1,3,"demographics","gender",0,0,0,0,0,0,"Female",1,5851,0
"63",63,71618,"14:25:58",777880262,704053711,"4.0.10.0",1,2,"demographics","age",0,0,0,0,0,0,"26",1,3266,0
"64",64,71618,"14:25:58",777880262,704053711,"4.0.10.0",1,3,"demographics","gender",0,0,0,0,0,0,"Female",1,3793,0
"65",65,71618,"14:28:51",678466629,380785653,"4.0.10.0",1,2,"demographics","age",0,0,0,0,0,0,"20",1,5605,0
"66",66,71618,"14:28:51",678466629,380785653,"4.0.10.0",1,3,"demographics","gender",0,0,0,0,0,0,"male",1,3475,0
"67",67,71618,"14:31:53",518675658,765338899,"4.0.10.0",1,2,"demographics","age",0,0,0,0,0,0,"47",1,6547,0
"68",68,71618,"14:31:53",518675658,765338899,"4.0.10.0",1,3,"demographics","gender",0,0,0,0,0,0,"female",1,4407,0
"69",69,71618,"14:35:44",587946364,881546473,"4.0.10.0",1,2,"demographics","age",0,0,0,0,0,0,"45",1,4802,0
"70",70,71618,"14:35:44",587946364,881546473,"4.0.10.0",1,3,"demographics","gender",0,0,0,0,0,0,"female",1,6378,0
"71",71,71618,"14:33:04",921269167,710030814,"4.0.10.0",1,2,"demographics","age",0,0,0,0,0,0,"39",1,3326,0
"72",72,71618,"14:33:04",921269167,710030814,"4.0.10.0",1,3,"demographics","gender",0,0,0,0,0,0,"male",1,2975,0
"73",73,71618,"14:35:54",65004135,290998509,"4.0.10.0",1,2,"demographics","age",0,0,0,0,0,0,"26",1,3232,0
"74",74,71618,"14:35:54",65004135,290998509,"4.0.10.0",1,3,"demographics","gender",0,0,0,0,0,0,"Male",1,4275,0
"75",75,71618,"08:36:42",128652365,960339179,"4.0.10.0",1,2,"demographics","age",0,0,0,0,0,0,"63",1,6521,0
"76",76,71618,"08:36:42",128652365,960339179,"4.0.10.0",1,3,"demographics","gender",0,0,0,0,0,0,"Female",1,7065,0
"77",77,71618,"14:37:18",658878540,290103821,"4.0.10.0",1,2,"demographics","age",0,0,0,0,0,0,"25",1,14098,0
"78",78,71618,"14:37:18",658878540,290103821,"4.0.10.0",1,3,"demographics","gender",0,0,0,0,0,0,"Male",1,6339,0
"79",79,71618,"06:37:36",271115111,292953014,"4.0.10.0",1,2,"demographics","age",0,0,0,0,0,0,"31",1,4207,0
"80",80,71618,"06:37:36",271115111,292953014,"4.0.10.0",1,3,"demographics","gender",0,0,0,0,0,0,"Female",1,4936,0
"81",81,71618,"14:39:28",286959482,752626183,"4.0.10.0",1,2,"demographics","age",0,0,0,0,0,0,"23",1,2566,0
"82",82,71618,"14:39:28",286959482,752626183,"4.0.10.0",1,3,"demographics","gender",0,0,0,0,0,0,"male",1,3460,0
"83",83,71618,"14:40:01",238798937,308751542,"4.0.10.0",1,2,"demographics","age",0,0,0,0,0,0,"37",1,10028,0
"84",84,71618,"14:40:01",238798937,308751542,"4.0.10.0",1,3,"demographics","gender",0,0,0,0,0,0,"Male",1,5561,0
"85",85,71618,"08:40:24",619609187,932810171,"4.0.10.0",1,2,"demographics","age",0,0,0,0,0,0,"31",1,3915,0
"86",86,71618,"08:40:24",619609187,932810171,"4.0.10.0",1,3,"demographics","gender",0,0,0,0,0,0,"Male",1,6226,0
"87",87,71618,"14:41:22",617661306,229097424,"4.0.10.0",1,2,"demographics","age",0,0,0,0,0,0,"31",1,2333,0
"88",88,71618,"14:41:22",617661306,229097424,"4.0.10.0",1,3,"demographics","gender",0,0,0,0,0,0,"Female",1,4885,0
"89",89,71618,"09:41:16",744457130,642571861,"4.0.10.0",1,2,"demographics","age",0,0,0,0,0,0,"29",1,3868,0
"90",90,71618,"09:41:16",744457130,642571861,"4.0.10.0",1,3,"demographics","gender",0,0,0,0,0,0,"male",1,3421,0
"91",91,71618,"14:41:06",286959482,752626183,"4.0.10.0",1,2,"demographics","age",0,0,0,0,0,0,"23",1,2355,0
"92",92,71618,"14:41:06",286959482,752626183,"4.0.10.0",1,3,"demographics","gender",0,0,0,0,0,0,"male",1,2210,0
"93",93,71618,"09:41:42",923775342,583624293,"4.0.10.0",1,2,"demographics","age",0,0,0,0,0,0,"42",1,4352,0
"94",94,71618,"09:41:42",923775342,583624293,"4.0.10.0",1,3,"demographics","gender",0,0,0,0,0,0,"Male",1,4257,0
"95",95,71618,"14:43:09",617661306,229097424,"4.0.10.0",1,2,"demographics","age",0,0,0,0,0,0,"31",1,2776,0
"96",96,71618,"14:43:09",617661306,229097424,"4.0.10.0",1,3,"demographics","gender",0,0,0,0,0,0,"Female",1,4414,0
"97",97,71618,"23:43:04",595743351,273905501,"4.0.10.0",1,2,"demographics","age",0,0,0,0,0,0,"33",1,3108,0
"98",98,71618,"23:43:04",595743351,273905501,"4.0.10.0",1,3,"demographics","gender",0,0,0,0,0,0,"Male",1,3750,0
"99",99,71618,"10:43:09",201512663,860183763,"4.0.10.0",1,2,"demographics","age",0,0,0,0,0,0,"22",1,3335,0
"100",100,71618,"10:43:09",201512663,860183763,"4.0.10.0",1,3,"demographics","gender",0,0,0,0,0,0,"female",1,3638,0
"101",101,71618,"14:47:48",392015065,337066657,"4.0.10.0",1,2,"demographics","age",0,0,0,0,0,0,"35",1,2464,0
"102",102,71618,"14:47:48",392015065,337066657,"4.0.10.0",1,3,"demographics","gender",0,0,0,0,0,0,"Female",1,3283,0
"103",103,71618,"14:47:55",41883169,413147342,"4.0.10.0",1,2,"demographics","age",0,0,0,0,0,0,"21",1,4647,0
"104",104,71618,"14:47:55",41883169,413147342,"4.0.10.0",1,3,"demographics","gender",0,0,0,0,0,0,"Male",1,4470,0
"105",105,71618,"14:48:29",9712098,180201925,"4.0.10.0",1,2,"demographics","age",0,0,0,0,0,0,"45",1,4247,0
"106",106,71618,"14:48:29",9712098,180201925,"4.0.10.0",1,3,"demographics","gender",0,0,0,0,0,0,"female",1,5559,0
"107",107,71618,"09:49:10",604784836,773202440,"4.0.10.0",1,2,"demographics","age",0,0,0,0,0,0,"42",1,1717,0
"108",108,71618,"09:49:10",604784836,773202440,"4.0.10.0",1,3,"demographics","gender",0,0,0,0,0,0,"Male",1,2741,0
"109",109,71618,"14:51:53",127978582,278977369,"4.0.10.0",1,2,"demographics","age",0,0,0,0,0,0,"35",1,3277,0
"110",110,71618,"14:51:53",127978582,278977369,"4.0.10.0",1,3,"demographics","gender",0,0,0,0,0,0,"male",1,4782,0
"111",111,71618,"14:53:00",179580539,330579327,"4.0.10.0",1,2,"demographics","age",0,0,0,0,0,0,"27",1,3619,0
"112",112,71618,"14:53:00",179580539,330579327,"4.0.10.0",1,3,"demographics","gender",0,0,0,0,0,0,"Male",1,3328,0
"113",113,71618,"14:53:33",475163154,791742299,"4.0.10.0",1,2,"demographics","age",0,0,0,0,0,0,"38",1,3711,0
"114",114,71618,"14:53:33",475163154,791742299,"4.0.10.0",1,3,"demographics","gender",0,0,0,0,0,0,"female",1,6294,0
"115",115,71618,"14:55:20",682148722,590008967,"4.0.10.0",1,2,"demographics","age",0,0,0,0,0,0,"37",1,3352,0
"116",116,71618,"14:55:20",682148722,590008967,"4.0.10.0",1,3,"demographics","gender",0,0,0,0,0,0,"female",1,4543,0
"117",117,71618,"09:56:38",915968005,671481412,"4.0.10.0",1,2,"demographics","age",0,0,0,0,0,0,"31",1,1848,0
"118",118,71618,"09:56:38",915968005,671481412,"4.0.10.0",1,3,"demographics","gender",0,0,0,0,0,0,"female",1,4381,0
"119",119,71618,"08:56:32",666100047,963711838,"4.0.10.0",1,2,"demographics","age",0,0,0,0,0,0,"40",1,3609,0
"120",120,71618,"08:56:32",666100047,963711838,"4.0.10.0",1,3,"demographics","gender",0,0,0,0,0,0,"Male",1,5211,0
"121",121,71618,"09:58:31",693721371,603072255,"4.0.10.0",1,2,"demographics","age",0,0,0,0,0,0,"38",1,8432,0
"122",122,71618,"09:58:31",693721371,603072255,"4.0.10.0",1,3,"demographics","gender",0,0,0,0,0,0,"female",1,7414,0
"123",123,71618,"23:28:11",329223191,626816346,"4.0.10.0",1,2,"demographics","age",0,0,0,0,0,0,"23",1,3742,0
"124",124,71618,"23:28:11",329223191,626816346,"4.0.10.0",1,3,"demographics","gender",0,0,0,0,0,0,"Female",1,4459,0
"125",125,71618,"15:01:04",272621182,589498455,"4.0.10.0",1,2,"demographics","age",0,0,0,0,0,0,"29",1,3246,0
"126",126,71618,"15:01:04",272621182,589498455,"4.0.10.0",1,3,"demographics","gender",0,0,0,0,0,0,"female",1,5093,0
"127",127,71618,"15:01:58",842019693,401033296,"4.0.10.0",1,2,"demographics","age",0,0,0,0,0,0,"23",1,3457,0
"128",128,71618,"15:01:58",842019693,401033296,"4.0.10.0",1,3,"demographics","gender",0,0,0,0,0,0,"female",1,2910,0
"129",129,71618,"15:02:33",535185755,981132704,"4.0.10.0",1,2,"demographics","age",0,0,0,0,0,0,"50",1,4692,0
"130",130,71618,"15:02:33",535185755,981132704,"4.0.10.0",1,3,"demographics","gender",0,0,0,0,0,0,"Male",1,8330,0
"131",131,71618,"15:03:12",208448089,821794310,"4.0.10.0",1,2,"demographics","age",0,0,0,0,0,0,"32",1,2837,0
"132",132,71618,"15:03:12",208448089,821794310,"4.0.10.0",1,3,"demographics","gender",0,0,0,0,0,0,"Male",1,3468,0
"133",133,71618,"15:03:54",430505723,875576921,"4.0.10.0",1,2,"demographics","age",0,0,0,0,0,0,"36",1,2622,0
"134",134,71618,"15:03:54",430505723,875576921,"4.0.10.0",1,3,"demographics","gender",0,0,0,0,0,0,"female",1,3625,0
"135",135,71618,"10:03:46",376652053,787311848,"4.0.10.0",1,2,"demographics","age",0,0,0,0,0,0,"35",1,4107,0
"136",136,71618,"10:03:46",376652053,787311848,"4.0.10.0",1,3,"demographics","gender",0,0,0,0,0,0,"female",1,4648,0
"137",137,71618,"10:03:38",937415520,230717514,"4.0.10.0",1,2,"demographics","age",0,0,0,0,0,0,"30",1,6713,0
"138",138,71618,"10:03:38",937415520,230717514,"4.0.10.0",1,3,"demographics","gender",0,0,0,0,0,0,"male",1,10932,0
"139",139,71618,"15:04:22",227009176,910044066,"4.0.10.0",1,2,"demographics","age",0,0,0,0,0,0,"31",1,5541,0
"140",140,71618,"15:04:22",227009176,910044066,"4.0.10.0",1,3,"demographics","gender",0,0,0,0,0,0,"Male",1,4778,0
"141",141,71618,"15:05:02",227671159,474334397,"4.0.10.0",1,2,"demographics","age",0,0,0,0,0,0,"53",1,3652,0
"142",142,71618,"15:05:02",227671159,474334397,"4.0.10.0",1,3,"demographics","gender",0,0,0,0,0,0,"female",1,9239,0
"143",143,71618,"15:06:35",733694934,350301937,"4.0.10.0",1,2,"demographics","age",0,0,0,0,0,0,"21",1,3245,0
"144",144,71618,"15:06:35",733694934,350301937,"4.0.10.0",1,3,"demographics","gender",0,0,0,0,0,0,"female",1,4854,0
"145",145,71618,"15:07:48",164107744,392174335,"4.0.10.0",1,2,"demographics","age",0,0,0,0,0,0,"32",1,3716,0
"146",146,71618,"15:07:48",164107744,392174335,"4.0.10.0",1,3,"demographics","gender",0,0,0,0,0,0,"male",1,3684,0
"147",147,71618,"10:07:52",707439503,934611708,"4.0.10.0",1,2,"demographics","age",0,0,0,0,0,0,"19",1,3693,0
"148",148,71618,"10:07:52",707439503,934611708,"4.0.10.0",1,3,"demographics","gender",0,0,0,0,0,0,"female",1,2888,0
"149",149,71618,"22:11:19",271178487,498350692,"4.0.10.0",1,2,"demographics","age",0,0,0,0,0,0,"38",1,3610,0
"150",150,71618,"22:11:19",271178487,498350692,"4.0.10.0",1,3,"demographics","gender",0,0,0,0,0,0,"Female",1,4153,0
"151",151,71618,"07:10:24",308347188,600769455,"4.0.10.0",1,2,"demographics","age",0,0,0,0,0,0,"23",1,5798,0
"152",152,71618,"07:10:24",308347188,600769455,"4.0.10.0",1,3,"demographics","gender",0,0,0,0,0,0,"female",1,4405,0
"153",153,71618,"10:13:06",937938681,722688639,"4.0.10.0",1,2,"demographics","age",0,0,0,0,0,0,"23",1,2731,0
"154",154,71618,"10:13:06",937938681,722688639,"4.0.10.0",1,3,"demographics","gender",0,0,0,0,0,0,"Male",1,3934,0
"155",155,71618,"15:14:28",665263046,344603030,"4.0.10.0",1,2,"demographics","age",0,0,0,0,0,0,"20",1,2843,0
"156",156,71618,"15:14:28",665263046,344603030,"4.0.10.0",1,3,"demographics","gender",0,0,0,0,0,0,"Male",1,6704,0
"157",157,71618,"10:15:26",401485431,36970580,"4.0.10.0",1,2,"demographics","age",0,0,0,0,0,0,"52",1,17718,0
"158",158,71618,"10:15:26",401485431,36970580,"4.0.10.0",1,3,"demographics","gender",0,0,0,0,0,0,"female",1,7240,0
"159",159,71618,"15:20:28",869030838,866309533,"4.0.10.0",1,2,"demographics","age",0,0,0,0,0,0,"30",1,2475,0
"160",160,71618,"15:20:28",869030838,866309533,"4.0.10.0",1,3,"demographics","gender",0,0,0,0,0,0,"Female",1,6237,0
"161",161,71618,"15:17:15",166946191,608020386,"4.0.10.0",1,2,"demographics","age",0,0,0,0,0,0,"30",1,3039,0
"162",162,71618,"15:17:15",166946191,608020386,"4.0.10.0",1,3,"demographics","gender",0,0,0,0,0,0,"female",1,3965,0
"163",163,71618,"15:17:07",452417747,866046103,"4.0.10.0",1,2,"demographics","age",0,0,0,0,0,0,"47",1,3992,0
"164",164,71618,"15:17:07",452417747,866046103,"4.0.10.0",1,3,"demographics","gender",0,0,0,0,0,0,"Female",1,5124,0
"165",165,71618,"10:18:00",940275690,179416344,"4.0.10.0",1,2,"demographics","age",0,0,0,0,0,0,"18",1,2345,0
"166",166,71618,"10:18:00",940275690,179416344,"4.0.10.0",1,3,"demographics","gender",0,0,0,0,0,0,"male",1,3352,0
"167",167,71618,"15:17:26",711649134,952261778,"4.0.10.0",1,2,"demographics","age",0,0,0,0,0,0,"35",1,5126,0
"168",168,71618,"15:17:26",711649134,952261778,"4.0.10.0",1,3,"demographics","gender",0,0,0,0,0,0,"female",1,4114,0
"169",169,71618,"10:17:33",895159870,354547274,"4.0.10.0",1,2,"demographics","age",0,0,0,0,0,0,"32",1,6823,0
"170",170,71618,"10:17:33",895159870,354547274,"4.0.10.0",1,3,"demographics","gender",0,0,0,0,0,0,"FEMALE",1,5339,0
"171",171,71618,"10:19:58",329101916,331448779,"4.0.10.0",1,2,"demographics","age",0,0,0,0,0,0,"22",1,3469,0
"172",172,71618,"10:19:58",329101916,331448779,"4.0.10.0",1,3,"demographics","gender",0,0,0,0,0,0,"female",1,7957,0
"173",173,71618,"09:19:27",658596141,709057711,"4.0.10.0",1,2,"demographics","age",0,0,0,0,0,0,"27",1,3282,0
"174",174,71618,"09:19:27",658596141,709057711,"4.0.10.0",1,3,"demographics","gender",0,0,0,0,0,0,"F",1,3056,0
"175",175,71618,"15:21:07",747100094,355139417,"4.0.10.0",1,2,"demographics","age",0,0,0,0,0,0,"48",1,10630,0
"176",176,71618,"15:21:07",747100094,355139417,"4.0.10.0",1,3,"demographics","gender",0,0,0,0,0,0,"female",1,9487,0
"177",177,71618,"09:21:12",918233661,239892503,"4.0.10.0",1,2,"demographics","age",0,0,0,0,0,0,"22",1,4617,0
"178",178,71618,"09:21:12",918233661,239892503,"4.0.10.0",1,3,"demographics","gender",0,0,0,0,0,0,"Female",1,5316,0
"179",179,71618,"15:21:41",320304737,689198556,"4.0.10.0",1,2,"demographics","age",0,0,0,0,0,0,"24",1,2937,0
"180",180,71618,"15:21:41",320304737,689198556,"4.0.10.0",1,3,"demographics","gender",0,0,0,0,0,0,"female",1,3173,0
"181",181,71618,"10:22:36",12863378,11515328,"4.0.10.0",1,2,"demographics","age",0,0,0,0,0,0,"33",1,2446,0
"182",182,71618,"10:22:36",12863378,11515328,"4.0.10.0",1,3,"demographics","gender",0,0,0,0,0,0,"Male",1,2895,0
"183",183,71618,"08:23:14",323199007,644857832,"4.0.10.0",1,2,"demographics","age",0,0,0,0,0,0,"24",1,4627,0
"184",184,71618,"08:23:14",323199007,644857832,"4.0.10.0",1,3,"demographics","gender",0,0,0,0,0,0,"Male",1,3770,0
"185",185,71618,"15:23:25",926761325,295357034,"4.0.10.0",1,2,"demographics","age",0,0,0,0,0,0,"47",1,4558,0
"186",186,71618,"15:23:25",926761325,295357034,"4.0.10.0",1,3,"demographics","gender",0,0,0,0,0,0,"Female",1,8296,0
"187",187,71618,"07:24:24",827487469,168637346,"4.0.10.0",1,2,"demographics","age",0,0,0,0,0,0,"25",1,3852,0
"188",188,71618,"07:24:24",827487469,168637346,"4.0.10.0",1,3,"demographics","gender",0,0,0,0,0,0,"male",1,4022,0
"189",189,71618,"15:24:24",207619203,139843245,"4.0.10.0",1,2,"demographics","age",0,0,0,0,0,0,"31",1,3063,0
"190",190,71618,"15:24:24",207619203,139843245,"4.0.10.0",1,3,"demographics","gender",0,0,0,0,0,0,"female",1,6789,0
"191",191,71618,"10:24:53",12863378,11515328,"4.0.10.0",1,2,"demographics","age",0,0,0,0,0,0,"33",1,4498,0
"192",192,71618,"10:24:53",12863378,11515328,"4.0.10.0",1,3,"demographics","gender",0,0,0,0,0,0,"Male",1,2642,0
"193",193,71618,"10:25:40",470006353,859270916,"4.0.10.0",1,2,"demographics","age",0,0,0,0,0,0,"22",1,2041,0
"194",194,71618,"10:25:40",470006353,859270916,"4.0.10.0",1,3,"demographics","gender",0,0,0,0,0,0,"Male",1,2418,0
"195",195,71618,"10:27:34",403268396,648546876,"4.0.10.0",1,2,"demographics","age",0,0,0,0,0,0,"23",1,6360,0
"196",196,71618,"10:27:34",403268396,648546876,"4.0.10.0",1,3,"demographics","gender",0,0,0,0,0,0,"Female",1,3358,0
"197",197,71618,"10:27:27",480375427,431792373,"4.0.10.0",1,2,"demographics","age",0,0,0,0,0,0,"38",1,5004,0
"198",198,71618,"10:27:27",480375427,431792373,"4.0.10.0",1,3,"demographics","gender",0,0,0,0,0,0,"Male",1,3889,0
"199",199,71618,"15:27:56",391632747,323856783,"4.0.10.0",1,2,"demographics","age",0,0,0,0,0,0,"27",1,2413,0
"200",200,71618,"15:27:56",391632747,323856783,"4.0.10.0",1,3,"demographics","gender",0,0,0,0,0,0,"male",1,2727,0
"201",201,71618,"15:29:22",654864351,652338457,"4.0.10.0",1,2,"demographics","age",0,0,0,0,0,0,"49",1,4496,0
"202",202,71618,"15:29:22",654864351,652338457,"4.0.10.0",1,3,"demographics","gender",0,0,0,0,0,0,"female",1,5404,0
"203",203,71618,"15:30:35",878700153,395053396,"4.0.10.0",1,2,"demographics","age",0,0,0,0,0,0,"20",1,3497,0
"204",204,71618,"15:30:35",878700153,395053396,"4.0.10.0",1,3,"demographics","gender",0,0,0,0,0,0,"Male",1,6129,0
"205",205,71618,"15:30:31",354307755,824618497,"4.0.10.0",1,2,"demographics","age",0,0,0,0,0,0,"64",1,6581,0
"206",206,71618,"15:30:31",354307755,824618497,"4.0.10.0",1,3,"demographics","gender",0,0,0,0,0,0,"male",1,7240,0
"207",207,71618,"15:30:48",494909145,446624219,"4.0.10.0",1,2,"demographics","age",0,0,0,0,0,0,"39",1,3940,0
"208",208,71618,"15:30:48",494909145,446624219,"4.0.10.0",1,3,"demographics","gender",0,0,0,0,0,0,"male",1,5548,0
"209",209,71618,"10:34:08",223748906,912834396,"4.0.10.0",1,2,"demographics","age",0,0,0,0,0,0,"50",1,3394,0
"210",210,71618,"10:34:08",223748906,912834396,"4.0.10.0",1,3,"demographics","gender",0,0,0,0,0,0,"male",1,4501,0
"211",211,71618,"07:34:28",561922949,688557942,"4.0.10.0",1,2,"demographics","age",0,0,0,0,0,0,"39",1,5725,0
"212",212,71618,"07:34:28",561922949,688557942,"4.0.10.0",1,3,"demographics","gender",0,0,0,0,0,0,"Female",1,4044,0
"213",213,71618,"15:35:07",598020153,353533557,"4.0.10.0",1,2,"demographics","age",0,0,0,0,0,0,"44",1,9444,0
"214",214,71618,"15:35:07",598020153,353533557,"4.0.10.0",1,3,"demographics","gender",0,0,0,0,0,0,"Female",1,5993,0
"215",215,71618,"15:35:56",5407592,302702628,"4.0.10.0",1,2,"demographics","age",0,0,0,0,0,0,"42",1,3534,0
"216",216,71618,"15:35:56",5407592,302702628,"4.0.10.0",1,3,"demographics","gender",0,0,0,0,0,0,"Female",1,5537,0
"217",217,71618,"15:37:26",625702880,924175746,"4.0.10.0",1,2,"demographics","age",0,0,0,0,0,0,"46",1,3824,0
"218",218,71618,"15:37:26",625702880,924175746,"4.0.10.0",1,3,"demographics","gender",0,0,0,0,0,0,"female",1,6589,0
"219",219,71618,"15:36:18",694430924,601113332,"4.0.10.0",1,2,"demographics","age",0,0,0,0,0,0,"48",1,3607,0
"220",220,71618,"15:36:18",694430924,601113332,"4.0.10.0",1,3,"demographics","gender",0,0,0,0,0,0,"female",1,7258,0
"221",221,71618,"15:36:29",956514666,864076786,"4.0.10.0",1,2,"demographics","age",0,0,0,0,0,0,"27",1,3036,0
"222",222,71618,"15:36:29",956514666,864076786,"4.0.10.0",1,3,"demographics","gender",0,0,0,0,0,0,"female",1,6832,0
"223",223,71618,"15:37:02",556861536,27172297,"4.0.10.0",1,2,"demographics","age",0,0,0,0,0,0,"51",1,2878,0
"224",224,71618,"15:37:02",556861536,27172297,"4.0.10.0",1,3,"demographics","gender",0,0,0,0,0,0,"MALE",1,4593,0
"225",225,71618,"15:38:54",737698530,984361772,"4.0.10.0",1,2,"demographics","age",0,0,0,0,0,0,"22",1,2857,0
"226",226,71618,"15:38:54",737698530,984361772,"4.0.10.0",1,3,"demographics","gender",0,0,0,0,0,0,"female",1,3245,0
"227",227,71618,"10:39:05",870732732,97904951,"4.0.10.0",1,2,"demographics","age",0,0,0,0,0,0,"20",1,4010,0
"228",228,71618,"10:39:05",870732732,97904951,"4.0.10.0",1,3,"demographics","gender",0,0,0,0,0,0,"Male",1,3736,0
"229",229,71618,"12:09:37",704208922,388421664,"4.0.10.0",1,2,"demographics","age",0,0,0,0,0,0,"29",1,3380,0
"230",230,71618,"12:09:37",704208922,388421664,"4.0.10.0",1,3,"demographics","gender",0,0,0,0,0,0,"male",1,2622,0
"231",231,71618,"15:40:01",759096912,691114029,"4.0.10.0",1,2,"demographics","age",0,0,0,0,0,0,"19",1,2907,0
"232",232,71618,"15:40:01",759096912,691114029,"4.0.10.0",1,3,"demographics","gender",0,0,0,0,0,0,"Male",1,3886,0
"233",233,71618,"10:40:07",722748833,778083163,"4.0.10.0",1,2,"demographics","age",0,0,0,0,0,0,"29",1,2315,0
"234",234,71618,"10:40:07",722748833,778083163,"4.0.10.0",1,3,"demographics","gender",0,0,0,0,0,0,"female",1,3470,0
"235",235,71618,"10:40:30",918064663,925284293,"4.0.10.0",1,2,"demographics","age",0,0,0,0,0,0,"60",1,4951,0
"236",236,71618,"10:40:30",918064663,925284293,"4.0.10.0",1,3,"demographics","gender",0,0,0,0,0,0,"female",1,7005,0
"237",237,71618,"15:40:16",243758301,688527417,"4.0.10.0",1,2,"demographics","age",0,0,0,0,0,0,"22",1,2077,0
"238",238,71618,"15:40:16",243758301,688527417,"4.0.10.0",1,3,"demographics","gender",0,0,0,0,0,0,"Female",1,3010,0
"239",239,71618,"09:41:00",47856922,494116681,"4.0.10.0",1,2,"demographics","age",0,0,0,0,0,0,"45",1,3151,0
"240",240,71618,"09:41:00",47856922,494116681,"4.0.10.0",1,3,"demographics","gender",0,0,0,0,0,0,"female",1,4103,0
"241",241,71618,"15:41:01",600937579,893359853,"4.0.10.0",1,2,"demographics","age",0,0,0,0,0,0,"49",1,5137,0
"242",242,71618,"15:41:01",600937579,893359853,"4.0.10.0",1,3,"demographics","gender",0,0,0,0,0,0,"female",1,5594,0
"243",243,71718,"00:41:16",571123800,427174423,"4.0.10.0",1,2,"demographics","age",0,0,0,0,0,0,"41",1,3612,0
"244",244,71718,"00:41:16",571123800,427174423,"4.0.10.0",1,3,"demographics","gender",0,0,0,0,0,0,"Male",1,6770,0
"245",245,71618,"09:41:24",173339421,809437455,"4.0.10.0",1,2,"demographics","age",0,0,0,0,0,0,"51",1,4010,0
"246",246,71618,"09:41:24",173339421,809437455,"4.0.10.0",1,3,"demographics","gender",0,0,0,0,0,0,"Female",1,5913,0
"247",247,71618,"22:41:56",278184004,524847251,"4.0.10.0",1,2,"demographics","age",0,0,0,0,0,0,"33",1,2779,0
"248",248,71618,"22:41:56",278184004,524847251,"4.0.10.0",1,3,"demographics","gender",0,0,0,0,0,0,"Female",1,3541,0
"249",249,71618,"15:42:50",911503236,232955159,"4.0.10.0",1,2,"demographics","age",0,0,0,0,0,0,"18",1,5299,0
"250",250,71618,"15:42:50",911503236,232955159,"4.0.10.0",1,3,"demographics","gender",0,0,0,0,0,0,"male",1,4732,0
"251",251,71618,"10:43:25",754044232,370651236,"4.0.10.0",1,2,"demographics","age",0,0,0,0,0,0,"24",1,3083,0
"252",252,71618,"10:43:25",754044232,370651236,"4.0.10.0",1,3,"demographics","gender",0,0,0,0,0,0,"Male",1,2895,0
"253",253,71618,"15:43:23",902242991,368594012,"4.0.10.0",1,2,"demographics","age",0,0,0,0,0,0,"38",1,2470,0
"254",254,71618,"15:43:23",902242991,368594012,"4.0.10.0",1,3,"demographics","gender",0,0,0,0,0,0,"Male",1,3431,0
"255",255,71618,"15:43:30",850269143,515307612,"4.0.10.0",1,2,"demographics","age",0,0,0,0,0,0,"51",1,1991,0
"256",256,71618,"15:43:30",850269143,515307612,"4.0.10.0",1,3,"demographics","gender",0,0,0,0,0,0,"male",1,2144,0
"257",257,71618,"15:42:56",365153287,220026072,"4.0.10.0",1,2,"demographics","age",0,0,0,0,0,0,"19",1,2265,0
"258",258,71618,"15:42:56",365153287,220026072,"4.0.10.0",1,3,"demographics","gender",0,0,0,0,0,0,"female",1,4829,0
"259",259,71618,"15:44:46",911503236,232955159,"4.0.10.0",1,2,"demographics","age",0,0,0,0,0,0,"18",1,7569,0
"260",260,71618,"15:44:46",911503236,232955159,"4.0.10.0",1,3,"demographics","gender",0,0,0,0,0,0,"male",1,4227,0
"261",261,71618,"22:44:30",228755823,694193812,"4.0.10.0",1,2,"demographics","age",0,0,0,0,0,0,"28",1,4020,0
"262",262,71618,"22:44:30",228755823,694193812,"4.0.10.0",1,3,"demographics","gender",0,0,0,0,0,0,"Female",1,3902,0
"263",263,71618,"10:44:50",260021946,725161810,"4.0.10.0",1,2,"demographics","age",0,0,0,0,0,0,"30",1,5076,0
"264",264,71618,"10:44:50",260021946,725161810,"4.0.10.0",1,3,"demographics","gender",0,0,0,0,0,0,"Male",1,2936,0
"265",265,71618,"15:44:40",356942597,21664305,"4.0.10.0",1,2,"demographics","age",0,0,0,0,0,0,"35",1,7514,0
"266",266,71618,"15:44:40",356942597,21664305,"4.0.10.0",1,3,"demographics","gender",0,0,0,0,0,0,"female",1,5577,0
"267",267,71618,"15:37:38",367055243,487639637,"4.0.10.0",1,2,"demographics","age",0,0,0,0,0,0,"41",1,3914,0
"268",268,71618,"15:37:38",367055243,487639637,"4.0.10.0",1,3,"demographics","gender",0,0,0,0,0,0,"m",1,2522,0
"269",269,71618,"15:45:23",782911765,637784548,"4.0.10.0",1,2,"demographics","age",0,0,0,0,0,0,"21",1,3009,0
"270",270,71618,"15:45:23",782911765,637784548,"4.0.10.0",1,3,"demographics","gender",0,0,0,0,0,0,"Male",1,4284,0
"271",271,71618,"15:45:45",972737838,199910059,"4.0.10.0",1,2,"demographics","age",0,0,0,0,0,0,"32",1,3639,0
"272",272,71618,"15:45:45",972737838,199910059,"4.0.10.0",1,3,"demographics","gender",0,0,0,0,0,0,"Female",1,5706,0
"273",273,71618,"10:45:43",746863277,363470281,"4.0.10.0",1,2,"demographics","age",0,0,0,0,0,0,"35",1,4106,0
"274",274,71618,"10:45:43",746863277,363470281,"4.0.10.0",1,3,"demographics","gender",0,0,0,0,0,0,"female",1,6304,0
"275",275,71618,"09:46:26",267367523,512852936,"4.0.10.0",1,2,"demographics","age",0,0,0,0,0,0,"25",1,4366,0
"276",276,71618,"09:46:26",267367523,512852936,"4.0.10.0",1,3,"demographics","gender",0,0,0,0,0,0,"female",1,4387,0
"277",277,71618,"10:46:39",912504089,373367461,"4.0.10.0",1,2,"demographics","age",0,0,0,0,0,0,"32",1,4339,0
"278",278,71618,"10:46:39",912504089,373367461,"4.0.10.0",1,3,"demographics","gender",0,0,0,0,0,0,"male",1,4128,0
"279",279,71618,"07:47:09",717080603,568258466,"4.0.10.0",1,2,"demographics","age",0,0,0,0,0,0,"44",1,6136,0
"280",280,71618,"07:47:09",717080603,568258466,"4.0.10.0",1,3,"demographics","gender",0,0,0,0,0,0,"Female",1,10971,0
"281",281,71618,"15:47:33",785719963,463882110,"4.0.10.0",1,2,"demographics","age",0,0,0,0,0,0,"20",1,9260,0
"282",282,71618,"15:47:33",785719963,463882110,"4.0.10.0",1,3,"demographics","gender",0,0,0,0,0,0,"Female",1,5720,0
"283",283,71618,"15:47:54",707940987,491513110,"4.0.10.0",1,2,"demographics","age",0,0,0,0,0,0,"60",1,6332,0
"284",284,71618,"15:47:54",707940987,491513110,"4.0.10.0",1,3,"demographics","gender",0,0,0,0,0,0,"female",1,9131,0
"285",285,71618,"15:47:30",626617529,477795391,"4.0.10.0",1,2,"demographics","age",0,0,0,0,0,0,"19",1,6174,0
"286",286,71618,"15:47:30",626617529,477795391,"4.0.10.0",1,3,"demographics","gender",0,0,0,0,0,0,"female",1,6426,0
"287",287,71618,"10:46:26",860647278,909931015,"4.0.10.0",1,2,"demographics","age",0,0,0,0,0,0,"24",1,107604,0
"288",288,71618,"10:46:26",860647278,909931015,"4.0.10.0",1,3,"demographics","gender",0,0,0,0,0,0,"male",1,2559,0
"289",289,71618,"15:48:37",471972117,303658948,"4.0.10.0",1,2,"demographics","age",0,0,0,0,0,0,"29",1,3287,0
"290",290,71618,"15:48:37",471972117,303658948,"4.0.10.0",1,3,"demographics","gender",0,0,0,0,0,0,"female",1,5189,0
"291",291,71618,"09:49:03",52046162,664958237,"4.0.10.0",1,2,"demographics","age",0,0,0,0,0,0,"35",1,4955,0
"292",292,71618,"09:49:03",52046162,664958237,"4.0.10.0",1,3,"demographics","gender",0,0,0,0,0,0,"Female",1,8349,0
"293",293,71618,"15:49:33",626617529,477795391,"4.0.10.0",1,2,"demographics","age",0,0,0,0,0,0,"19",1,3166,0
"294",294,71618,"15:49:33",626617529,477795391,"4.0.10.0",1,3,"demographics","gender",0,0,0,0,0,0,"female",1,3811,0
"295",295,71618,"15:49:48",369189900,152762024,"4.0.10.0",1,2,"demographics","age",0,0,0,0,0,0,"29",1,2327,0
"296",296,71618,"15:49:48",369189900,152762024,"4.0.10.0",1,3,"demographics","gender",0,0,0,0,0,0,"F",1,2565,0
"297",297,71618,"15:50:33",279592186,54389710,"4.0.10.0",1,2,"demographics","age",0,0,0,0,0,0,"30",1,6091,0
"298",298,71618,"15:50:33",279592186,54389710,"4.0.10.0",1,3,"demographics","gender",0,0,0,0,0,0,"female",1,4596,0
"299",299,71618,"15:50:23",225432303,854556011,"4.0.10.0",1,2,"demographics","age",0,0,0,0,0,0,"38",1,5721,0
"300",300,71618,"15:50:23",225432303,854556011,"4.0.10.0",1,3,"demographics","gender",0,0,0,0,0,0,"Female",1,22543,0
"301",301,71718,"00:51:02",318842506,387617282,"4.0.10.0",1,2,"demographics","age",0,0,0,0,0,0,"29",1,2540,0
"302",302,71718,"00:51:02",318842506,387617282,"4.0.10.0",1,3,"demographics","gender",0,0,0,0,0,0,"M",1,2508,0
"303",303,71618,"15:50:52",727478645,167375011,"4.0.10.0",1,2,"demographics","age",0,0,0,0,0,0,"42",1,3141,0
"304",304,71618,"15:50:52",727478645,167375011,"4.0.10.0",1,3,"demographics","gender",0,0,0,0,0,0,"female",1,9371,0
"305",305,71618,"10:50:49",455181062,239069947,"4.0.10.0",1,2,"demographics","age",0,0,0,0,0,0,"47",1,3606,0
"306",306,71618,"10:50:49",455181062,239069947,"4.0.10.0",1,3,"demographics","gender",0,0,0,0,0,0,"female",1,20748,0
"307",307,71618,"15:51:09",18724175,649949448,"4.0.10.0",1,2,"demographics","age",0,0,0,0,0,0,"26",1,3734,0
"308",308,71618,"15:51:09",18724175,649949448,"4.0.10.0",1,3,"demographics","gender",0,0,0,0,0,0,"female",1,5261,0
"309",309,71618,"10:51:49",571226394,469341127,"4.0.10.0",1,2,"demographics","age",0,0,0,0,0,0,"25",1,5187,0
"310",310,71618,"10:51:49",571226394,469341127,"4.0.10.0",1,3,"demographics","gender",0,0,0,0,0,0,"male",1,3639,0
"311",311,71718,"00:52:40",318842506,387617282,"4.0.10.0",1,2,"demographics","age",0,0,0,0,0,0,"29",1,2283,0
"312",312,71718,"00:52:40",318842506,387617282,"4.0.10.0",1,3,"demographics","gender",0,0,0,0,0,0,"M",1,1235,0
"313",313,71618,"10:52:15",339933414,389217149,"4.0.10.0",1,2,"demographics","age",0,0,0,0,0,0,"23",1,2447,0
"314",314,71618,"10:52:15",339933414,389217149,"4.0.10.0",1,3,"demographics","gender",0,0,0,0,0,0,"Male",1,2037,0
"315",315,71618,"15:52:39",285748304,69320430,"4.0.10.0",1,2,"demographics","age",0,0,0,0,0,0,"23",1,10843,0
"316",316,71618,"15:52:39",285748304,69320430,"4.0.10.0",1,3,"demographics","gender",0,0,0,0,0,0,"Female",1,4307,0
"317",317,71618,"15:53:11",232515921,236040629,"4.0.10.0",1,2,"demographics","age",0,0,0,0,0,0,"21",1,2222,0
"318",318,71618,"15:53:11",232515921,236040629,"4.0.10.0",1,3,"demographics","gender",0,0,0,0,0,0,"Female",1,3624,0
"319",319,71618,"10:53:11",339933414,389217149,"4.0.10.0",1,2,"demographics","age",0,0,0,0,0,0,"23",1,4795,0
"320",320,71618,"10:53:11",339933414,389217149,"4.0.10.0",1,3,"demographics","gender",0,0,0,0,0,0,"Male",1,2808,0
"321",321,71618,"15:57:16",597148525,884698043,"4.0.10.0",1,2,"demographics","age",0,0,0,0,0,0,"43",1,5988,0
"322",322,71618,"15:57:16",597148525,884698043,"4.0.10.0",1,3,"demographics","gender",0,0,0,0,0,0,"female",1,9375,0
"323",323,71618,"15:54:20",693094774,129296219,"4.0.10.0",1,2,"demographics","age",0,0,0,0,0,0,"46",1,4099,0
"324",324,71618,"15:54:20",693094774,129296219,"4.0.10.0",1,3,"demographics","gender",0,0,0,0,0,0,"female",1,7201,0
"325",325,71618,"15:55:35",362130543,756267867,"4.0.10.0",1,2,"demographics","age",0,0,0,0,0,0,"22",1,5999,0
"326",326,71618,"15:55:35",362130543,756267867,"4.0.10.0",1,3,"demographics","gender",0,0,0,0,0,0,"Male",1,5567,0
"327",327,71618,"15:55:59",281374661,278848772,"4.0.10.0",1,2,"demographics","age",0,0,0,0,0,0,"23",1,4757,0
"328",328,71618,"15:55:59",281374661,278848772,"4.0.10.0",1,3,"demographics","gender",0,0,0,0,0,0,"Male",1,5437,0
"329",329,71618,"15:56:12",759508560,319433172,"4.0.10.0",1,2,"demographics","age",0,0,0,0,0,0,"46",1,3748,0
"330",330,71618,"15:56:12",759508560,319433172,"4.0.10.0",1,3,"demographics","gender",0,0,0,0,0,0,"female",1,7199,0
"331",331,71618,"15:56:39",332785631,263831835,"4.0.10.0",1,2,"demographics","age",0,0,0,0,0,0,"43",1,3590,0
"332",332,71618,"15:56:39",332785631,263831835,"4.0.10.0",1,3,"demographics","gender",0,0,0,0,0,0,"Female",1,4905,0
"333",333,71618,"15:57:01",294531954,464142070,"4.0.10.0",1,2,"demographics","age",0,0,0,0,0,0,"25",1,3952,0
"334",334,71618,"15:57:01",294531954,464142070,"4.0.10.0",1,3,"demographics","gender",0,0,0,0,0,0,"female",1,2467,0
"335",335,71618,"16:01:26",794733205,726957240,"4.0.10.0",1,2,"demographics","age",0,0,0,0,0,0,"21",1,2778,0
"336",336,71618,"16:01:26",794733205,726957240,"4.0.10.0",1,3,"demographics","gender",0,0,0,0,0,0,"Female",1,3055,0
"337",337,71618,"10:56:41",985530741,983004851,"4.0.10.0",1,2,"demographics","age",0,0,0,0,0,0,"53",1,3428,0
"338",338,71618,"10:56:41",985530741,983004851,"4.0.10.0",1,3,"demographics","gender",0,0,0,0,0,0,"Male",1,6576,0
"339",339,71618,"11:01:17",775276272,96935104,"4.0.10.0",1,2,"demographics","age",0,0,0,0,0,0,"21",1,4371,0
"340",340,71618,"11:01:17",775276272,96935104,"4.0.10.0",1,3,"demographics","gender",0,0,0,0,0,0,"Male",1,3226,0
"341",341,71618,"16:16:09",443761945,841910949,"4.0.10.0",1,2,"demographics","age",0,0,0,0,0,0,"37",1,4131,0
"342",342,71618,"16:16:09",443761945,841910949,"4.0.10.0",1,3,"demographics","gender",0,0,0,0,0,0,"female",1,6026,0
"343",343,71618,"16:17:45",816175913,433960753,"4.0.10.0",1,2,"demographics","age",0,0,0,0,0,0,"63",1,4737,0
"344",344,71618,"16:17:45",816175913,433960753,"4.0.10.0",1,3,"demographics","gender",0,0,0,0,0,0,"female",1,6473,0
"345",345,71618,"11:19:50",228981952,83854743,"4.0.10.0",1,2,"demographics","age",0,0,0,0,0,0,"18",1,3566,0
"346",346,71618,"11:19:50",228981952,83854743,"4.0.10.0",1,3,"demographics","gender",0,0,0,0,0,0,"female",1,3206,0
"347",347,71618,"11:20:41",229716481,131526138,"4.0.10.0",1,2,"demographics","age",0,0,0,0,0,0,"45",1,6027,0
"348",348,71618,"11:20:41",229716481,131526138,"4.0.10.0",1,3,"demographics","gender",0,0,0,0,0,0,"female",1,6037,0
"349",349,71718,"10:13:36",913139435,954933050,"4.0.10.0",1,2,"demographics","age",0,0,0,0,0,0,"27",1,2576,0
"350",350,71718,"10:13:36",913139435,954933050,"4.0.10.0",1,3,"demographics","gender",0,0,0,0,0,0,"female",1,3414,0
"351",351,71718,"15:14:40",756072785,41432451,"4.0.10.0",1,2,"demographics","age",0,0,0,0,0,0,"35",1,3925,0
"352",352,71718,"15:14:40",756072785,41432451,"4.0.10.0",1,3,"demographics","gender",0,0,0,0,0,0,"Male",1,4453,0
"353",353,71718,"15:14:56",529127635,386635382,"4.0.10.0",1,2,"demographics","age",0,0,0,0,0,0,"38",1,3343,0
"354",354,71718,"15:14:56",529127635,386635382,"4.0.10.0",1,3,"demographics","gender",0,0,0,0,0,0,"Male",1,4506,0
"355",355,71718,"15:15:18",541592424,842029900,"4.0.10.0",1,2,"demographics","age",0,0,0,0,0,0,"26",1,6090,0
"356",356,71718,"15:15:18",541592424,842029900,"4.0.10.0",1,3,"demographics","gender",0,0,0,0,0,0,"male",1,3132,0
"357",357,71718,"15:16:51",857341101,627533922,"4.0.10.0",1,2,"demographics","age",0,0,0,0,0,0,"39",1,3652,0
"358",358,71718,"15:16:51",857341101,627533922,"4.0.10.0",1,3,"demographics","gender",0,0,0,0,0,0,"female",1,6231,0
"359",359,71718,"10:16:37",914013471,808760508,"4.0.10.0",1,2,"demographics","age",0,0,0,0,0,0,"27",1,2593,0
"360",360,71718,"10:16:37",914013471,808760508,"4.0.10.0",1,3,"demographics","gender",0,0,0,0,0,0,"male",1,3261,0
"361",361,71718,"09:17:32",192780779,979149277,"4.0.10.0",1,2,"demographics","age",0,0,0,0,0,0,"59",1,3964,0
"362",362,71718,"09:17:32",192780779,979149277,"4.0.10.0",1,3,"demographics","gender",0,0,0,0,0,0,"Female",1,5276,0
"363",363,71718,"07:17:47",539896824,840036172,"4.0.10.0",1,2,"demographics","age",0,0,0,0,0,0,"26",1,9724,0
"364",364,71718,"07:17:47",539896824,840036172,"4.0.10.0",1,3,"demographics","gender",0,0,0,0,0,0,"Male",1,5182,0
"365",365,71718,"10:19:14",890667283,305914201,"4.0.10.0",1,2,"demographics","age",0,0,0,0,0,0,"32",1,2437,0
"366",366,71718,"10:19:14",890667283,305914201,"4.0.10.0",1,3,"demographics","gender",0,0,0,0,0,0,"female",1,2458,0
"367",367,71718,"10:28:22",524740317,795643111,"4.0.10.0",1,2,"demographics","age",0,0,0,0,0,0,"27",1,9261,0
"368",368,71718,"10:28:22",524740317,795643111,"4.0.10.0",1,3,"demographics","gender",0,0,0,0,0,0,"male",1,16402,0
"369",369,71718,"10:29:26",191207109,344033800,"4.0.10.0",1,2,"demographics","age",0,0,0,0,0,0,"38",1,5299,0
"370",370,71718,"10:29:26",191207109,344033800,"4.0.10.0",1,3,"demographics","gender",0,0,0,0,0,0,"Male",1,3455,0
"371",371,121418,"14:35:29",1,475587649,"4.0.10.0",1,2,"demographics","age",0,0,0,0,0,0,"40",1,3527,0
"372",372,121418,"14:35:29",1,475587649,"4.0.10.0",1,3,"demographics","gender",0,0,0,0,0,0,"female",1,12111,0
"373",373,121418,"14:36:27",1,424435398,"4.0.10.0",1,2,"demographics","age",0,0,0,0,0,0,"22",1,3999,0
"374",374,121418,"14:36:27",1,424435398,"4.0.10.0",1,3,"demographics","gender",0,0,0,0,0,0,"Male",1,3827,0
"375",375,121418,"14:37:43",1,75924109,"4.0.10.0",1,2,"demographics","age",0,0,0,0,0,0,"30",1,3321,0
"376",376,121418,"14:37:43",1,75924109,"4.0.10.0",1,3,"demographics","gender",0,0,0,0,0,0,"female",1,3809,0
"377",377,121418,"14:55:24",1,746338923,"4.0.10.0",1,2,"demographics","age",0,0,0,0,0,0,"34",1,6427,0
"378",378,121418,"14:55:24",1,746338923,"4.0.10.0",1,3,"demographics","gender",0,0,0,0,0,0,"34",1,4358,0
"379",379,121418,"10:05:56",1,101262426,"4.0.10.0",1,2,"demographics","age",0,0,0,0,0,0,"24",1,2505,0
"380",380,121418,"10:05:56",1,101262426,"4.0.10.0",1,3,"demographics","gender",0,0,0,0,0,0,"male",1,3374,0
"381",381,121418,"15:09:28",1,948175176,"4.0.10.0",1,2,"demographics","age",0,0,0,0,0,0,"29",1,3847,0
"382",382,121418,"15:09:28",1,948175176,"4.0.10.0",1,3,"demographics","gender",0,0,0,0,0,0,"Female",1,4448,0
"383",383,121418,"15:11:46",1,262081425,"4.0.10.0",1,2,"demographics","age",0,0,0,0,0,0,"23",1,6424,0
"384",384,121418,"15:11:46",1,262081425,"4.0.10.0",1,3,"demographics","gender",0,0,0,0,0,0,"male",1,3320,0
"385",385,121418,"15:15:20",1,698612986,"4.0.10.0",1,2,"demographics","age",0,0,0,0,0,0,"48",1,6065,0
"386",386,121418,"15:15:20",1,698612986,"4.0.10.0",1,3,"demographics","gender",0,0,0,0,0,0,"female",1,5114,0
"387",387,121418,"15:14:30",1,320805322,"4.0.10.0",1,2,"demographics","age",0,0,0,0,0,0,"36",1,4755,0
"388",388,121418,"15:14:30",1,320805322,"4.0.10.0",1,3,"demographics","gender",0,0,0,0,0,0,"female",1,5854,0
"389",389,121418,"15:18:29",1,822831156,"4.0.10.0",1,2,"demographics","age",0,0,0,0,0,0,"38",1,3228,0
"390",390,121418,"15:18:29",1,822831156,"4.0.10.0",1,3,"demographics","gender",0,0,0,0,0,0,"male",1,4846,0
"391",391,121418,"15:19:32",1,582637350,"4.0.10.0",1,2,"demographics","age",0,0,0,0,0,0,"27",1,4802,0
"392",392,121418,"15:19:32",1,582637350,"4.0.10.0",1,3,"demographics","gender",0,0,0,0,0,0,"Female",1,9276,0
"393",393,121418,"15:19:38",1,736176140,"4.0.10.0",1,2,"demographics","age",0,0,0,0,0,0,"41",1,5524,0
"394",394,121418,"15:19:38",1,736176140,"4.0.10.0",1,3,"demographics","gender",0,0,0,0,0,0,"Male",1,5099,0
"395",395,121418,"15:19:40",1,662593661,"4.0.10.0",1,2,"demographics","age",0,0,0,0,0,0,"47",1,3692,0
"396",396,121418,"15:19:40",1,662593661,"4.0.10.0",1,3,"demographics","gender",0,0,0,0,0,0,"male",1,4310,0
"397",397,121418,"15:21:02",1,710850498,"4.0.10.0",1,2,"demographics","age",0,0,0,0,0,0,"27",1,2504,0
"398",398,121418,"15:21:02",1,710850498,"4.0.10.0",1,3,"demographics","gender",0,0,0,0,0,0,"female",1,3226,0
"399",399,121418,"15:22:52",1,223027094,"4.0.10.0",1,2,"demographics","age",0,0,0,0,0,0,"28",1,5947,0
"400",400,121418,"15:22:52",1,223027094,"4.0.10.0",1,3,"demographics","gender",0,0,0,0,0,0,"Female",1,2912,0
"401",401,121418,"15:23:06",1,859570573,"4.0.10.0",1,2,"demographics","age",0,0,0,0,0,0,"32",1,2708,0
"402",402,121418,"15:23:06",1,859570573,"4.0.10.0",1,3,"demographics","gender",0,0,0,0,0,0,"female",1,2722,0
"403",403,121418,"15:26:27",1,4760432,"4.0.10.0",1,2,"demographics","age",0,0,0,0,0,0,"18",1,4492,0
"404",404,121418,"15:26:27",1,4760432,"4.0.10.0",1,3,"demographics","gender",0,0,0,0,0,0,"female",1,6744,0
"405",405,121418,"15:29:52",1,364261625,"4.0.10.0",1,2,"demographics","age",0,0,0,0,0,0,"38",1,3282,0
"406",406,121418,"15:29:52",1,364261625,"4.0.10.0",1,3,"demographics","gender",0,0,0,0,0,0,"Male",1,3553,0
"407",407,121418,"15:29:33",1,307860280,"4.0.10.0",1,2,"demographics","age",0,0,0,0,0,0,"30",1,4043,0
"408",408,121418,"15:29:33",1,307860280,"4.0.10.0",1,3,"demographics","gender",0,0,0,0,0,0,"male",1,5805,0
"409",409,121418,"15:30:26",1,675958720,"4.0.10.0",1,2,"demographics","age",0,0,0,0,0,0,"29",1,2533,0
"410",410,121418,"15:30:26",1,675958720,"4.0.10.0",1,3,"demographics","gender",0,0,0,0,0,0,"m",1,2232,0
"411",411,121418,"10:29:12",1,525193025,"4.0.10.0",1,2,"demographics","age",0,0,0,0,0,0,"34",1,3824,0
"412",412,121418,"10:29:12",1,525193025,"4.0.10.0",1,3,"demographics","gender",0,0,0,0,0,0,"Female",1,4677,0
"413",413,121418,"15:32:42",1,873505925,"4.0.10.0",1,2,"demographics","age",0,0,0,0,0,0,"53",1,4583,0
"414",414,121418,"15:32:42",1,873505925,"4.0.10.0",1,3,"demographics","gender",0,0,0,0,0,0,"male",1,5860,0
"415",415,121418,"15:35:45",1,795481488,"4.0.10.0",1,2,"demographics","age",0,0,0,0,0,0,"18",1,2380,0
"416",416,121418,"15:35:45",1,795481488,"4.0.10.0",1,3,"demographics","gender",0,0,0,0,0,0,"Male",1,2504,0
"417",417,121418,"08:35:44",1,708502976,"4.0.10.0",1,2,"demographics","age",0,0,0,0,0,0,"43",1,4249,0
"418",418,121418,"08:35:44",1,708502976,"4.0.10.0",1,3,"demographics","gender",0,0,0,0,0,0,"m",1,2574,0
"419",419,121418,"15:40:48",1,558267198,"4.0.10.0",1,2,"demographics","age",0,0,0,0,0,0,"33",1,2249,0
"420",420,121418,"15:40:48",1,558267198,"4.0.10.0",1,3,"demographics","gender",0,0,0,0,0,0,"Male",1,3071,0
"421",421,121418,"15:40:54",1,744186913,"4.0.10.0",1,2,"demographics","age",0,0,0,0,0,0,"59",1,3878,0
"422",422,121418,"15:40:54",1,744186913,"4.0.10.0",1,3,"demographics","gender",0,0,0,0,0,0,"male",1,4724,0
"423",423,121418,"15:40:22",1,360735852,"4.0.10.0",1,2,"demographics","age",0,0,0,0,0,0,"30",1,8532,0
"424",424,121418,"15:40:22",1,360735852,"4.0.10.0",1,3,"demographics","gender",0,0,0,0,0,0,"male",1,4580,0
"425",425,121418,"15:46:05",1,736272791,"4.0.10.0",1,2,"demographics","age",0,0,0,0,0,0,"24",1,3391,0
"426",426,121418,"15:46:05",1,736272791,"4.0.10.0",1,3,"demographics","gender",0,0,0,0,0,0,"f",1,2729,0
"427",427,121418,"15:47:17",1,513345010,"4.0.10.0",1,2,"demographics","age",0,0,0,0,0,0,"41",1,4375,0
"428",428,121418,"15:47:17",1,513345010,"4.0.10.0",1,3,"demographics","gender",0,0,0,0,0,0,"female",1,5363,0
"429",429,121418,"15:48:53",1,277834946,"4.0.10.0",1,2,"demographics","age",0,0,0,0,0,0,"21",1,3390,0
"430",430,121418,"15:48:53",1,277834946,"4.0.10.0",1,3,"demographics","gender",0,0,0,0,0,0,"Female",1,3056,0
"431",431,121418,"16:02:02",1,130397844,"4.0.10.0",1,2,"demographics","age",0,0,0,0,0,0,"25",1,2933,0
"432",432,121418,"16:02:02",1,130397844,"4.0.10.0",1,3,"demographics","gender",0,0,0,0,0,0,"female",1,4037,0
"433",433,121418,"16:02:49",1,753948021,"4.0.10.0",1,2,"demographics","age",0,0,0,0,0,0,"19",1,3024,0
"434",434,121418,"16:02:49",1,753948021,"4.0.10.0",1,3,"demographics","gender",0,0,0,0,0,0,"male",1,3006,0
"435",435,121418,"11:03:24",1,897769045,"4.0.10.0",1,2,"demographics","age",0,0,0,0,0,0,"27",1,3478,0
"436",436,121418,"11:03:24",1,897769045,"4.0.10.0",1,3,"demographics","gender",0,0,0,0,0,0,"Female",1,5081,0
"437",437,121418,"16:08:33",1,267973744,"4.0.10.0",1,2,"demographics","age",0,0,0,0,0,0,"43",1,10758,0
"438",438,121418,"16:08:33",1,267973744,"4.0.10.0",1,3,"demographics","gender",0,0,0,0,0,0,"female",1,4963,0
