"date","time","group","subject","build","blocknum","trialnum","blockcode","trialcode","pretrialpause","posttrialpause","windowcenter","trialduration","trialtimeout","blocktimeout","response","correct","latency","inwindow"
"071618","08:07:40","849062963","217658675","4.0.10.0","1","1","demographics","ProlificCode","0","0","0","0","0","0","5b2af5130ec82d0001d28746","1","8489","0"
"071618","08:07:40","849062963","217658675","4.0.10.0","1","2","demographics","age","0","0","0","0","0","0","21","1","4787","0"
"071618","08:07:40","849062963","217658675","4.0.10.0","1","3","demographics","gender","0","0","0","0","0","0","Male","1","4249","0"
"071618","13:25:20","95361462","387783740","4.0.10.0","1","1","demographics","ProlificCode","0","0","0","0","0","0","597c4133cae3340001135a72","1","28613","0"
"071618","13:25:20","95361462","387783740","4.0.10.0","1","2","demographics","age","0","0","0","0","0","0","41","1","4884","0"
"071618","13:25:20","95361462","387783740","4.0.10.0","1","3","demographics","gender","0","0","0","0","0","0","male","1","5564","0"
"071618","22:28:14","356979141","187488134","4.0.10.0","1","1","demographics","ProlificCode","0","0","0","0","0","0","5aecb5f6c09cd900015d7d4d","1","10466","0"
"071618","22:28:14","356979141","187488134","4.0.10.0","1","2","demographics","age","0","0","0","0","0","0","29","1","2700","0"
"071618","22:28:14","356979141","187488134","4.0.10.0","1","3","demographics","gender","0","0","0","0","0","0","male","1","3056","0"
"071618","13:28:54","95361462","387783740","4.0.10.0","1","1","demographics","ProlificCode","0","0","0","0","0","0","597c4133cae3340001135a72","1","4371","0"
"071618","13:28:54","95361462","387783740","4.0.10.0","1","2","demographics","age","0","0","0","0","0","0","41","1","4395","0"
"071618","13:28:54","95361462","387783740","4.0.10.0","1","3","demographics","gender","0","0","0","0","0","0","male","1","4940","0"
"071618","07:30:52","434342216","608526962","4.0.10.0","1","1","demographics","ProlificCode","0","0","0","0","0","0","56d0901c197fb1000b2348ee","1","19931","0"
"071618","07:30:52","434342216","608526962","4.0.10.0","1","2","demographics","age","0","0","0","0","0","0","29","1","3319","0"
"071618","07:30:52","434342216","608526962","4.0.10.0","1","3","demographics","gender","0","0","0","0","0","0","male","1","4802","0"
"071618","05:32:56","218796003","3545965","4.0.10.0","1","1","demographics","ProlificCode","0","0","0","0","0","0","5a9bed4edbdb470001eeeb34","1","12980","0"
"071618","05:32:56","218796003","3545965","4.0.10.0","1","2","demographics","age","0","0","0","0","0","0","63","1","4625","0"
"071618","05:32:56","218796003","3545965","4.0.10.0","1","3","demographics","gender","0","0","0","0","0","0","female","1","4120","0"
"071618","08:45:14","761820482","689281609","4.0.10.0","1","1","demographics","ProlificCode","0","0","0","0","0","0","5aef9f3d76b7630001330fc1","1","10655","0"
"071618","08:45:14","761820482","689281609","4.0.10.0","1","2","demographics","age","0","0","0","0","0","0","27","1","2771","0"
"071618","08:45:14","761820482","689281609","4.0.10.0","1","3","demographics","gender","0","0","0","0","0","0","Male","1","3497","0"
"071618","16:45:30","91765804","651077529","4.0.10.0","1","1","demographics","ProlificCode","0","0","0","0","0","0","55432f85fdf99b0768bb70c6","1","15848","0"
"071618","16:45:30","91765804","651077529","4.0.10.0","1","2","demographics","age","0","0","0","0","0","0","27","1","5708","0"
"071618","16:45:30","91765804","651077529","4.0.10.0","1","3","demographics","gender","0","0","0","0","0","0","male","1","4721","0"
"071618","20:50:22","783479691","861999982","4.0.10.0","1","1","demographics","ProlificCode","0","0","0","0","0","0","5aeadbb357a3540001e6cfb6","1","10995","0"
"071618","20:50:22","783479691","861999982","4.0.10.0","1","2","demographics","age","0","0","0","0","0","0","18","1","3779","0"
"071618","20:50:22","783479691","861999982","4.0.10.0","1","3","demographics","gender","0","0","0","0","0","0","Male","1","2932","0"
"071618","07:50:32","605451267","142189929","4.0.10.0","1","1","demographics","ProlificCode","0","0","0","0","0","0","599873e805a0e30001f1ff3d","1","6356","0"
"071618","07:50:32","605451267","142189929","4.0.10.0","1","2","demographics","age","0","0","0","0","0","0","27","1","5245","0"
"071618","07:50:32","605451267","142189929","4.0.10.0","1","3","demographics","gender","0","0","0","0","0","0","female","1","7703","0"
"071618","13:51:06","373449468","252686048","4.0.10.0","1","1","demographics","ProlificCode","0","0","0","0","0","0","59fb894fab721b0001ef6acf","1","7229","0"
"071618","13:51:06","373449468","252686048","4.0.10.0","1","2","demographics","age","0","0","0","0","0","0","25","1","3703","0"
"071618","13:51:06","373449468","252686048","4.0.10.0","1","3","demographics","gender","0","0","0","0","0","0","female","1","5900","0"
"071618","20:52:19","783479691","861999982","4.0.10.0","1","1","demographics","ProlificCode","0","0","0","0","0","0","5aeadbb357a3540001e6cfb6","1","3533","0"
"071618","20:52:19","783479691","861999982","4.0.10.0","1","2","demographics","age","0","0","0","0","0","0","18","1","2945","0"
"071618","20:52:19","783479691","861999982","4.0.10.0","1","3","demographics","gender","0","0","0","0","0","0","Male","1","1934","0"
"071618","13:51:55","448512600","745230009","4.0.10.0","1","1","demographics","ProlificCode","0","0","0","0","0","0","5ac607f668b65b00018d60fa","1","5407","0"
"071618","13:51:55","448512600","745230009","4.0.10.0","1","2","demographics","age","0","0","0","0","0","0","29","1","2533","0"
"071618","13:51:55","448512600","745230009","4.0.10.0","1","3","demographics","gender","0","0","0","0","0","0","Female","1","4533","0"
"071618","13:53:47","373449468","252686048","4.0.10.0","1","1","demographics","ProlificCode","0","0","0","0","0","0","59fb894fab721b0001ef6acf","1","5859","0"
"071618","13:53:47","373449468","252686048","4.0.10.0","1","2","demographics","age","0","0","0","0","0","0","25","1","3543","0"
"071618","13:53:47","373449468","252686048","4.0.10.0","1","3","demographics","gender","0","0","0","0","0","0","Female","1","6497","0"
"071618","08:54:10","319591345","347479845","4.0.10.0","1","1","demographics","ProlificCode","0","0","0","0","0","0","59c3d1dd5364260001dc4e64","1","5303","0"
"071618","08:54:10","319591345","347479845","4.0.10.0","1","2","demographics","age","0","0","0","0","0","0","32","1","2097","0"
"071618","08:54:10","319591345","347479845","4.0.10.0","1","3","demographics","gender","0","0","0","0","0","0","Male","1","4929","0"
"071618","13:59:13","373449468","252686048","4.0.10.0","1","1","demographics","ProlificCode","0","0","0","0","0","0","","1","5371","0"
"071618","14:12:45","569075955","347568400","4.0.10.0","1","1","demographics","ProlificCode","0","0","0","0","0","0","598307925f25e90001263e05","1","3165","0"
"071618","14:12:45","569075955","347568400","4.0.10.0","1","2","demographics","age","0","0","0","0","0","0","28","1","2378","0"
"071618","14:12:45","569075955","347568400","4.0.10.0","1","3","demographics","gender","0","0","0","0","0","0","Male","1","2985","0"
"071618","14:13:37","41254049","601178662","4.0.10.0","1","1","demographics","ProlificCode","0","0","0","0","0","0","577ff17a275be60001357a84","1","5556","0"
"071618","14:13:37","41254049","601178662","4.0.10.0","1","2","demographics","age","0","0","0","0","0","0","42","1","6081","0"
"071618","14:13:37","41254049","601178662","4.0.10.0","1","3","demographics","gender","0","0","0","0","0","0","female","1","8291","0"
"071618","14:14:05","569075955","347568400","4.0.10.0","1","1","demographics","ProlificCode","0","0","0","0","0","0","598307925f25e90001263e05","1","1826","0"
"071618","14:14:05","569075955","347568400","4.0.10.0","1","2","demographics","age","0","0","0","0","0","0","28","1","1914","0"
"071618","14:14:05","569075955","347568400","4.0.10.0","1","3","demographics","gender","0","0","0","0","0","0","Male","1","2652","0"
"071618","09:13:06","747279265","698994348","4.0.10.0","1","1","demographics","ProlificCode","0","0","0","0","0","0","57288b3f2865c4000e42c16d","1","3153","0"
"071618","09:13:06","747279265","698994348","4.0.10.0","1","2","demographics","age","0","0","0","0","0","0","50","1","3305","0"
"071618","09:13:06","747279265","698994348","4.0.10.0","1","3","demographics","gender","0","0","0","0","0","0","male","1","4234","0"
"071618","14:15:57","41254049","601178662","4.0.10.0","1","1","demographics","ProlificCode","0","0","0","0","0","0","577ff17a275be60001357a84","1","7591","0"
"071618","14:15:57","41254049","601178662","4.0.10.0","1","2","demographics","age","0","0","0","0","0","0","42","1","5753","0"
"071618","14:15:57","41254049","601178662","4.0.10.0","1","3","demographics","gender","0","0","0","0","0","0","female","1","6966","0"
"071618","09:20:27","16758641","181289079","4.0.10.0","1","1","demographics","ProlificCode","0","0","0","0","0","0","5718c6dbdd9ef10013df5bbb","1","10958","0"
"071618","09:20:27","16758641","181289079","4.0.10.0","1","2","demographics","age","0","0","0","0","0","0","60","1","3218","0"
"071618","09:20:27","16758641","181289079","4.0.10.0","1","3","demographics","gender","0","0","0","0","0","0","female","1","3784","0"
"071618","09:22:03","489875680","654107985","4.0.10.0","1","1","demographics","ProlificCode","0","0","0","0","0","0","","1","10959","0"
"071618","09:22:34","489875680","654107985","4.0.10.0","1","1","demographics","ProlificCode","0","0","0","0","0","0","5b06e585b10e580001a3a757","1","2122","0"
"071618","09:22:34","489875680","654107985","4.0.10.0","1","2","demographics","age","0","0","0","0","0","0","36","1","2553","0"
"071618","09:22:34","489875680","654107985","4.0.10.0","1","3","demographics","gender","0","0","0","0","0","0","Male","1","3109","0"
"071618","14:23:21","791747305","328485968","4.0.10.0","1","1","demographics","ProlificCode","0","0","0","0","0","0","5aeb6450ec80a30001c01a25","1","19269","0"
"071618","14:23:21","791747305","328485968","4.0.10.0","1","2","demographics","age","0","0","0","0","0","0","21","1","2212","0"
"071618","14:23:21","791747305","328485968","4.0.10.0","1","3","demographics","gender","0","0","0","0","0","0","male","1","3425","0"
"071618","14:19:57","66648559","754556216","4.0.10.0","1","1","demographics","ProlificCode","0","0","0","0","0","0","5afe9759f6f86d0001c6f70c","1","5137","0"
"071618","14:19:57","66648559","754556216","4.0.10.0","1","2","demographics","age","0","0","0","0","0","0","27","1","3527","0"
"071618","14:19:57","66648559","754556216","4.0.10.0","1","3","demographics","gender","0","0","0","0","0","0","female","1","3174","0"
"071618","14:24:30","951003308","487741973","4.0.10.0","1","1","demographics","ProlificCode","0","0","0","0","0","0","59cb9a7559b379000115130c","1","11169","0"
"071618","14:24:30","951003308","487741973","4.0.10.0","1","2","demographics","age","0","0","0","0","0","0","30","1","3934","0"
"071618","14:24:30","951003308","487741973","4.0.10.0","1","3","demographics","gender","0","0","0","0","0","0","female","1","5690","0"
"071618","14:24:45","542150554","184299191","4.0.10.0","1","1","demographics","ProlificCode","0","0","0","0","0","0","59d519c6c732930001d88aab","1","4058","0"
"071618","14:24:45","542150554","184299191","4.0.10.0","1","2","demographics","age","0","0","0","0","0","0","26","1","4270","0"
"071618","14:24:45","542150554","184299191","4.0.10.0","1","3","demographics","gender","0","0","0","0","0","0","male","1","3663","0"
"071618","09:23:58","935355174","795100721","4.0.10.0","1","1","demographics","ProlificCode","0","0","0","0","0","0","5aa0318db5e2110001c6fefa","1","49942","0"
"071618","09:23:58","935355174","795100721","4.0.10.0","1","2","demographics","age","0","0","0","0","0","0","19","1","3712","0"
"071618","09:23:58","935355174","795100721","4.0.10.0","1","3","demographics","gender","0","0","0","0","0","0","Male","1","4750","0"
"071618","14:25:37","281855895","426804087","4.0.10.0","1","1","demographics","ProlificCode","0","0","0","0","0","0","5a94f57289de8200013ecbc8","1","5091","0"
"071618","14:25:37","281855895","426804087","4.0.10.0","1","2","demographics","age","0","0","0","0","0","0","44","1","3733","0"
"071618","14:25:37","281855895","426804087","4.0.10.0","1","3","demographics","gender","0","0","0","0","0","0","female","1","5024","0"
"071618","14:27:39","678466629","380785653","4.0.10.0","1","1","demographics","ProlificCode","0","0","0","0","0","0","5acb5c711667e40001d8a211","1","4846","0"
"071618","14:27:39","678466629","380785653","4.0.10.0","1","2","demographics","age","0","0","0","0","0","0","20","1","2762","0"
"071618","14:27:39","678466629","380785653","4.0.10.0","1","3","demographics","gender","0","0","0","0","0","0","male","1","4429","0"
"071618","09:28:15","433405794","136022943","4.0.10.0","1","1","demographics","ProlificCode","0","0","0","0","0","0","59a33d47ec626e0001d5410a","1","8019","0"
"071618","09:28:15","433405794","136022943","4.0.10.0","1","2","demographics","age","0","0","0","0","0","0","63","1","3514","0"
"071618","09:28:15","433405794","136022943","4.0.10.0","1","3","demographics","gender","0","0","0","0","0","0","female","1","6026","0"
"071618","14:28:12","302033217","985068112","4.0.10.0","1","1","demographics","ProlificCode","0","0","0","0","0","0","5979d360bf453d00010a9903","1","12805","0"
"071618","14:28:12","302033217","985068112","4.0.10.0","1","2","demographics","age","0","0","0","0","0","0","36","1","7027","0"
"071618","14:28:12","302033217","985068112","4.0.10.0","1","3","demographics","gender","0","0","0","0","0","0","Female","1","5851","0"
"071618","14:25:58","777880262","704053711","4.0.10.0","1","1","demographics","ProlificCode","0","0","0","0","0","0","5a6b1f00ab58b500015f2f12","1","131572","0"
"071618","14:25:58","777880262","704053711","4.0.10.0","1","2","demographics","age","0","0","0","0","0","0","26","1","3266","0"
"071618","14:25:58","777880262","704053711","4.0.10.0","1","3","demographics","gender","0","0","0","0","0","0","Female","1","3793","0"
"071618","14:28:51","678466629","380785653","4.0.10.0","1","1","demographics","ProlificCode","0","0","0","0","0","0","5acb5c711667e40001d8a211","1","3702","0"
"071618","14:28:51","678466629","380785653","4.0.10.0","1","2","demographics","age","0","0","0","0","0","0","20","1","5605","0"
"071618","14:28:51","678466629","380785653","4.0.10.0","1","3","demographics","gender","0","0","0","0","0","0","male","1","3475","0"
"071618","14:31:53","518675658","765338899","4.0.10.0","1","1","demographics","ProlificCode","0","0","0","0","0","0","5b17da82506a840001ae0b26","1","4378","0"
"071618","14:31:53","518675658","765338899","4.0.10.0","1","2","demographics","age","0","0","0","0","0","0","47","1","6547","0"
"071618","14:31:53","518675658","765338899","4.0.10.0","1","3","demographics","gender","0","0","0","0","0","0","female","1","4407","0"
"071618","14:35:44","587946364","881546473","4.0.10.0","1","1","demographics","ProlificCode","0","0","0","0","0","0","5b1bb7b044127b00013fd0ae","1","5935","0"
"071618","14:35:44","587946364","881546473","4.0.10.0","1","2","demographics","age","0","0","0","0","0","0","45","1","4802","0"
"071618","14:35:44","587946364","881546473","4.0.10.0","1","3","demographics","gender","0","0","0","0","0","0","female","1","6378","0"
"071618","14:33:04","921269167","710030814","4.0.10.0","1","1","demographics","ProlificCode","0","0","0","0","0","0","59ada3241059c50001afa98c","1","6620","0"
"071618","14:33:04","921269167","710030814","4.0.10.0","1","2","demographics","age","0","0","0","0","0","0","39","1","3326","0"
"071618","14:33:04","921269167","710030814","4.0.10.0","1","3","demographics","gender","0","0","0","0","0","0","male","1","2975","0"
"071618","14:35:54","65004135","290998509","4.0.10.0","1","1","demographics","ProlificCode","0","0","0","0","0","0","5b1d665cbdf4e10001638ac1","1","9241","0"
"071618","14:35:54","65004135","290998509","4.0.10.0","1","2","demographics","age","0","0","0","0","0","0","26","1","3232","0"
"071618","14:35:54","65004135","290998509","4.0.10.0","1","3","demographics","gender","0","0","0","0","0","0","Male","1","4275","0"
"071618","08:36:42","128652365","960339179","4.0.10.0","1","1","demographics","ProlificCode","0","0","0","0","0","0","5a9fcac0dbdb470001ef15f6","1","6850","0"
"071618","08:36:42","128652365","960339179","4.0.10.0","1","2","demographics","age","0","0","0","0","0","0","63","1","6521","0"
"071618","08:36:42","128652365","960339179","4.0.10.0","1","3","demographics","gender","0","0","0","0","0","0","Female","1","7065","0"
"071618","14:37:18","658878540","290103821","4.0.10.0","1","1","demographics","ProlificCode","0","0","0","0","0","0","5a967ebb6219a30001d31e43","1","8346","0"
"071618","14:37:18","658878540","290103821","4.0.10.0","1","2","demographics","age","0","0","0","0","0","0","25","1","14098","0"
"071618","14:37:18","658878540","290103821","4.0.10.0","1","3","demographics","gender","0","0","0","0","0","0","Male","1","6339","0"
"071618","06:37:36","271115111","292953014","4.0.10.0","1","1","demographics","ProlificCode","0","0","0","0","0","0","5af73b17f856320001cf5598","1","4516","0"
"071618","06:37:36","271115111","292953014","4.0.10.0","1","2","demographics","age","0","0","0","0","0","0","31","1","4207","0"
"071618","06:37:36","271115111","292953014","4.0.10.0","1","3","demographics","gender","0","0","0","0","0","0","Female","1","4936","0"
"071618","14:39:28","286959482","752626183","4.0.10.0","1","1","demographics","ProlificCode","0","0","0","0","0","0","5aeac988aced0e00012d57a3","1","3509","0"
"071618","14:39:28","286959482","752626183","4.0.10.0","1","2","demographics","age","0","0","0","0","0","0","23","1","2566","0"
"071618","14:39:28","286959482","752626183","4.0.10.0","1","3","demographics","gender","0","0","0","0","0","0","male","1","3460","0"
"071618","14:40:01","238798937","308751542","4.0.10.0","1","1","demographics","ProlificCode","0","0","0","0","0","0","Donal McBrien","1","7216","0"
"071618","14:40:01","238798937","308751542","4.0.10.0","1","2","demographics","age","0","0","0","0","0","0","37","1","10028","0"
"071618","14:40:01","238798937","308751542","4.0.10.0","1","3","demographics","gender","0","0","0","0","0","0","Male","1","5561","0"
"071618","08:40:24","619609187","932810171","4.0.10.0","1","1","demographics","ProlificCode","0","0","0","0","0","0","55aa81aafdf99b634b427b03","1","9470","0"
"071618","08:40:24","619609187","932810171","4.0.10.0","1","2","demographics","age","0","0","0","0","0","0","31","1","3915","0"
"071618","08:40:24","619609187","932810171","4.0.10.0","1","3","demographics","gender","0","0","0","0","0","0","Male","1","6226","0"
"071618","14:41:22","617661306","229097424","4.0.10.0","1","1","demographics","ProlificCode","0","0","0","0","0","0","5774452517128b0001c2917b","1","2609","0"
"071618","14:41:22","617661306","229097424","4.0.10.0","1","2","demographics","age","0","0","0","0","0","0","31","1","2333","0"
"071618","14:41:22","617661306","229097424","4.0.10.0","1","3","demographics","gender","0","0","0","0","0","0","Female","1","4885","0"
"071618","09:41:16","744457130","642571861","4.0.10.0","1","1","demographics","ProlificCode","0","0","0","0","0","0","5919c87e1f01e900019e0d01","1","6131","0"
"071618","09:41:16","744457130","642571861","4.0.10.0","1","2","demographics","age","0","0","0","0","0","0","29","1","3868","0"
"071618","09:41:16","744457130","642571861","4.0.10.0","1","3","demographics","gender","0","0","0","0","0","0","male","1","3421","0"
"071618","14:41:06","286959482","752626183","4.0.10.0","1","1","demographics","ProlificCode","0","0","0","0","0","0","5aeac988aced0e00012d57a3","1","3189","0"
"071618","14:41:06","286959482","752626183","4.0.10.0","1","2","demographics","age","0","0","0","0","0","0","23","1","2355","0"
"071618","14:41:06","286959482","752626183","4.0.10.0","1","3","demographics","gender","0","0","0","0","0","0","male","1","2210","0"
"071618","09:41:42","923775342","583624293","4.0.10.0","1","1","demographics","ProlificCode","0","0","0","0","0","0","57bdb5eb467f26000125db79","1","21039","0"
"071618","09:41:42","923775342","583624293","4.0.10.0","1","2","demographics","age","0","0","0","0","0","0","42","1","4352","0"
"071618","09:41:42","923775342","583624293","4.0.10.0","1","3","demographics","gender","0","0","0","0","0","0","Male","1","4257","0"
"071618","14:43:09","617661306","229097424","4.0.10.0","1","1","demographics","ProlificCode","0","0","0","0","0","0","5774452517128b0001c2917b","1","2503","0"
"071618","14:43:09","617661306","229097424","4.0.10.0","1","2","demographics","age","0","0","0","0","0","0","31","1","2776","0"
"071618","14:43:09","617661306","229097424","4.0.10.0","1","3","demographics","gender","0","0","0","0","0","0","Female","1","4414","0"
"071618","23:43:04","595743351","273905501","4.0.10.0","1","1","demographics","ProlificCode","0","0","0","0","0","0","5aeacc45d9f2be00019341ae","1","5878","0"
"071618","23:43:04","595743351","273905501","4.0.10.0","1","2","demographics","age","0","0","0","0","0","0","33","1","3108","0"
"071618","23:43:04","595743351","273905501","4.0.10.0","1","3","demographics","gender","0","0","0","0","0","0","Male","1","3750","0"
"071618","10:43:09","201512663","860183763","4.0.10.0","1","1","demographics","ProlificCode","0","0","0","0","0","0","5a919d4cdbdb470001ee8555","1","6373","0"
"071618","10:43:09","201512663","860183763","4.0.10.0","1","2","demographics","age","0","0","0","0","0","0","22","1","3335","0"
"071618","10:43:09","201512663","860183763","4.0.10.0","1","3","demographics","gender","0","0","0","0","0","0","female","1","3638","0"
"071618","14:47:48","392015065","337066657","4.0.10.0","1","1","demographics","ProlificCode","0","0","0","0","0","0","5aa014ea1eda410001369da1","1","4054","0"
"071618","14:47:48","392015065","337066657","4.0.10.0","1","2","demographics","age","0","0","0","0","0","0","35","1","2464","0"
"071618","14:47:48","392015065","337066657","4.0.10.0","1","3","demographics","gender","0","0","0","0","0","0","Female","1","3283","0"
"071618","14:47:55","41883169","413147342","4.0.10.0","1","1","demographics","ProlificCode","0","0","0","0","0","0","5affee89c573030001c32f81","1","6569","0"
"071618","14:47:55","41883169","413147342","4.0.10.0","1","2","demographics","age","0","0","0","0","0","0","21","1","4647","0"
"071618","14:47:55","41883169","413147342","4.0.10.0","1","3","demographics","gender","0","0","0","0","0","0","Male","1","4470","0"
"071618","14:48:29","9712098","180201925","4.0.10.0","1","1","demographics","ProlificCode","0","0","0","0","0","0","582ab1ffe7d8850001c8acec","1","7517","0"
"071618","14:48:29","9712098","180201925","4.0.10.0","1","2","demographics","age","0","0","0","0","0","0","45","1","4247","0"
"071618","14:48:29","9712098","180201925","4.0.10.0","1","3","demographics","gender","0","0","0","0","0","0","female","1","5559","0"
"071618","09:49:10","604784836","773202440","4.0.10.0","1","1","demographics","ProlificCode","0","0","0","0","0","0","5680253fc5767f00121cc5e2","1","3105","0"
"071618","09:49:10","604784836","773202440","4.0.10.0","1","2","demographics","age","0","0","0","0","0","0","42","1","1717","0"
"071618","09:49:10","604784836","773202440","4.0.10.0","1","3","demographics","gender","0","0","0","0","0","0","Male","1","2741","0"
"071618","14:51:53","127978582","278977369","4.0.10.0","1","1","demographics","ProlificCode","0","0","0","0","0","0","570fb20af895a7000e38cbda","1","4235","0"
"071618","14:51:53","127978582","278977369","4.0.10.0","1","2","demographics","age","0","0","0","0","0","0","35","1","3277","0"
"071618","14:51:53","127978582","278977369","4.0.10.0","1","3","demographics","gender","0","0","0","0","0","0","male","1","4782","0"
"071618","14:53:00","179580539","330579327","4.0.10.0","1","1","demographics","ProlificCode","0","0","0","0","0","0","5acb207a0527ba0001c24f74","1","13714","0"
"071618","14:53:00","179580539","330579327","4.0.10.0","1","2","demographics","age","0","0","0","0","0","0","27","1","3619","0"
"071618","14:53:00","179580539","330579327","4.0.10.0","1","3","demographics","gender","0","0","0","0","0","0","Male","1","3328","0"
"071618","14:53:33","475163154","791742299","4.0.10.0","1","1","demographics","ProlificCode","0","0","0","0","0","0","596915ca389a5b000126408b","1","3764","0"
"071618","14:53:33","475163154","791742299","4.0.10.0","1","2","demographics","age","0","0","0","0","0","0","38","1","3711","0"
"071618","14:53:33","475163154","791742299","4.0.10.0","1","3","demographics","gender","0","0","0","0","0","0","female","1","6294","0"
"071618","09:54:26","915968005","671481412","4.0.10.0","1","1","demographics","ProlificCode","0","0","0","0","0","0","","1","14237","0"
"071618","14:55:20","682148722","590008967","4.0.10.0","1","1","demographics","ProlificCode","0","0","0","0","0","0","5b1a60332767e20001e4f69b","1","4979","0"
"071618","14:55:20","682148722","590008967","4.0.10.0","1","2","demographics","age","0","0","0","0","0","0","37","1","3352","0"
"071618","14:55:20","682148722","590008967","4.0.10.0","1","3","demographics","gender","0","0","0","0","0","0","female","1","4543","0"
"071618","09:56:38","915968005","671481412","4.0.10.0","1","1","demographics","ProlificCode","0","0","0","0","0","0","58fa7331d51f110001e1e246","1","1782","0"
"071618","09:56:38","915968005","671481412","4.0.10.0","1","2","demographics","age","0","0","0","0","0","0","31","1","1848","0"
"071618","09:56:38","915968005","671481412","4.0.10.0","1","3","demographics","gender","0","0","0","0","0","0","female","1","4381","0"
"071618","08:56:32","666100047","963711838","4.0.10.0","1","1","demographics","ProlificCode","0","0","0","0","0","0","5b032c556d8ce80001f11455","1","4146","0"
"071618","08:56:32","666100047","963711838","4.0.10.0","1","2","demographics","age","0","0","0","0","0","0","40","1","3609","0"
"071618","08:56:32","666100047","963711838","4.0.10.0","1","3","demographics","gender","0","0","0","0","0","0","Male","1","5211","0"
"071618","09:58:31","693721371","603072255","4.0.10.0","1","1","demographics","ProlificCode","0","0","0","0","0","0","569a0ecb25d9e90006b0900f","1","19918","0"
"071618","09:58:31","693721371","603072255","4.0.10.0","1","2","demographics","age","0","0","0","0","0","0","38","1","8432","0"
"071618","09:58:31","693721371","603072255","4.0.10.0","1","3","demographics","gender","0","0","0","0","0","0","female","1","7414","0"
"071618","23:28:11","329223191","626816346","4.0.10.0","1","1","demographics","ProlificCode","0","0","0","0","0","0","5b2b84da8ecf3f000162080d","1","15790","0"
"071618","23:28:11","329223191","626816346","4.0.10.0","1","2","demographics","age","0","0","0","0","0","0","23","1","3742","0"
"071618","23:28:11","329223191","626816346","4.0.10.0","1","3","demographics","gender","0","0","0","0","0","0","Female","1","4459","0"
"071618","15:01:04","272621182","589498455","4.0.10.0","1","1","demographics","ProlificCode","0","0","0","0","0","0","586b77adc44dd30001cd334f","1","4871","0"
"071618","15:01:04","272621182","589498455","4.0.10.0","1","2","demographics","age","0","0","0","0","0","0","29","1","3246","0"
"071618","15:01:04","272621182","589498455","4.0.10.0","1","3","demographics","gender","0","0","0","0","0","0","female","1","5093","0"
"071618","15:01:58","842019693","401033296","4.0.10.0","1","1","demographics","ProlificCode","0","0","0","0","0","0","57f15aae1fa72a0001305a0f","1","45583","0"
"071618","15:01:58","842019693","401033296","4.0.10.0","1","2","demographics","age","0","0","0","0","0","0","23","1","3457","0"
"071618","15:01:58","842019693","401033296","4.0.10.0","1","3","demographics","gender","0","0","0","0","0","0","female","1","2910","0"
"071618","15:02:33","535185755","981132704","4.0.10.0","1","1","demographics","ProlificCode","0","0","0","0","0","0","5a8025c0f49c9a0001f356aa","1","13015","0"
"071618","15:02:33","535185755","981132704","4.0.10.0","1","2","demographics","age","0","0","0","0","0","0","50","1","4692","0"
"071618","15:02:33","535185755","981132704","4.0.10.0","1","3","demographics","gender","0","0","0","0","0","0","Male","1","8330","0"
"071618","15:03:12","208448089","821794310","4.0.10.0","1","1","demographics","ProlificCode","0","0","0","0","0","0","5a79b2f51904200001558b12","1","17351","0"
"071618","15:03:12","208448089","821794310","4.0.10.0","1","2","demographics","age","0","0","0","0","0","0","32","1","2837","0"
"071618","15:03:12","208448089","821794310","4.0.10.0","1","3","demographics","gender","0","0","0","0","0","0","Male","1","3468","0"
"071618","15:03:54","430505723","875576921","4.0.10.0","1","1","demographics","ProlificCode","0","0","0","0","0","0","55d39f64da14d7001295375a","1","5054","0"
"071618","15:03:54","430505723","875576921","4.0.10.0","1","2","demographics","age","0","0","0","0","0","0","36","1","2622","0"
"071618","15:03:54","430505723","875576921","4.0.10.0","1","3","demographics","gender","0","0","0","0","0","0","female","1","3625","0"
"071618","10:03:46","376652053","787311848","4.0.10.0","1","1","demographics","ProlificCode","0","0","0","0","0","0","576d8e821a48240001867c54","1","13939","0"
"071618","10:03:46","376652053","787311848","4.0.10.0","1","2","demographics","age","0","0","0","0","0","0","35","1","4107","0"
"071618","10:03:46","376652053","787311848","4.0.10.0","1","3","demographics","gender","0","0","0","0","0","0","female","1","4648","0"
"071618","10:03:38","937415520","230717514","4.0.10.0","1","1","demographics","ProlificCode","0","0","0","0","0","0","5ac8c412f69e940001d9a18f","1","39686","0"
"071618","10:03:38","937415520","230717514","4.0.10.0","1","2","demographics","age","0","0","0","0","0","0","30","1","6713","0"
"071618","10:03:38","937415520","230717514","4.0.10.0","1","3","demographics","gender","0","0","0","0","0","0","male","1","10932","0"
"071618","15:04:22","227009176","910044066","4.0.10.0","1","1","demographics","ProlificCode","0","0","0","0","0","0","5956738092b7c9000169389d","1","15795","0"
"071618","15:04:22","227009176","910044066","4.0.10.0","1","2","demographics","age","0","0","0","0","0","0","31","1","5541","0"
"071618","15:04:22","227009176","910044066","4.0.10.0","1","3","demographics","gender","0","0","0","0","0","0","Male","1","4778","0"
"071618","15:05:02","227671159","474334397","4.0.10.0","1","1","demographics","ProlificCode","0","0","0","0","0","0","5996b604b5566b0001aa81fa","1","31645","0"
"071618","15:05:02","227671159","474334397","4.0.10.0","1","2","demographics","age","0","0","0","0","0","0","53","1","3652","0"
"071618","15:05:02","227671159","474334397","4.0.10.0","1","3","demographics","gender","0","0","0","0","0","0","female","1","9239","0"
"071618","15:06:35","733694934","350301937","4.0.10.0","1","1","demographics","ProlificCode","0","0","0","0","0","0","59d0e40646447f00011f024f","1","4116","0"
"071618","15:06:35","733694934","350301937","4.0.10.0","1","2","demographics","age","0","0","0","0","0","0","21","1","3245","0"
"071618","15:06:35","733694934","350301937","4.0.10.0","1","3","demographics","gender","0","0","0","0","0","0","female","1","4854","0"
"071618","15:07:48","164107744","392174335","4.0.10.0","1","1","demographics","ProlificCode","0","0","0","0","0","0","57c8749ef7bcd90001f2483b","1","14778","0"
"071618","15:07:48","164107744","392174335","4.0.10.0","1","2","demographics","age","0","0","0","0","0","0","32","1","3716","0"
"071618","15:07:48","164107744","392174335","4.0.10.0","1","3","demographics","gender","0","0","0","0","0","0","male","1","3684","0"
"071618","10:07:52","707439503","934611708","4.0.10.0","1","1","demographics","ProlificCode","0","0","0","0","0","0","591a74ec3dc9e9000124c295","1","3355","0"
"071618","10:07:52","707439503","934611708","4.0.10.0","1","2","demographics","age","0","0","0","0","0","0","19","1","3693","0"
"071618","10:07:52","707439503","934611708","4.0.10.0","1","3","demographics","gender","0","0","0","0","0","0","female","1","2888","0"
"071618","22:11:19","271178487","498350692","4.0.10.0","1","1","demographics","ProlificCode","0","0","0","0","0","0","5b1a02b4bdf4e10001635318","1","43999","0"
"071618","22:11:19","271178487","498350692","4.0.10.0","1","2","demographics","age","0","0","0","0","0","0","38","1","3610","0"
"071618","22:11:19","271178487","498350692","4.0.10.0","1","3","demographics","gender","0","0","0","0","0","0","Female","1","4153","0"
"071618","07:10:24","308347188","600769455","4.0.10.0","1","1","demographics","ProlificCode","0","0","0","0","0","0","5a47b23d7aebf700011540ab","1","86228","0"
"071618","07:10:24","308347188","600769455","4.0.10.0","1","2","demographics","age","0","0","0","0","0","0","23","1","5798","0"
"071618","07:10:24","308347188","600769455","4.0.10.0","1","3","demographics","gender","0","0","0","0","0","0","female","1","4405","0"
"071618","10:13:06","937938681","722688639","4.0.10.0","1","1","demographics","ProlificCode","0","0","0","0","0","0","575ec4be3fc3ac000611df4c","1","11561","0"
"071618","10:13:06","937938681","722688639","4.0.10.0","1","2","demographics","age","0","0","0","0","0","0","23","1","2731","0"
"071618","10:13:06","937938681","722688639","4.0.10.0","1","3","demographics","gender","0","0","0","0","0","0","Male","1","3934","0"
"071618","15:14:28","665263046","344603030","4.0.10.0","1","1","demographics","ProlificCode","0","0","0","0","0","0","594bc2ffb37e5b0001ef7cd7","1","8608","0"
"071618","15:14:28","665263046","344603030","4.0.10.0","1","2","demographics","age","0","0","0","0","0","0","20","1","2843","0"
"071618","15:14:28","665263046","344603030","4.0.10.0","1","3","demographics","gender","0","0","0","0","0","0","Male","1","6704","0"
"071618","10:15:26","401485431","36970580","4.0.10.0","1","1","demographics","ProlificCode","0","0","0","0","0","0","5590a34cfdf99b729d4f69dc","1","8799","0"
"071618","10:15:26","401485431","36970580","4.0.10.0","1","2","demographics","age","0","0","0","0","0","0","52","1","17718","0"
"071618","10:15:26","401485431","36970580","4.0.10.0","1","3","demographics","gender","0","0","0","0","0","0","female","1","7240","0"
"071618","15:20:28","869030838","866309533","4.0.10.0","1","1","demographics","ProlificCode","0","0","0","0","0","0","5a8a8de6000dab00018cc170","1","7472","0"
"071618","15:20:28","869030838","866309533","4.0.10.0","1","2","demographics","age","0","0","0","0","0","0","30","1","2475","0"
"071618","15:20:28","869030838","866309533","4.0.10.0","1","3","demographics","gender","0","0","0","0","0","0","Female","1","6237","0"
"071618","15:17:15","166946191","608020386","4.0.10.0","1","1","demographics","ProlificCode","0","0","0","0","0","0","5a612c0713898300014b0ef4","1","3419","0"
"071618","15:17:15","166946191","608020386","4.0.10.0","1","2","demographics","age","0","0","0","0","0","0","30","1","3039","0"
"071618","15:17:15","166946191","608020386","4.0.10.0","1","3","demographics","gender","0","0","0","0","0","0","female","1","3965","0"
"071618","15:17:07","452417747","866046103","4.0.10.0","1","1","demographics","ProlificCode","0","0","0","0","0","0","5b2b83b10ec82d0001d29549","1","12688","0"
"071618","15:17:07","452417747","866046103","4.0.10.0","1","2","demographics","age","0","0","0","0","0","0","47","1","3992","0"
"071618","15:17:07","452417747","866046103","4.0.10.0","1","3","demographics","gender","0","0","0","0","0","0","Female","1","5124","0"
"071618","10:18:00","940275690","179416344","4.0.10.0","1","1","demographics","ProlificCode","0","0","0","0","0","0","5ad5386e546e150001b69b07","1","7371","0"
"071618","10:18:00","940275690","179416344","4.0.10.0","1","2","demographics","age","0","0","0","0","0","0","18","1","2345","0"
"071618","10:18:00","940275690","179416344","4.0.10.0","1","3","demographics","gender","0","0","0","0","0","0","male","1","3352","0"
"071618","15:17:26","711649134","952261778","4.0.10.0","1","1","demographics","ProlificCode","0","0","0","0","0","0","595a52b2e05ca8000133f5d0","1","7600","0"
"071618","15:17:26","711649134","952261778","4.0.10.0","1","2","demographics","age","0","0","0","0","0","0","35 ","1","5126","0"
"071618","15:17:26","711649134","952261778","4.0.10.0","1","3","demographics","gender","0","0","0","0","0","0","female","1","4114","0"
"071618","10:17:33","895159870","354547274","4.0.10.0","1","1","demographics","ProlificCode","0","0","0","0","0","0","56edb251c36d60000cd00c89","1","44442","0"
"071618","10:17:33","895159870","354547274","4.0.10.0","1","2","demographics","age","0","0","0","0","0","0","32","1","6823","0"
"071618","10:17:33","895159870","354547274","4.0.10.0","1","3","demographics","gender","0","0","0","0","0","0","FEMALE","1","5339","0"
"071618","10:19:58","329101916","331448779","4.0.10.0","1","1","demographics","ProlificCode","0","0","0","0","0","0","5b21c4ab31d0080001b9f55e","1","7258","0"
"071618","10:19:58","329101916","331448779","4.0.10.0","1","2","demographics","age","0","0","0","0","0","0","22","1","3469","0"
"071618","10:19:58","329101916","331448779","4.0.10.0","1","3","demographics","gender","0","0","0","0","0","0","female","1","7957","0"
"071618","15:20:29","747100094","355139417","4.0.10.0","1","1","demographics","ProlificCode","0","0","0","0","0","0","","1","12624","0"
"071618","09:19:27","658596141","709057711","4.0.10.0","1","1","demographics","ProlificCode","0","0","0","0","0","0","57acfa4dbd4ee2000111d379","1","72533","0"
"071618","09:19:27","658596141","709057711","4.0.10.0","1","2","demographics","age","0","0","0","0","0","0","27","1","3282","0"
"071618","09:19:27","658596141","709057711","4.0.10.0","1","3","demographics","gender","0","0","0","0","0","0","F","1","3056","0"
"071618","15:21:07","747100094","355139417","4.0.10.0","1","1","demographics","ProlificCode","0","0","0","0","0","0","59382aa176eec90001645921","1","5291","0"
"071618","15:21:07","747100094","355139417","4.0.10.0","1","2","demographics","age","0","0","0","0","0","0","48","1","10630","0"
"071618","15:21:07","747100094","355139417","4.0.10.0","1","3","demographics","gender","0","0","0","0","0","0","female","1","9487","0"
"071618","09:21:12","918233661","239892503","4.0.10.0","1","1","demographics","ProlificCode","0","0","0","0","0","0","5b14bd0abd9c31000156ec12","1","23646","0"
"071618","09:21:12","918233661","239892503","4.0.10.0","1","2","demographics","age","0","0","0","0","0","0","22","1","4617","0"
"071618","09:21:12","918233661","239892503","4.0.10.0","1","3","demographics","gender","0","0","0","0","0","0","Female","1","5316","0"
"071618","15:21:41","320304737","689198556","4.0.10.0","1","1","demographics","ProlificCode","0","0","0","0","0","0","5b1a2cdec9d3cb0001101b02","1","4473","0"
"071618","15:21:41","320304737","689198556","4.0.10.0","1","2","demographics","age","0","0","0","0","0","0","24","1","2937","0"
"071618","15:21:41","320304737","689198556","4.0.10.0","1","3","demographics","gender","0","0","0","0","0","0","female","1","3173","0"
"071618","10:22:36","12863378","11515328","4.0.10.0","1","1","demographics","ProlificCode","0","0","0","0","0","0","57656f6c2bfddf000125cce5","1","10037","0"
"071618","10:22:36","12863378","11515328","4.0.10.0","1","2","demographics","age","0","0","0","0","0","0","33","1","2446","0"
"071618","10:22:36","12863378","11515328","4.0.10.0","1","3","demographics","gender","0","0","0","0","0","0","Male","1","2895","0"
"071618","08:23:14","323199007","644857832","4.0.10.0","1","1","demographics","ProlificCode","0","0","0","0","0","0","5acbec4b436f550001002bca","1","6129","0"
"071618","08:23:14","323199007","644857832","4.0.10.0","1","2","demographics","age","0","0","0","0","0","0","24","1","4627","0"
"071618","08:23:14","323199007","644857832","4.0.10.0","1","3","demographics","gender","0","0","0","0","0","0","Male","1","3770","0"
"071618","15:23:25","926761325","295357034","4.0.10.0","1","1","demographics","ProlificCode","0","0","0","0","0","0","5ad296ffb02aca0001272ccd","1","30892","0"
"071618","15:23:25","926761325","295357034","4.0.10.0","1","2","demographics","age","0","0","0","0","0","0","47","1","4558","0"
"071618","15:23:25","926761325","295357034","4.0.10.0","1","3","demographics","gender","0","0","0","0","0","0","Female","1","8296","0"
"071618","07:24:24","827487469","168637346","4.0.10.0","1","1","demographics","ProlificCode","0","0","0","0","0","0","5aa5ee5a6475f90001a05cf5","1","7122","0"
"071618","07:24:24","827487469","168637346","4.0.10.0","1","2","demographics","age","0","0","0","0","0","0","25","1","3852","0"
"071618","07:24:24","827487469","168637346","4.0.10.0","1","3","demographics","gender","0","0","0","0","0","0","male","1","4022","0"
"071618","15:24:24","207619203","139843245","4.0.10.0","1","1","demographics","ProlificCode","0","0","0","0","0","0","55b0ecccfdf99b2116e4123f","1","4739","0"
"071618","15:24:24","207619203","139843245","4.0.10.0","1","2","demographics","age","0","0","0","0","0","0","31","1","3063","0"
"071618","15:24:24","207619203","139843245","4.0.10.0","1","3","demographics","gender","0","0","0","0","0","0","female","1","6789","0"
"071618","10:24:53","12863378","11515328","4.0.10.0","1","1","demographics","ProlificCode","0","0","0","0","0","0","57656f6c2bfddf000125cce5","1","2765","0"
"071618","10:24:53","12863378","11515328","4.0.10.0","1","2","demographics","age","0","0","0","0","0","0","33","1","4498","0"
"071618","10:24:53","12863378","11515328","4.0.10.0","1","3","demographics","gender","0","0","0","0","0","0","Male","1","2642","0"
"071618","10:25:40","470006353","859270916","4.0.10.0","1","1","demographics","ProlificCode","0","0","0","0","0","0","5ac4a7f6fa3b4e00017363ba","1","10779","0"
"071618","10:25:40","470006353","859270916","4.0.10.0","1","2","demographics","age","0","0","0","0","0","0","22","1","2041","0"
"071618","10:25:40","470006353","859270916","4.0.10.0","1","3","demographics","gender","0","0","0","0","0","0","Male","1","2418","0"
"071618","10:27:34","403268396","648546876","4.0.10.0","1","1","demographics","ProlificCode","0","0","0","0","0","0","5869dec37fbbcd00013974e2","1","4089","0"
"071618","10:27:34","403268396","648546876","4.0.10.0","1","2","demographics","age","0","0","0","0","0","0","23","1","6360","0"
"071618","10:27:34","403268396","648546876","4.0.10.0","1","3","demographics","gender","0","0","0","0","0","0","Female ","1","3358","0"
"071618","10:27:27","480375427","431792373","4.0.10.0","1","1","demographics","ProlificCode","0","0","0","0","0","0","5ae77e4e1d3bb40001b6ff2c","1","25341","0"
"071618","10:27:27","480375427","431792373","4.0.10.0","1","2","demographics","age","0","0","0","0","0","0","38","1","5004","0"
"071618","10:27:27","480375427","431792373","4.0.10.0","1","3","demographics","gender","0","0","0","0","0","0","Male","1","3889","0"
"071618","15:27:56","391632747","323856783","4.0.10.0","1","1","demographics","ProlificCode","0","0","0","0","0","0","5ab03937e1546900019b109b","1","3713","0"
"071618","15:27:56","391632747","323856783","4.0.10.0","1","2","demographics","age","0","0","0","0","0","0","27","1","2413","0"
"071618","15:27:56","391632747","323856783","4.0.10.0","1","3","demographics","gender","0","0","0","0","0","0","male","1","2727","0"
"071618","15:29:22","654864351","652338457","4.0.10.0","1","1","demographics","ProlificCode","0","0","0","0","0","0","5835f27719c2750001d27908","1","7592","0"
"071618","15:29:22","654864351","652338457","4.0.10.0","1","2","demographics","age","0","0","0","0","0","0","49","1","4496","0"
"071618","15:29:22","654864351","652338457","4.0.10.0","1","3","demographics","gender","0","0","0","0","0","0","female","1","5404","0"
"071618","15:30:35","878700153","395053396","4.0.10.0","1","1","demographics","ProlificCode","0","0","0","0","0","0","5b27c68b878ec200017b0d28","1","4747","0"
"071618","15:30:35","878700153","395053396","4.0.10.0","1","2","demographics","age","0","0","0","0","0","0","20","1","3497","0"
"071618","15:30:35","878700153","395053396","4.0.10.0","1","3","demographics","gender","0","0","0","0","0","0","Male","1","6129","0"
"071618","15:30:31","354307755","824618497","4.0.10.0","1","1","demographics","ProlificCode","0","0","0","0","0","0","5a75c6c1f49c9a0001f2f4b2","1","15224","0"
"071618","15:30:31","354307755","824618497","4.0.10.0","1","2","demographics","age","0","0","0","0","0","0","64","1","6581","0"
"071618","15:30:31","354307755","824618497","4.0.10.0","1","3","demographics","gender","0","0","0","0","0","0","male","1","7240","0"
"071618","15:30:48","494909145","446624219","4.0.10.0","1","1","demographics","ProlificCode","0","0","0","0","0","0","5b2a775aa7cee100011e0e26","1","42865","0"
"071618","15:30:48","494909145","446624219","4.0.10.0","1","2","demographics","age","0","0","0","0","0","0","39","1","3940","0"
"071618","15:30:48","494909145","446624219","4.0.10.0","1","3","demographics","gender","0","0","0","0","0","0","male","1","5548","0"
"071618","10:34:08","223748906","912834396","4.0.10.0","1","1","demographics","ProlificCode","0","0","0","0","0","0","58ac91c38bf22a00015b91b3","1","5663","0"
"071618","10:34:08","223748906","912834396","4.0.10.0","1","2","demographics","age","0","0","0","0","0","0","50","1","3394","0"
"071618","10:34:08","223748906","912834396","4.0.10.0","1","3","demographics","gender","0","0","0","0","0","0","male","1","4501","0"
"071618","07:34:28","561922949","688557942","4.0.10.0","1","1","demographics","ProlificCode","0","0","0","0","0","0","56c3e48e11e094000cd41bce","1","15210","0"
"071618","07:34:28","561922949","688557942","4.0.10.0","1","2","demographics","age","0","0","0","0","0","0","39","1","5725","0"
"071618","07:34:28","561922949","688557942","4.0.10.0","1","3","demographics","gender","0","0","0","0","0","0","Female","1","4044","0"
"071618","15:35:14","730429822","637112232","4.0.10.0","1","1","demographics","ProlificCode","0","0","0","0","0","0","","1","16503","0"
"071618","15:35:07","598020153","353533557","4.0.10.0","1","1","demographics","ProlificCode","0","0","0","0","0","0","5829a87a4a1c00000190f2a3","1","4867","0"
"071618","15:35:07","598020153","353533557","4.0.10.0","1","2","demographics","age","0","0","0","0","0","0","44","1","9444","0"
"071618","15:35:07","598020153","353533557","4.0.10.0","1","3","demographics","gender","0","0","0","0","0","0","Female","1","5993","0"
"071618","15:35:56","5407592","302702628","4.0.10.0","1","1","demographics","ProlificCode","0","0","0","0","0","0","5a7b410deea3d300016e1155","1","6788","0"
"071618","15:35:56","5407592","302702628","4.0.10.0","1","2","demographics","age","0","0","0","0","0","0","42","1","3534","0"
"071618","15:35:56","5407592","302702628","4.0.10.0","1","3","demographics","gender","0","0","0","0","0","0","Female","1","5537","0"
"071618","15:37:26","625702880","924175746","4.0.10.0","1","1","demographics","ProlificCode","0","0","0","0","0","0","567ed8824f0ef30006dbb844","1","4586","0"
"071618","15:37:26","625702880","924175746","4.0.10.0","1","2","demographics","age","0","0","0","0","0","0","46","1","3824","0"
"071618","15:37:26","625702880","924175746","4.0.10.0","1","3","demographics","gender","0","0","0","0","0","0","female","1","6589","0"
"071618","15:36:18","694430924","601113332","4.0.10.0","1","1","demographics","ProlificCode","0","0","0","0","0","0","5ac337b6a3ba7a0001b48ad3","1","15113","0"
"071618","15:36:18","694430924","601113332","4.0.10.0","1","2","demographics","age","0","0","0","0","0","0","48","1","3607","0"
"071618","15:36:18","694430924","601113332","4.0.10.0","1","3","demographics","gender","0","0","0","0","0","0","female","1","7258","0"
"071618","15:36:29","956514666","864076786","4.0.10.0","1","1","demographics","ProlificCode","0","0","0","0","0","0","55b770e3fdf99b0416ce53da","1","28829","0"
"071618","15:36:29","956514666","864076786","4.0.10.0","1","2","demographics","age","0","0","0","0","0","0","27","1","3036","0"
"071618","15:36:29","956514666","864076786","4.0.10.0","1","3","demographics","gender","0","0","0","0","0","0","female","1","6832","0"
"071618","15:37:02","556861536","27172297","4.0.10.0","1","1","demographics","ProlificCode","0","0","0","0","0","0","57ece5f111dfd9000103c820","1","5465","0"
"071618","15:37:02","556861536","27172297","4.0.10.0","1","2","demographics","age","0","0","0","0","0","0","51","1","2878","0"
"071618","15:37:02","556861536","27172297","4.0.10.0","1","3","demographics","gender","0","0","0","0","0","0","MALE","1","4593","0"
"071618","10:38:38","870732732","97904951","4.0.10.0","1","1","demographics","ProlificCode","0","0","0","0","0","0","","1","11669","0"
"071618","15:38:54","737698530","984361772","4.0.10.0","1","1","demographics","ProlificCode","0","0","0","0","0","0","5b1e79fa2767e20001e53f1b","1","11360","0"
"071618","15:38:54","737698530","984361772","4.0.10.0","1","2","demographics","age","0","0","0","0","0","0","22","1","2857","0"
"071618","15:38:54","737698530","984361772","4.0.10.0","1","3","demographics","gender","0","0","0","0","0","0","female","1","3245","0"
"071618","10:39:05","870732732","97904951","4.0.10.0","1","1","demographics","ProlificCode","0","0","0","0","0","0","5b0f498cee290600010f7233","1","2168","0"
"071618","10:39:05","870732732","97904951","4.0.10.0","1","2","demographics","age","0","0","0","0","0","0","20","1","4010","0"
"071618","10:39:05","870732732","97904951","4.0.10.0","1","3","demographics","gender","0","0","0","0","0","0","Male","1","3736","0"
"071618","12:09:37","704208922","388421664","4.0.10.0","1","1","demographics","ProlificCode","0","0","0","0","0","0","58337beaa816100001a3a041","1","9159","0"
"071618","12:09:37","704208922","388421664","4.0.10.0","1","2","demographics","age","0","0","0","0","0","0","29","1","3380","0"
"071618","12:09:37","704208922","388421664","4.0.10.0","1","3","demographics","gender","0","0","0","0","0","0","male","1","2622","0"
"071618","15:40:01","759096912","691114029","4.0.10.0","1","1","demographics","ProlificCode","0","0","0","0","0","0","5ad4d7de546e150001b695b0","1","4326","0"
"071618","15:40:01","759096912","691114029","4.0.10.0","1","2","demographics","age","0","0","0","0","0","0","19","1","2907","0"
"071618","15:40:01","759096912","691114029","4.0.10.0","1","3","demographics","gender","0","0","0","0","0","0","Male","1","3886","0"
"071618","15:38:43","318278073","639729981","4.0.10.0","1","1","demographics","ProlificCode","0","0","0","0","0","0","","1","97315","0"
"071618","10:40:07","722748833","778083163","4.0.10.0","1","1","demographics","ProlificCode","0","0","0","0","0","0","58880987bc9f1900014879c6","1","8449","0"
"071618","10:40:07","722748833","778083163","4.0.10.0","1","2","demographics","age","0","0","0","0","0","0","29","1","2315","0"
"071618","10:40:07","722748833","778083163","4.0.10.0","1","3","demographics","gender","0","0","0","0","0","0","female","1","3470","0"
"071618","10:40:30","918064663","925284293","4.0.10.0","1","1","demographics","ProlificCode","0","0","0","0","0","0","5928f97d0226f000011c1a72","1","6859","0"
"071618","10:40:30","918064663","925284293","4.0.10.0","1","2","demographics","age","0","0","0","0","0","0","60","1","4951","0"
"071618","10:40:30","918064663","925284293","4.0.10.0","1","3","demographics","gender","0","0","0","0","0","0","female","1","7005","0"
"071618","15:40:16","243758301","688527417","4.0.10.0","1","1","demographics","ProlificCode","0","0","0","0","0","0","5b12f985bd9c31000156ce71","1","37532","0"
"071618","15:40:16","243758301","688527417","4.0.10.0","1","2","demographics","age","0","0","0","0","0","0","22","1","2077","0"
"071618","15:40:16","243758301","688527417","4.0.10.0","1","3","demographics","gender","0","0","0","0","0","0","Female","1","3010","0"
"071618","09:41:00","47856922","494116681","4.0.10.0","1","1","demographics","ProlificCode","0","0","0","0","0","0","5ab1af15c4e8f200014b71b6","1","4165","0"
"071618","09:41:00","47856922","494116681","4.0.10.0","1","2","demographics","age","0","0","0","0","0","0","45","1","3151","0"
"071618","09:41:00","47856922","494116681","4.0.10.0","1","3","demographics","gender","0","0","0","0","0","0","female","1","4103","0"
"071618","15:41:01","600937579","893359853","4.0.10.0","1","1","demographics","ProlificCode","0","0","0","0","0","0","5835f27719c2750001d27908","1","5903","0"
"071618","15:41:01","600937579","893359853","4.0.10.0","1","2","demographics","age","0","0","0","0","0","0","49","1","5137","0"
"071618","15:41:01","600937579","893359853","4.0.10.0","1","3","demographics","gender","0","0","0","0","0","0","female","1","5594","0"
"071718","00:41:16","571123800","427174423","4.0.10.0","1","1","demographics","ProlificCode","0","0","0","0","0","0","5ac976e9e734400001da60c2","1","3824","0"
"071718","00:41:16","571123800","427174423","4.0.10.0","1","2","demographics","age","0","0","0","0","0","0","41","1","3612","0"
"071718","00:41:16","571123800","427174423","4.0.10.0","1","3","demographics","gender","0","0","0","0","0","0","Male","1","6770","0"
"071618","09:41:24","173339421","809437455","4.0.10.0","1","1","demographics","ProlificCode","0","0","0","0","0","0","5af10deb86e4d20001a00d06","1","21138","0"
"071618","09:41:24","173339421","809437455","4.0.10.0","1","2","demographics","age","0","0","0","0","0","0","51","1","4010","0"
"071618","09:41:24","173339421","809437455","4.0.10.0","1","3","demographics","gender","0","0","0","0","0","0","Female","1","5913","0"
"071618","22:41:56","278184004","524847251","4.0.10.0","1","1","demographics","ProlificCode","0","0","0","0","0","0","560445a5e372c00011bd4fc2","1","6706","0"
"071618","22:41:56","278184004","524847251","4.0.10.0","1","2","demographics","age","0","0","0","0","0","0","33","1","2779","0"
"071618","22:41:56","278184004","524847251","4.0.10.0","1","3","demographics","gender","0","0","0","0","0","0","Female","1","3541","0"
"071618","15:42:50","911503236","232955159","4.0.10.0","1","1","demographics","ProlificCode","0","0","0","0","0","0","5a53a09d76d1c60001aabde2","1","4380","0"
"071618","15:42:50","911503236","232955159","4.0.10.0","1","2","demographics","age","0","0","0","0","0","0","18","1","5299","0"
"071618","15:42:50","911503236","232955159","4.0.10.0","1","3","demographics","gender","0","0","0","0","0","0","male","1","4732","0"
"071618","10:43:25","754044232","370651236","4.0.10.0","1","1","demographics","ProlificCode","0","0","0","0","0","0","55883b3efdf99b4021921cb9","1","3090","0"
"071618","10:43:25","754044232","370651236","4.0.10.0","1","2","demographics","age","0","0","0","0","0","0","24","1","3083","0"
"071618","10:43:25","754044232","370651236","4.0.10.0","1","3","demographics","gender","0","0","0","0","0","0","Male","1","2895","0"
"071618","15:43:23","902242991","368594012","4.0.10.0","1","1","demographics","ProlificCode","0","0","0","0","0","0","5b200f09a93c260001445032","1","12312","0"
"071618","15:43:23","902242991","368594012","4.0.10.0","1","2","demographics","age","0","0","0","0","0","0","38","1","2470","0"
"071618","15:43:23","902242991","368594012","4.0.10.0","1","3","demographics","gender","0","0","0","0","0","0","Male","1","3431","0"
"071618","15:43:30","850269143","515307612","4.0.10.0","1","1","demographics","ProlificCode","0","0","0","0","0","0","5a9a9ea0873cda0001dcaeab","1","3646","0"
"071618","15:43:30","850269143","515307612","4.0.10.0","1","2","demographics","age","0","0","0","0","0","0","51","1","1991","0"
"071618","15:43:30","850269143","515307612","4.0.10.0","1","3","demographics","gender","0","0","0","0","0","0","male","1","2144","0"
"071618","15:42:56","365153287","220026072","4.0.10.0","1","1","demographics","ProlificCode","0","0","0","0","0","0","5a8f05faf49c9a0001f3e4c6","1","57335","0"
"071618","15:42:56","365153287","220026072","4.0.10.0","1","2","demographics","age","0","0","0","0","0","0","19","1","2265","0"
"071618","15:42:56","365153287","220026072","4.0.10.0","1","3","demographics","gender","0","0","0","0","0","0","female","1","4829","0"
"071618","15:44:46","911503236","232955159","4.0.10.0","1","1","demographics","ProlificCode","0","0","0","0","0","0","5a53a09d76d1c60001aabde2","1","3484","0"
"071618","15:44:46","911503236","232955159","4.0.10.0","1","2","demographics","age","0","0","0","0","0","0","18","1","7569","0"
"071618","15:44:46","911503236","232955159","4.0.10.0","1","3","demographics","gender","0","0","0","0","0","0","male","1","4227","0"
"071618","22:44:30","228755823","694193812","4.0.10.0","1","1","demographics","ProlificCode","0","0","0","0","0","0","591ec3995d5da10001827ef9","1","11121","0"
"071618","22:44:30","228755823","694193812","4.0.10.0","1","2","demographics","age","0","0","0","0","0","0","28","1","4020","0"
"071618","22:44:30","228755823","694193812","4.0.10.0","1","3","demographics","gender","0","0","0","0","0","0","Female","1","3902","0"
"071618","10:44:50","260021946","725161810","4.0.10.0","1","1","demographics","ProlificCode","0","0","0","0","0","0","590819e205fbfc000147720c","1","5038","0"
"071618","10:44:50","260021946","725161810","4.0.10.0","1","2","demographics","age","0","0","0","0","0","0","30","1","5076","0"
"071618","10:44:50","260021946","725161810","4.0.10.0","1","3","demographics","gender","0","0","0","0","0","0","Male","1","2936","0"
"071618","15:44:40","356942597","21664305","4.0.10.0","1","1","demographics","ProlificCode","0","0","0","0","0","0","5a3adfb705f005000104d2a3","1","10679","0"
"071618","15:44:40","356942597","21664305","4.0.10.0","1","2","demographics","age","0","0","0","0","0","0","35","1","7514","0"
"071618","15:44:40","356942597","21664305","4.0.10.0","1","3","demographics","gender","0","0","0","0","0","0","female","1","5577","0"
"071618","15:37:38","367055243","487639637","4.0.10.0","1","1","demographics","ProlificCode","0","0","0","0","0","0","5ab0c9c2f69e940001d89a5e","1","482545","0"
"071618","15:37:38","367055243","487639637","4.0.10.0","1","2","demographics","age","0","0","0","0","0","0","41","1","3914","0"
"071618","15:37:38","367055243","487639637","4.0.10.0","1","3","demographics","gender","0","0","0","0","0","0","m","1","2522","0"
"071618","15:45:23","782911765","637784548","4.0.10.0","1","1","demographics","ProlificCode","0","0","0","0","0","0","5aec425023e2ca000197591b","1","20916","0"
"071618","15:45:23","782911765","637784548","4.0.10.0","1","2","demographics","age","0","0","0","0","0","0","21","1","3009","0"
"071618","15:45:23","782911765","637784548","4.0.10.0","1","3","demographics","gender","0","0","0","0","0","0","Male","1","4284","0"
"071618","15:45:45","972737838","199910059","4.0.10.0","1","1","demographics","ProlificCode","0","0","0","0","0","0","58767eecac950900013de8b2","1","5111","0"
"071618","15:45:45","972737838","199910059","4.0.10.0","1","2","demographics","age","0","0","0","0","0","0","32","1","3639","0"
"071618","15:45:45","972737838","199910059","4.0.10.0","1","3","demographics","gender","0","0","0","0","0","0","Female","1","5706","0"
"071618","10:45:43","746863277","363470281","4.0.10.0","1","1","demographics","ProlificCode","0","0","0","0","0","0","5adf8e73e0feeb0001cae5b4 ","1","14617","0"
"071618","10:45:43","746863277","363470281","4.0.10.0","1","2","demographics","age","0","0","0","0","0","0","35","1","4106","0"
"071618","10:45:43","746863277","363470281","4.0.10.0","1","3","demographics","gender","0","0","0","0","0","0","female","1","6304","0"
"071618","09:46:26","267367523","512852936","4.0.10.0","1","1","demographics","ProlificCode","0","0","0","0","0","0","5588d358fdf99b304ee5674f","1","4638","0"
"071618","09:46:26","267367523","512852936","4.0.10.0","1","2","demographics","age","0","0","0","0","0","0","25","1","4366","0"
"071618","09:46:26","267367523","512852936","4.0.10.0","1","3","demographics","gender","0","0","0","0","0","0","female","1","4387","0"
"071618","10:46:39","912504089","373367461","4.0.10.0","1","1","demographics","ProlificCode","0","0","0","0","0","0","59ac170d464901000177975a","1","31629","0"
"071618","10:46:39","912504089","373367461","4.0.10.0","1","2","demographics","age","0","0","0","0","0","0","32","1","4339","0"
"071618","10:46:39","912504089","373367461","4.0.10.0","1","3","demographics","gender","0","0","0","0","0","0","male","1","4128","0"
"071618","07:47:09","717080603","568258466","4.0.10.0","1","1","demographics","ProlificCode","0","0","0","0","0","0","59a7d57700ce080001e1a181 ","1","13828","0"
"071618","07:47:09","717080603","568258466","4.0.10.0","1","2","demographics","age","0","0","0","0","0","0","44","1","6136","0"
"071618","07:47:09","717080603","568258466","4.0.10.0","1","3","demographics","gender","0","0","0","0","0","0","Female","1","10971","0"
"071618","15:47:33","785719963","463882110","4.0.10.0","1","1","demographics","ProlificCode","0","0","0","0","0","0","5a09ec769b760100013a70e1","1","4948","0"
"071618","15:47:33","785719963","463882110","4.0.10.0","1","2","demographics","age","0","0","0","0","0","0","20","1","9260","0"
"071618","15:47:33","785719963","463882110","4.0.10.0","1","3","demographics","gender","0","0","0","0","0","0","Female","1","5720","0"
"071618","15:47:54","707940987","491513110","4.0.10.0","1","1","demographics","ProlificCode","0","0","0","0","0","0","59733182415cd40001f0d5eb","1","12553","0"
"071618","15:47:54","707940987","491513110","4.0.10.0","1","2","demographics","age","0","0","0","0","0","0","60","1","6332","0"
"071618","15:47:54","707940987","491513110","4.0.10.0","1","3","demographics","gender","0","0","0","0","0","0","female","1","9131","0"
"071618","15:47:30","626617529","477795391","4.0.10.0","1","1","demographics","ProlificCode","0","0","0","0","0","0","5a46d551b77a5000014a8ce9","1","40276","0"
"071618","15:47:30","626617529","477795391","4.0.10.0","1","2","demographics","age","0","0","0","0","0","0","19","1","6174","0"
"071618","15:47:30","626617529","477795391","4.0.10.0","1","3","demographics","gender","0","0","0","0","0","0","female ","1","6426","0"
"071618","10:46:26","860647278","909931015","4.0.10.0","1","1","demographics","ProlificCode","0","0","0","0","0","0","5aa43f611eda41000136c707","1","53076","0"
"071618","10:46:26","860647278","909931015","4.0.10.0","1","2","demographics","age","0","0","0","0","0","0","24","1","107604","0"
"071618","10:46:26","860647278","909931015","4.0.10.0","1","3","demographics","gender","0","0","0","0","0","0","male","1","2559","0"
"071618","15:48:37","471972117","303658948","4.0.10.0","1","1","demographics","ProlificCode","0","0","0","0","0","0","599b45856b939900012da3ce","1","3720","0"
"071618","15:48:37","471972117","303658948","4.0.10.0","1","2","demographics","age","0","0","0","0","0","0","29","1","3287","0"
"071618","15:48:37","471972117","303658948","4.0.10.0","1","3","demographics","gender","0","0","0","0","0","0","female","1","5189","0"
"071618","09:49:03","52046162","664958237","4.0.10.0","1","1","demographics","ProlificCode","0","0","0","0","0","0","5b0e2d1c444cef0001ca7dde","1","5014","0"
"071618","09:49:03","52046162","664958237","4.0.10.0","1","2","demographics","age","0","0","0","0","0","0","35","1","4955","0"
"071618","09:49:03","52046162","664958237","4.0.10.0","1","3","demographics","gender","0","0","0","0","0","0","Female","1","8349","0"
"071618","15:49:33","626617529","477795391","4.0.10.0","1","1","demographics","ProlificCode","0","0","0","0","0","0","5a46d551b77a5000014a8ce9","1","5025","0"
"071618","15:49:33","626617529","477795391","4.0.10.0","1","2","demographics","age","0","0","0","0","0","0","19","1","3166","0"
"071618","15:49:33","626617529","477795391","4.0.10.0","1","3","demographics","gender","0","0","0","0","0","0","female","1","3811","0"
"071618","15:49:48","369189900","152762024","4.0.10.0","1","1","demographics","ProlificCode","0","0","0","0","0","0","59954659c825cf0001d7dd6b","1","10629","0"
"071618","15:49:48","369189900","152762024","4.0.10.0","1","2","demographics","age","0","0","0","0","0","0","29","1","2327","0"
"071618","15:49:48","369189900","152762024","4.0.10.0","1","3","demographics","gender","0","0","0","0","0","0","F","1","2565","0"
"071618","15:50:33","279592186","54389710","4.0.10.0","1","1","demographics","ProlificCode","0","0","0","0","0","0","5a785635aa46dd00016b27d5","1","3857","0"
"071618","15:50:33","279592186","54389710","4.0.10.0","1","2","demographics","age","0","0","0","0","0","0","30","1","6091","0"
"071618","15:50:33","279592186","54389710","4.0.10.0","1","3","demographics","gender","0","0","0","0","0","0","female","1","4596","0"
"071618","15:50:23","225432303","854556011","4.0.10.0","1","1","demographics","ProlificCode","0","0","0","0","0","0","56408eba074be6000f5e99b9","1","3249","0"
"071618","15:50:23","225432303","854556011","4.0.10.0","1","2","demographics","age","0","0","0","0","0","0","38","1","5721","0"
"071618","15:50:23","225432303","854556011","4.0.10.0","1","3","demographics","gender","0","0","0","0","0","0","Female","1","22543","0"
"071718","00:51:02","318842506","387617282","4.0.10.0","1","1","demographics","ProlificCode","0","0","0","0","0","0","5aeb21f47b512c000122cd46","1","2604","0"
"071718","00:51:02","318842506","387617282","4.0.10.0","1","2","demographics","age","0","0","0","0","0","0","29","1","2540","0"
"071718","00:51:02","318842506","387617282","4.0.10.0","1","3","demographics","gender","0","0","0","0","0","0","M","1","2508","0"
"071618","15:50:52","727478645","167375011","4.0.10.0","1","1","demographics","ProlificCode","0","0","0","0","0","0","56a7eeb0c89737000c225efb","1","3389","0"
"071618","15:50:52","727478645","167375011","4.0.10.0","1","2","demographics","age","0","0","0","0","0","0","42","1","3141","0"
"071618","15:50:52","727478645","167375011","4.0.10.0","1","3","demographics","gender","0","0","0","0","0","0","female","1","9371","0"
"071618","10:50:49","455181062","239069947","4.0.10.0","1","1","demographics","ProlificCode","0","0","0","0","0","0","5b01a5c7a496b300013d55b9","1","6426","0"
"071618","10:50:49","455181062","239069947","4.0.10.0","1","2","demographics","age","0","0","0","0","0","0","47","1","3606","0"
"071618","10:50:49","455181062","239069947","4.0.10.0","1","3","demographics","gender","0","0","0","0","0","0","female","1","20748","0"
"071618","15:51:09","18724175","649949448","4.0.10.0","1","1","demographics","ProlificCode","0","0","0","0","0","0","5995ad4cf9db7d0001895973","1","3599","0"
"071618","15:51:09","18724175","649949448","4.0.10.0","1","2","demographics","age","0","0","0","0","0","0","26","1","3734","0"
"071618","15:51:09","18724175","649949448","4.0.10.0","1","3","demographics","gender","0","0","0","0","0","0","female","1","5261","0"
"071618","10:51:49","571226394","469341127","4.0.10.0","1","1","demographics","ProlificCode","0","0","0","0","0","0","5610817a7ffc8a000d8114c8","1","3378","0"
"071618","10:51:49","571226394","469341127","4.0.10.0","1","2","demographics","age","0","0","0","0","0","0","25","1","5187","0"
"071618","10:51:49","571226394","469341127","4.0.10.0","1","3","demographics","gender","0","0","0","0","0","0","male","1","3639","0"
"071718","00:52:40","318842506","387617282","4.0.10.0","1","1","demographics","ProlificCode","0","0","0","0","0","0","5aeb21f47b512c000122cd46","1","2034","0"
"071718","00:52:40","318842506","387617282","4.0.10.0","1","2","demographics","age","0","0","0","0","0","0","29","1","2283","0"
"071718","00:52:40","318842506","387617282","4.0.10.0","1","3","demographics","gender","0","0","0","0","0","0","M","1","1235","0"
"071618","10:52:15","339933414","389217149","4.0.10.0","1","1","demographics","ProlificCode","0","0","0","0","0","0","5a021209a383a100011b426e","1","32527","0"
"071618","10:52:15","339933414","389217149","4.0.10.0","1","2","demographics","age","0","0","0","0","0","0","23","1","2447","0"
"071618","10:52:15","339933414","389217149","4.0.10.0","1","3","demographics","gender","0","0","0","0","0","0","Male","1","2037","0"
"071618","15:52:39","285748304","69320430","4.0.10.0","1","1","demographics","ProlificCode","0","0","0","0","0","0","5a8c4425ae9a0b0001aa2260","1","6188","0"
"071618","15:52:39","285748304","69320430","4.0.10.0","1","2","demographics","age","0","0","0","0","0","0","23","1","10843","0"
"071618","15:52:39","285748304","69320430","4.0.10.0","1","3","demographics","gender","0","0","0","0","0","0","Female","1","4307","0"
"071618","15:53:11","232515921","236040629","4.0.10.0","1","1","demographics","ProlificCode","0","0","0","0","0","0","5b1825d1786aac000154d60d","1","3577","0"
"071618","15:53:11","232515921","236040629","4.0.10.0","1","2","demographics","age","0","0","0","0","0","0","21","1","2222","0"
"071618","15:53:11","232515921","236040629","4.0.10.0","1","3","demographics","gender","0","0","0","0","0","0","Female","1","3624","0"
"071618","10:53:11","339933414","389217149","4.0.10.0","1","1","demographics","ProlificCode","0","0","0","0","0","0","5a021209a383a100011b426e","1","4037","0"
"071618","10:53:11","339933414","389217149","4.0.10.0","1","2","demographics","age","0","0","0","0","0","0","23","1","4795","0"
"071618","10:53:11","339933414","389217149","4.0.10.0","1","3","demographics","gender","0","0","0","0","0","0","Male","1","2808","0"
"071618","15:57:16","597148525","884698043","4.0.10.0","1","1","demographics","ProlificCode","0","0","0","0","0","0","5a5de7caacc75b00017a8553","1","6256","0"
"071618","15:57:16","597148525","884698043","4.0.10.0","1","2","demographics","age","0","0","0","0","0","0","43","1","5988","0"
"071618","15:57:16","597148525","884698043","4.0.10.0","1","3","demographics","gender","0","0","0","0","0","0","female","1","9375","0"
"071618","15:54:20","693094774","129296219","4.0.10.0","1","1","demographics","ProlificCode","0","0","0","0","0","0","596c8dce12209100018745de","1","8084","0"
"071618","15:54:20","693094774","129296219","4.0.10.0","1","2","demographics","age","0","0","0","0","0","0","46","1","4099","0"
"071618","15:54:20","693094774","129296219","4.0.10.0","1","3","demographics","gender","0","0","0","0","0","0","female","1","7201","0"
"071618","15:55:35","362130543","756267867","4.0.10.0","1","1","demographics","ProlificCode","0","0","0","0","0","0","57d2db0e90eba30001b2443a","1","3836","0"
"071618","15:55:35","362130543","756267867","4.0.10.0","1","2","demographics","age","0","0","0","0","0","0","22","1","5999","0"
"071618","15:55:35","362130543","756267867","4.0.10.0","1","3","demographics","gender","0","0","0","0","0","0","Male","1","5567","0"
"071618","15:55:59","281374661","278848772","4.0.10.0","1","1","demographics","ProlificCode","0","0","0","0","0","0","5978768d5482e50001626098","1","3667","0"
"071618","15:55:59","281374661","278848772","4.0.10.0","1","2","demographics","age","0","0","0","0","0","0","23","1","4757","0"
"071618","15:55:59","281374661","278848772","4.0.10.0","1","3","demographics","gender","0","0","0","0","0","0","Male","1","5437","0"
"071618","15:56:12","759508560","319433172","4.0.10.0","1","1","demographics","ProlificCode","0","0","0","0","0","0","596c8dce12209100018745de","1","3214","0"
"071618","15:56:12","759508560","319433172","4.0.10.0","1","2","demographics","age","0","0","0","0","0","0","46","1","3748","0"
"071618","15:56:12","759508560","319433172","4.0.10.0","1","3","demographics","gender","0","0","0","0","0","0","female","1","7199","0"
"071618","15:56:39","332785631","263831835","4.0.10.0","1","1","demographics","ProlificCode","0","0","0","0","0","0","59d37786faf42e00012b6d2c","1","6121","0"
"071618","15:56:39","332785631","263831835","4.0.10.0","1","2","demographics","age","0","0","0","0","0","0","43","1","3590","0"
"071618","15:56:39","332785631","263831835","4.0.10.0","1","3","demographics","gender","0","0","0","0","0","0","Female","1","4905","0"
"071618","15:57:01","294531954","464142070","4.0.10.0","1","1","demographics","ProlificCode","0","0","0","0","0","0","5b168e30c9d3cb00010fcfb9","1","44181","0"
"071618","15:57:01","294531954","464142070","4.0.10.0","1","2","demographics","age","0","0","0","0","0","0","25","1","3952","0"
"071618","15:57:01","294531954","464142070","4.0.10.0","1","3","demographics","gender","0","0","0","0","0","0","female","1","2467","0"
"071618","16:01:26","794733205","726957240","4.0.10.0","1","1","demographics","ProlificCode","0","0","0","0","0","0","5b1825d1786aac000154d60d","1","3340","0"
"071618","16:01:26","794733205","726957240","4.0.10.0","1","2","demographics","age","0","0","0","0","0","0","21","1","2778","0"
"071618","16:01:26","794733205","726957240","4.0.10.0","1","3","demographics","gender","0","0","0","0","0","0","Female","1","3055","0"
"071618","10:56:41","985530741","983004851","4.0.10.0","1","1","demographics","ProlificCode","0","0","0","0","0","0","59c41e340c5fc800011940f3","1","19368","0"
"071618","10:56:41","985530741","983004851","4.0.10.0","1","2","demographics","age","0","0","0","0","0","0","53","1","3428","0"
"071618","10:56:41","985530741","983004851","4.0.10.0","1","3","demographics","gender","0","0","0","0","0","0","Male","1","6576","0"
"071618","11:01:17","775276272","96935104","4.0.10.0","1","1","demographics","ProlificCode","0","0","0","0","0","0","55650260fdf99b76e760cd77","1","28180","0"
"071618","11:01:17","775276272","96935104","4.0.10.0","1","2","demographics","age","0","0","0","0","0","0","21","1","4371","0"
"071618","11:01:17","775276272","96935104","4.0.10.0","1","3","demographics","gender","0","0","0","0","0","0","Male","1","3226","0"
"071618","16:16:09","443761945","841910949","4.0.10.0","1","1","demographics","ProlificCode","0","0","0","0","0","0","5abe194ae1099600016a4b1e","1","8039","0"
"071618","16:16:09","443761945","841910949","4.0.10.0","1","2","demographics","age","0","0","0","0","0","0","37","1","4131","0"
"071618","16:16:09","443761945","841910949","4.0.10.0","1","3","demographics","gender","0","0","0","0","0","0","female","1","6026","0"
"071618","16:17:45","816175913","433960753","4.0.10.0","1","1","demographics","ProlificCode","0","0","0","0","0","0","5a05c3ae38ed430001be7412","1","5228","0"
"071618","16:17:45","816175913","433960753","4.0.10.0","1","2","demographics","age","0","0","0","0","0","0","63","1","4737","0"
"071618","16:17:45","816175913","433960753","4.0.10.0","1","3","demographics","gender","0","0","0","0","0","0","female","1","6473","0"
"071618","11:19:05","229716481","131526138","4.0.10.0","1","1","demographics","ProlificCode","0","0","0","0","0","0","","1","26694","0"
"071618","11:19:50","228981952","83854743","4.0.10.0","1","1","demographics","ProlificCode","0","0","0","0","0","0","5b02e8c7a496b300013d7215  ","1","9556","0"
"071618","11:19:50","228981952","83854743","4.0.10.0","1","2","demographics","age","0","0","0","0","0","0","18","1","3566","0"
"071618","11:19:50","228981952","83854743","4.0.10.0","1","3","demographics","gender","0","0","0","0","0","0","female","1","3206","0"
"071618","11:20:41","229716481","131526138","4.0.10.0","1","1","demographics","ProlificCode","0","0","0","0","0","0","5b0c65c11e55760001b96e90","1","7462","0"
"071618","11:20:41","229716481","131526138","4.0.10.0","1","2","demographics","age","0","0","0","0","0","0","45","1","6027","0"
"071618","11:20:41","229716481","131526138","4.0.10.0","1","3","demographics","gender","0","0","0","0","0","0","female","1","6037","0"
"071718","10:13:36","913139435","954933050","4.0.10.0","1","1","demographics","ProlificCode","0","0","0","0","0","0","5b0482fc325b6c0001bbb7f0","1","33573","0"
"071718","10:13:36","913139435","954933050","4.0.10.0","1","2","demographics","age","0","0","0","0","0","0","27","1","2576","0"
"071718","10:13:36","913139435","954933050","4.0.10.0","1","3","demographics","gender","0","0","0","0","0","0","female","1","3414","0"
"071718","15:14:40","756072785","41432451","4.0.10.0","1","1","demographics","ProlificCode","0","0","0","0","0","0","5a2039a57b108200011e0341","1","6008","0"
"071718","15:14:40","756072785","41432451","4.0.10.0","1","2","demographics","age","0","0","0","0","0","0","35","1","3925","0"
"071718","15:14:40","756072785","41432451","4.0.10.0","1","3","demographics","gender","0","0","0","0","0","0","Male","1","4453","0"
"071718","15:14:56","529127635","386635382","4.0.10.0","1","1","demographics","ProlificCode","0","0","0","0","0","0","59d585d3d1ab390001da2f35","1","13481","0"
"071718","15:14:56","529127635","386635382","4.0.10.0","1","2","demographics","age","0","0","0","0","0","0","38","1","3343","0"
"071718","15:14:56","529127635","386635382","4.0.10.0","1","3","demographics","gender","0","0","0","0","0","0","Male","1","4506","0"
"071718","15:15:18","541592424","842029900","4.0.10.0","1","1","demographics","ProlificCode","0","0","0","0","0","0","5ad38d69b438910001aca94a","1","6889","0"
"071718","15:15:18","541592424","842029900","4.0.10.0","1","2","demographics","age","0","0","0","0","0","0","26 ","1","6090","0"
"071718","15:15:18","541592424","842029900","4.0.10.0","1","3","demographics","gender","0","0","0","0","0","0","male","1","3132","0"
"071718","15:16:51","857341101","627533922","4.0.10.0","1","1","demographics","ProlificCode","0","0","0","0","0","0","5a11ee6cff266c0001d20b42","1","8085","0"
"071718","15:16:51","857341101","627533922","4.0.10.0","1","2","demographics","age","0","0","0","0","0","0","39","1","3652","0"
"071718","15:16:51","857341101","627533922","4.0.10.0","1","3","demographics","gender","0","0","0","0","0","0","female","1","6231","0"
"071718","10:16:37","914013471","808760508","4.0.10.0","1","1","demographics","ProlificCode","0","0","0","0","0","0","5adf53ad4281570001a13d3d","1","13980","0"
"071718","10:16:37","914013471","808760508","4.0.10.0","1","2","demographics","age","0","0","0","0","0","0","27","1","2593","0"
"071718","10:16:37","914013471","808760508","4.0.10.0","1","3","demographics","gender","0","0","0","0","0","0","male","1","3261","0"
"071718","09:17:32","192780779","979149277","4.0.10.0","1","1","demographics","ProlificCode","0","0","0","0","0","0","591df4ef08b92f0001f8de40","1","6815","0"
"071718","09:17:32","192780779","979149277","4.0.10.0","1","2","demographics","age","0","0","0","0","0","0","59","1","3964","0"
"071718","09:17:32","192780779","979149277","4.0.10.0","1","3","demographics","gender","0","0","0","0","0","0","Female","1","5276","0"
"071718","07:17:47","539896824","840036172","4.0.10.0","1","1","demographics","ProlificCode","0","0","0","0","0","0","5b1e6575bd262e0001491806","1","42105","0"
"071718","07:17:47","539896824","840036172","4.0.10.0","1","2","demographics","age","0","0","0","0","0","0","26","1","9724","0"
"071718","07:17:47","539896824","840036172","4.0.10.0","1","3","demographics","gender","0","0","0","0","0","0","Male","1","5182","0"
"071718","10:19:14","890667283","305914201","4.0.10.0","1","1","demographics","ProlificCode","0","0","0","0","0","0","55e7b91341988f000575d6b5","1","39065","0"
"071718","10:19:14","890667283","305914201","4.0.10.0","1","2","demographics","age","0","0","0","0","0","0","32","1","2437","0"
"071718","10:19:14","890667283","305914201","4.0.10.0","1","3","demographics","gender","0","0","0","0","0","0","female","1","2458","0"
"071718","10:28:22","524740317","795643111","4.0.10.0","1","1","demographics","ProlificCode","0","0","0","0","0","0","58ebd87e6de7810001c9c5ee","1","7584","0"
"071718","10:28:22","524740317","795643111","4.0.10.0","1","2","demographics","age","0","0","0","0","0","0","27","1","9261","0"
"071718","10:28:22","524740317","795643111","4.0.10.0","1","3","demographics","gender","0","0","0","0","0","0","male","1","16402","0"
"071718","10:29:26","191207109","344033800","4.0.10.0","1","1","demographics","ProlificCode","0","0","0","0","0","0","56e6a66af6ed900006a5867c","1","2643","0"
"071718","10:29:26","191207109","344033800","4.0.10.0","1","2","demographics","age","0","0","0","0","0","0","38","1","5299","0"
"071718","10:29:26","191207109","344033800","4.0.10.0","1","3","demographics","gender","0","0","0","0","0","0","Male","1","3455","0"
