"date","time","subject","blockcode","blocknum","trialcode","trialnum","values.primestim","values.targetstim","correct","latency","trial.prime_positive.totalpercentcorrect","trial.prime_negative.totalpercentcorrect"
"071618","13:33:40","387783740","practice","1","prime_negative_practice","3","0","0","0","1433","0","0"
"071618","13:33:40","387783740","practice","1","intention_check_practice","4","0","0","0","2500","0","0"
"071618","13:33:40","387783740","practice","1","prime_negative_practice","5","0","0","0","1658","0","0"
"071618","13:33:40","387783740","practice","1","intention_check_practice","6","0","0","0","2500","0","0"
"071618","13:33:40","387783740","practice","1","prime_positive_practice","7","0","0","0","1476","0","0"
"071618","13:33:40","387783740","practice","1","intention_check_practice","8","0","0","1","93","0","0"
"071618","13:33:40","387783740","practice","1","prime_negative_practice","9","0","0","0","498","0","0"
"071618","13:33:40","387783740","practice","1","intention_check_practice","10","0","0","1","228","0","0"
"071618","13:33:40","387783740","practice","1","prime_positive_practice","11","0","0","1","222","0","0"
"071618","13:33:40","387783740","practice","1","intention_check_practice","12","0","0","1","253","0","0"
"071618","13:33:40","387783740","practice","1","prime_negative_practice","13","0","0","0","393","0","0"
"071618","13:33:40","387783740","practice","1","intention_check_practice","14","0","0","1","290","0","0"
"071618","13:33:40","387783740","practice","1","prime_positive_practice","15","0","0","1","551","0","0"
"071618","13:33:40","387783740","practice","1","intention_check_practice","16","0","0","0","2500","0","0"
"071618","13:33:40","387783740","practice","1","prime_positive_practice","17","0","0","1","2056","0","0"
"071618","13:33:40","387783740","practice","1","intention_check_practice","18","0","0","0","2500","0","0"
"071618","13:33:40","387783740","practice","1","prime_positive_practice","19","0","0","1","987","0","0"
"071618","13:33:40","387783740","practice","1","intention_check_practice","20","0","0","0","2500","0","0"
"071618","13:33:40","387783740","practice","1","prime_negative_practice","21","0","0","0","1795","0","0"
"071618","13:33:40","387783740","practice","1","intention_check_practice","22","0","0","0","2500","0","0"
"071618","13:33:40","387783740","test","2","prime_negative","2","4","35","0","1161","0","0"
"071618","13:33:40","387783740","test","2","intention_check","3","4","35","1","1381","0","0"
"071618","13:33:40","387783740","test","2","prime_positive","4","8","42","1","1457","100","0"
"071618","13:33:40","387783740","test","2","intention_check","5","8","42","1","1469","100","0"
"071618","13:33:40","387783740","test","2","prime_positive","6","11","44","1","1021","100","0"
"071618","13:33:40","387783740","test","2","intention_check","7","11","44","0","2500","100","0"
"071618","13:33:40","387783740","test","2","prime_positive","8","4","3","0","575","66","0"
"071618","13:33:40","387783740","test","2","intention_check","9","4","3","1","868","66","0"
"071618","13:33:40","387783740","test","2","prime_positive","10","7","22","1","842","75","0"
"071618","13:33:40","387783740","test","2","intention_check","11","7","22","1","1536","75","0"
"071618","13:33:40","387783740","test","2","prime_positive","12","1","70","1","510","80","0"
"071618","13:33:40","387783740","test","2","intention_check","13","1","70","1","631","80","0"
"071618","13:33:40","387783740","test","2","prime_positive","14","6","10","1","614","83","0"
"071618","13:33:40","387783740","test","2","intention_check","15","6","10","1","325","83","0"
"071618","13:33:40","387783740","test","2","prime_positive","16","2","67","1","324","85","0"
"071618","13:33:40","387783740","test","2","intention_check","17","2","67","1","538","85","0"
"071618","13:33:40","387783740","test","2","prime_positive","18","1","28","1","291","87","0"
"071618","13:33:40","387783740","test","2","intention_check","19","1","28","1","538","87","0"
"071618","13:33:40","387783740","test","2","prime_negative","20","7","72","0","433","87","0"
"071618","13:33:40","387783740","test","2","intention_check","21","7","72","1","1117","87","0"
"071618","13:33:40","387783740","test","2","prime_positive","22","3","14","1","738","88","0"
"071618","13:33:40","387783740","test","2","intention_check","23","3","14","0","2500","88","0"
"071618","13:33:40","387783740","test","2","prime_positive","24","9","6","1","393","90","0"
"071618","13:33:40","387783740","test","2","intention_check","25","9","6","0","2500","90","0"
"071618","13:33:40","387783740","test","2","prime_negative","26","2","52","1","882","90","33"
"071618","13:33:40","387783740","test","2","intention_check","27","2","52","0","2500","90","33"
"071618","13:33:40","387783740","test","2","prime_negative","28","5","38","0","528","90","25"
"071618","13:33:40","387783740","test","2","intention_check","29","5","38","0","2500","90","25"
"071618","13:33:40","387783740","test","2","prime_positive","30","8","55","1","437","90","25"
"071618","13:33:40","387783740","test","2","intention_check","31","8","55","1","395","90","25"
"071618","13:33:40","387783740","test","2","prime_negative","32","8","5","0","412","90","20"
"071618","13:33:40","387783740","test","2","intention_check","33","8","5","1","613","90","20"
"071618","13:33:40","387783740","test","2","prime_positive","34","2","31","1","864","91","20"
"071618","13:33:40","387783740","test","2","intention_check","35","2","31","0","2500","91","20"
"071618","13:33:40","387783740","test","2","prime_negative","36","11","56","1","355","91","33"
"071618","13:33:40","387783740","test","2","intention_check","37","11","56","0","2500","91","33"
"071618","13:33:40","387783740","test","2","prime_positive","38","6","29","1","169","92","33"
"071618","13:33:40","387783740","test","2","intention_check","39","6","29","0","2500","92","33"
"071618","13:33:40","387783740","test","2","prime_positive","40","5","19","1","471","92","33"
"071618","13:33:40","387783740","test","2","intention_check","41","5","19","0","2500","92","33"
"071618","13:33:40","387783740","test","2","prime_negative","42","12","13","0","668","92","28"
"071618","13:33:40","387783740","test","2","intention_check","43","12","13","1","1815","92","28"
"071618","13:33:40","387783740","test","2","prime_negative","44","9","21","0","952","92","25"
"071618","13:33:40","387783740","test","2","intention_check","45","9","21","1","821","92","25"
"071618","13:33:40","387783740","test","2","prime_positive","46","4","36","0","493","86","25"
"071618","13:33:40","387783740","test","2","intention_check","47","4","36","1","581","86","25"
"071618","13:33:40","387783740","test","2","prime_negative","48","8","50","0","418","86","22"
"071618","13:33:40","387783740","test","2","intention_check","49","8","50","1","606","86","22"
"071618","13:33:40","387783740","test","2","prime_positive","50","12","11","1","1068","87","22"
"071618","13:33:40","387783740","test","2","intention_check","51","12","11","0","2500","87","22"
"071618","13:33:40","387783740","test","2","prime_positive","52","7","63","1","359","88","22"
"071618","13:33:40","387783740","test","2","intention_check","53","7","63","1","832","88","22"
"071618","13:33:40","387783740","test","2","prime_negative","54","10","61","0","794","88","20"
"071618","13:33:40","387783740","test","2","intention_check","55","10","61","0","2500","88","20"
"071618","13:33:40","387783740","test","2","prime_negative","56","1","53","0","557","88","18"
"071618","13:33:40","387783740","test","2","intention_check","57","1","53","0","2500","88","18"
"071618","13:33:40","387783740","test","2","prime_positive","58","11","68","1","318","88","18"
"071618","13:33:40","387783740","test","2","intention_check","59","11","68","0","2500","88","18"
"071618","13:33:40","387783740","test","2","prime_positive","60","10","8","1","451","89","18"
"071618","13:33:40","387783740","test","2","intention_check","61","10","8","0","2500","89","18"
"071618","13:33:40","387783740","test","2","prime_positive","62","10","25","1","672","90","18"
"071618","13:33:40","387783740","test","2","intention_check","63","10","25","0","2500","90","18"
"071618","13:33:40","387783740","test","2","prime_positive","64","9","51","1","474","90","18"
"071618","13:33:40","387783740","test","2","intention_check","65","9","51","0","2500","90","18"
"071618","13:33:40","387783740","test","2","prime_negative","66","7","58","0","424","90","16"
"071618","13:33:40","387783740","test","2","intention_check","67","7","58","1","527","90","16"
"071618","13:33:40","387783740","test","2","prime_positive","68","3","17","1","251","90","16"
"071618","13:33:40","387783740","test","2","intention_check","69","3","17","0","2500","90","16"
"071618","13:33:40","387783740","test","2","prime_positive","70","12","34","1","481","91","16"
"071618","13:33:40","387783740","test","2","intention_check","71","12","34","0","2500","91","16"
"071618","13:33:40","387783740","test","2","prime_negative","72","3","37","0","459","91","15"
"071618","13:33:40","387783740","test","2","intention_check","73","3","37","0","2500","91","15"
"071618","13:33:40","387783740","test","2","prime_negative","74","12","15","0","970","91","14"
"071618","13:33:40","387783740","test","2","intention_check","75","12","15","0","2500","91","14"
"071618","13:33:40","387783740","test","2","prime_negative","76","4","49","0","644","91","13"
"071618","13:33:40","387783740","test","2","intention_check","77","4","49","0","2500","91","13"
"071618","13:33:40","387783740","test","2","prime_negative","78","5","7","1","1441","91","18"
"071618","13:33:40","387783740","test","2","intention_check","79","5","7","1","1365","91","18"
"071618","13:33:40","387783740","test","2","prime_negative","80","11","20","1","1375","91","23"
"071618","13:33:40","387783740","test","2","intention_check","81","11","20","1","1298","91","23"
"071618","13:33:40","387783740","test","2","prime_positive","82","5","30","1","331","91","23"
"071618","13:33:40","387783740","test","2","intention_check","83","5","30","1","596","91","23"
"071618","13:33:40","387783740","test","2","prime_negative","84","2","59","0","418","91","22"
"071618","13:33:40","387783740","test","2","intention_check","85","2","59","0","2500","91","22"
"071618","13:33:40","387783740","test","2","prime_negative","86","6","41","0","318","91","21"
"071618","13:33:40","387783740","test","2","intention_check","87","6","41","0","2500","91","21"
"071618","13:33:40","387783740","test","2","prime_positive","88","6","69","1","188","92","21"
"071618","13:33:40","387783740","test","2","intention_check","89","6","69","0","2500","92","21"
"071618","13:33:40","387783740","test","2","prime_positive","90","11","64","1","289","92","21"
"071618","13:33:40","387783740","test","2","intention_check","91","11","64","0","2500","92","21"
"071618","13:33:40","387783740","test","2","prime_positive","92","8","27","1","304","92","21"
"071618","13:33:40","387783740","test","2","intention_check","93","8","27","0","2500","92","21"
"071618","13:33:40","387783740","test","2","prime_negative","94","11","39","1","212","92","25"
"071618","13:33:40","387783740","test","2","intention_check","95","11","39","0","2500","92","25"
"071618","13:33:40","387783740","test","2","prime_negative","96","5","18","0","384","92","23"
"071618","13:33:40","387783740","test","2","intention_check","97","5","18","0","2500","92","23"
"071618","13:33:40","387783740","test","2","prime_negative","98","3","1","0","447","92","22"
"071618","13:33:40","387783740","test","2","intention_check","99","3","1","0","2500","92","22"
"071618","13:33:40","387783740","test","2","prime_positive","100","1","40","1","348","92","22"
"071618","13:33:40","387783740","test","2","intention_check","101","1","40","0","2500","92","22"
"071618","13:33:40","387783740","test","2","prime_negative","102","10","57","0","492","92","21"
"071618","13:33:40","387783740","test","2","intention_check","103","10","57","0","2500","92","21"
"071618","13:33:40","387783740","test","2","prime_negative","104","9","2","0","1735","92","20"
"071618","13:33:40","387783740","test","2","intention_check","105","9","2","0","2500","92","20"
"071618","13:33:40","387783740","test","2","prime_positive","106","2","32","1","338","93","20"
"071618","13:33:40","387783740","test","2","intention_check","107","2","32","0","2500","93","20"
"071618","13:33:40","387783740","test","2","prime_negative","108","12","48","1","943","93","24"
"071618","13:33:40","387783740","test","2","intention_check","109","12","48","0","2500","93","24"
"071618","13:33:40","387783740","test","2","prime_negative","110","6","46","0","799","93","23"
"071618","13:33:40","387783740","test","2","intention_check","111","6","46","0","2500","93","23"
"071618","13:33:40","387783740","test","2","prime_positive","112","7","71","1","338","93","23"
"071618","13:33:40","387783740","test","2","intention_check","113","7","71","1","538","93","23"
"071618","13:33:40","387783740","test","2","prime_negative","114","2","9","0","844","93","22"
"071618","13:33:40","387783740","test","2","intention_check","115","2","9","0","2500","93","22"
"071618","13:33:40","387783740","test","2","prime_positive","116","4","33","0","427","90","22"
"071618","13:33:40","387783740","test","2","intention_check","117","4","33","0","2500","90","22"
"071618","13:33:40","387783740","test","2","prime_positive","118","3","60","1","229","90","22"
"071618","13:33:40","387783740","test","2","intention_check","119","3","60","0","2500","90","22"
"071618","13:33:40","387783740","test","2","prime_negative","120","8","43","0","415","90","21"
"071618","13:33:40","387783740","test","2","intention_check","121","8","43","0","2500","90","21"
"071618","13:33:40","387783740","test","2","prime_positive","122","6","45","1","236","90","21"
"071618","13:33:40","387783740","test","2","intention_check","123","6","45","0","2500","90","21"
"071618","13:33:40","387783740","test","2","prime_positive","124","2","65","1","319","91","21"
"071618","13:33:40","387783740","test","2","intention_check","125","2","65","0","2500","91","21"
"071618","13:33:40","387783740","test","2","prime_negative","126","7","40","0","503","91","20"
"071618","13:33:40","387783740","test","2","intention_check","127","7","40","0","2500","91","20"
"071618","13:33:40","387783740","test","2","prime_negative","128","1","65","0","608","91","20"
"071618","13:33:40","387783740","test","2","intention_check","129","1","65","0","2500","91","20"
"071618","13:33:40","387783740","test","2","prime_negative","130","4","70","0","453","91","19"
"071618","13:33:40","387783740","test","2","intention_check","131","4","70","0","2500","91","19"
"071618","13:33:40","387783740","test","2","prime_negative","132","10","50","0","626","91","18"
"071618","13:33:40","387783740","test","2","intention_check","133","10","50","0","2500","91","18"
"071618","13:33:40","387783740","test","2","prime_negative","134","2","1","0","1192","91","18"
"071618","13:33:40","387783740","test","2","intention_check","135","2","1","1","502","91","18"
"071618","13:33:40","387783740","test","2","prime_negative","136","3","53","0","1474","91","17"
"071618","13:33:40","387783740","test","2","intention_check","137","3","53","1","1069","91","17"
"071618","13:33:40","387783740","test","2","prime_positive","138","10","8","1","751","91","17"
"071618","13:33:40","387783740","test","2","intention_check","139","10","8","0","2500","91","17"
"071618","13:33:40","387783740","test","2","prime_positive","140","12","17","1","602","91","17"
"071618","13:33:40","387783740","test","2","intention_check","141","12","17","0","2500","91","17"
"071618","13:33:40","387783740","test","2","prime_negative","142","11","24","1","1021","91","20"
"071618","13:33:40","387783740","test","2","intention_check","143","11","24","0","2500","91","20"
"071618","13:33:40","387783740","test","2","prime_negative","144","9","10","0","514","91","19"
"071618","13:33:40","387783740","test","2","intention_check","145","9","10","1","343","91","19"
"071618","07:34:33","608526962","practice","1","prime_negative_practice","3","0","0","0","751","0","0"
"071618","07:34:33","608526962","practice","1","intention_check_practice","4","0","0","0","2500","0","0"
"071618","07:34:33","608526962","practice","1","prime_positive_practice","5","0","0","0","540","0","0"
"071618","07:34:33","608526962","practice","1","intention_check_practice","6","0","0","0","2500","0","0"
"071618","07:34:33","608526962","practice","1","prime_positive_practice","7","0","0","0","609","0","0"
"071618","07:34:33","608526962","practice","1","intention_check_practice","8","0","0","0","2500","0","0"
"071618","07:34:33","608526962","practice","1","prime_negative_practice","9","0","0","0","1436","0","0"
"071618","07:34:33","608526962","practice","1","intention_check_practice","10","0","0","0","2500","0","0"
"071618","07:34:33","608526962","practice","1","prime_positive_practice","11","0","0","1","886","0","0"
"071618","07:34:33","608526962","practice","1","intention_check_practice","12","0","0","0","2500","0","0"
"071618","07:34:33","608526962","practice","1","prime_positive_practice","13","0","0","1","447","0","0"
"071618","07:34:33","608526962","practice","1","intention_check_practice","14","0","0","0","2500","0","0"
"071618","07:34:33","608526962","practice","1","prime_negative_practice","15","0","0","0","447","0","0"
"071618","07:34:33","608526962","practice","1","intention_check_practice","16","0","0","0","2500","0","0"
"071618","07:34:33","608526962","practice","1","prime_positive_practice","17","0","0","0","528","0","0"
"071618","07:34:33","608526962","practice","1","intention_check_practice","18","0","0","0","2500","0","0"
"071618","07:34:33","608526962","practice","1","prime_negative_practice","19","0","0","0","590","0","0"
"071618","07:34:33","608526962","practice","1","intention_check_practice","20","0","0","0","2500","0","0"
"071618","07:34:33","608526962","practice","1","prime_negative_practice","21","0","0","1","546","0","0"
"071618","07:34:33","608526962","practice","1","intention_check_practice","22","0","0","0","2500","0","0"
"071618","07:34:33","608526962","test","2","prime_positive","2","8","59","0","547","0","0"
"071618","07:34:33","608526962","test","2","intention_check","3","8","59","0","2500","0","0"
"071618","07:34:33","608526962","test","2","prime_positive","4","6","48","0","465","0","0"
"071618","07:34:33","608526962","test","2","intention_check","5","6","48","0","2500","0","0"
"071618","07:34:33","608526962","test","2","prime_positive","6","5","64","0","577","0","0"
"071618","07:34:33","608526962","test","2","intention_check","7","5","64","0","2500","0","0"
"071618","07:34:33","608526962","test","2","prime_negative","8","10","1","0","613","0","0"
"071618","07:34:33","608526962","test","2","intention_check","9","10","1","0","2500","0","0"
"071618","07:34:33","608526962","test","2","prime_positive","10","12","49","1","528","25","0"
"071618","07:34:33","608526962","test","2","intention_check","11","12","49","0","2500","25","0"
"071618","07:34:33","608526962","test","2","prime_positive","12","4","7","1","414","40","0"
"071618","07:34:33","608526962","test","2","intention_check","13","4","7","0","2500","40","0"
"071618","07:34:33","608526962","test","2","prime_positive","14","9","68","1","497","50","0"
"071618","07:34:33","608526962","test","2","intention_check","15","9","68","0","2500","50","0"
"071618","07:34:33","608526962","test","2","prime_positive","16","11","25","1","402","57","0"
"071618","07:34:33","608526962","test","2","intention_check","17","11","25","0","2500","57","0"
"071618","07:34:33","608526962","test","2","prime_negative","18","5","71","0","474","57","0"
"071618","07:34:33","608526962","test","2","intention_check","19","5","71","0","2500","57","0"
"071618","07:34:33","608526962","test","2","prime_positive","20","2","60","0","690","50","0"
"071618","07:34:33","608526962","test","2","intention_check","21","2","60","0","2500","50","0"
"071618","07:34:33","608526962","test","2","prime_positive","22","8","33","1","521","55","0"
"071618","07:34:33","608526962","test","2","intention_check","23","8","33","0","2500","55","0"
"071618","07:34:33","608526962","test","2","prime_positive","24","12","44","1","609","60","0"
"071618","07:34:33","608526962","test","2","intention_check","25","12","44","0","2500","60","0"
"071618","07:34:33","608526962","test","2","prime_positive","26","11","61","1","531","63","0"
"071618","07:34:33","608526962","test","2","intention_check","27","11","61","0","2500","63","0"
"071618","07:34:33","608526962","test","2","prime_positive","28","7","8","0","512","58","0"
"071618","07:34:33","608526962","test","2","intention_check","29","7","8","0","2500","58","0"
"071618","07:34:33","608526962","test","2","prime_negative","30","12","42","0","671","58","0"
"071618","07:34:33","608526962","test","2","intention_check","31","12","42","0","2500","58","0"
"071618","07:34:33","608526962","test","2","prime_positive","32","5","55","0","616","53","0"
"071618","07:34:33","608526962","test","2","intention_check","33","5","55","0","2500","53","0"
"071618","07:34:33","608526962","test","2","prime_negative","34","7","18","0","594","53","0"
"071618","07:34:33","608526962","test","2","intention_check","35","7","18","0","2500","53","0"
"071618","07:34:33","608526962","test","2","prime_positive","36","10","14","0","565","50","0"
"071618","07:34:33","608526962","test","2","intention_check","37","10","14","0","2500","50","0"
"071618","07:34:33","608526962","test","2","prime_positive","38","6","11","0","426","46","0"
"071618","07:34:33","608526962","test","2","intention_check","39","6","11","0","2500","46","0"
"071618","07:34:33","608526962","test","2","prime_negative","40","8","22","1","788","46","20"
"071618","07:34:33","608526962","test","2","intention_check","41","8","22","0","2500","46","20"
"071618","07:34:33","608526962","test","2","prime_negative","42","11","35","1","472","46","33"
"071618","07:34:33","608526962","test","2","intention_check","43","11","35","0","2500","46","33"
"071618","07:34:33","608526962","test","2","prime_negative","44","4","19","1","800","46","42"
"071618","07:34:33","608526962","test","2","intention_check","45","4","19","0","2500","46","42"
"071618","07:34:33","608526962","test","2","prime_positive","46","1","34","0","2075","43","42"
"071618","07:34:33","608526962","test","2","intention_check","47","1","34","0","2500","43","42"
"071618","07:34:33","608526962","test","2","prime_positive","48","9","31","0","435","41","42"
"071618","07:34:33","608526962","test","2","intention_check","49","9","31","0","2500","41","42"
"071618","07:34:33","608526962","test","2","prime_negative","50","8","45","0","549","41","37"
"071618","07:34:33","608526962","test","2","intention_check","51","8","45","0","2500","41","37"
"071618","07:34:33","608526962","test","2","prime_positive","52","3","29","1","529","44","37"
"071618","07:34:33","608526962","test","2","intention_check","53","3","29","0","2500","44","37"
"071618","07:34:33","608526962","test","2","prime_negative","54","9","2","1","416","44","44"
"071618","07:34:33","608526962","test","2","intention_check","55","9","2","0","2500","44","44"
"071618","07:34:33","608526962","test","2","prime_negative","56","1","52","1","538","44","50"
"071618","07:34:33","608526962","test","2","intention_check","57","1","52","0","2500","44","50"
"071618","07:34:33","608526962","test","2","prime_negative","58","2","23","1","407","44","54"
"071618","07:34:33","608526962","test","2","intention_check","59","2","23","0","2500","44","54"
"071618","07:34:33","608526962","test","2","prime_positive","60","4","46","1","458","47","54"
"071618","07:34:33","608526962","test","2","intention_check","61","4","46","0","2500","47","54"
"071618","07:34:33","608526962","test","2","prime_negative","62","7","27","1","538","47","58"
"071618","07:34:33","608526962","test","2","intention_check","63","7","27","0","2500","47","58"
"071618","07:34:33","608526962","test","2","prime_negative","64","4","9","1","392","47","61"
"071618","07:34:33","608526962","test","2","intention_check","65","4","9","0","2500","47","61"
"071618","07:34:33","608526962","test","2","prime_negative","66","12","72","1","524","47","64"
"071618","07:34:33","608526962","test","2","intention_check","67","12","72","0","2500","47","64"
"071618","07:34:33","608526962","test","2","prime_negative","68","3","32","1","649","47","66"
"071618","07:34:33","608526962","test","2","intention_check","69","3","32","0","2500","47","66"
"071618","07:34:33","608526962","test","2","prime_positive","70","9","57","1","578","50","66"
"071618","07:34:33","608526962","test","2","intention_check","71","9","57","0","2500","50","66"
"071618","07:34:33","608526962","test","2","prime_positive","72","7","21","1","616","52","66"
"071618","07:34:33","608526962","test","2","intention_check","73","7","21","0","2500","52","66"
"071618","07:34:33","608526962","test","2","prime_negative","74","5","17","1","457","52","68"
"071618","07:34:33","608526962","test","2","intention_check","75","5","17","0","2500","52","68"
"071618","07:34:33","608526962","test","2","prime_negative","76","10","66","1","506","52","70"
"071618","07:34:33","608526962","test","2","intention_check","77","10","66","0","2500","52","70"
"071618","07:34:33","608526962","test","2","prime_positive","78","6","56","0","641","50","70"
"071618","07:34:33","608526962","test","2","intention_check","79","6","56","0","2500","50","70"
"071618","07:34:33","608526962","test","2","prime_negative","80","11","26","0","474","50","66"
"071618","07:34:33","608526962","test","2","intention_check","81","11","26","0","2500","50","66"
"071618","07:34:33","608526962","test","2","prime_negative","82","6","69","0","586","50","63"
"071618","07:34:33","608526962","test","2","intention_check","83","6","69","0","2500","50","63"
"071618","07:34:33","608526962","test","2","prime_positive","84","12","41","1","661","52","63"
"071618","07:34:33","608526962","test","2","intention_check","85","12","41","0","2500","52","63"
"071618","07:34:33","608526962","test","2","prime_positive","86","4","39","1","438","54","63"
"071618","07:34:33","608526962","test","2","intention_check","87","4","39","0","2500","54","63"
"071618","07:34:33","608526962","test","2","prime_positive","88","3","63","0","519","52","63"
"071618","07:34:33","608526962","test","2","intention_check","89","3","63","0","2500","52","63"
"071618","07:34:33","608526962","test","2","prime_negative","90","4","36","1","486","52","65"
"071618","07:34:33","608526962","test","2","intention_check","91","4","36","0","2500","52","65"
"071618","07:34:33","608526962","test","2","prime_positive","92","1","37","0","597","50","65"
"071618","07:34:33","608526962","test","2","intention_check","93","1","37","0","2500","50","65"
"071618","07:34:33","608526962","test","2","prime_negative","94","7","30","0","536","50","61"
"071618","07:34:33","608526962","test","2","intention_check","95","7","30","0","2500","50","61"
"071618","07:34:33","608526962","test","2","prime_negative","96","2","65","0","422","50","59"
"071618","07:34:33","608526962","test","2","intention_check","97","2","65","0","2500","50","59"
"071618","07:34:33","608526962","test","2","prime_negative","98","10","6","1","513","50","60"
"071618","07:34:33","608526962","test","2","intention_check","99","10","6","0","2500","50","60"
"071618","07:34:33","608526962","test","2","prime_positive","100","5","62","1","551","51","60"
"071618","07:34:33","608526962","test","2","intention_check","101","5","62","0","2500","51","60"
"071618","07:34:33","608526962","test","2","prime_positive","102","11","58","1","460","53","60"
"071618","07:34:33","608526962","test","2","intention_check","103","11","58","0","2500","53","60"
"071618","07:34:33","608526962","test","2","prime_positive","104","2","20","0","1604","51","60"
"071618","07:34:33","608526962","test","2","intention_check","105","2","20","0","2500","51","60"
"071618","07:34:33","608526962","test","2","prime_negative","106","6","40","1","472","51","62"
"071618","07:34:33","608526962","test","2","intention_check","107","6","40","0","2500","51","62"
"071618","07:34:33","608526962","test","2","prime_positive","108","10","24","1","591","53","62"
"071618","07:34:33","608526962","test","2","intention_check","109","10","24","0","2500","53","62"
"071618","07:34:33","608526962","test","2","prime_negative","110","1","15","1","571","53","64"
"071618","07:34:33","608526962","test","2","intention_check","111","1","15","0","2500","53","64"
"071618","07:34:33","608526962","test","2","prime_positive","112","8","51","1","616","54","64"
"071618","07:34:33","608526962","test","2","intention_check","113","8","51","0","2500","54","64"
"071618","07:34:33","608526962","test","2","prime_negative","114","11","13","1","490","54","65"
"071618","07:34:33","608526962","test","2","intention_check","115","11","13","0","2500","54","65"
"071618","07:34:33","608526962","test","2","prime_negative","116","3","70","1","393","54","66"
"071618","07:34:33","608526962","test","2","intention_check","117","3","70","0","2500","54","66"
"071618","07:34:33","608526962","test","2","prime_negative","118","5","12","0","469","54","64"
"071618","07:34:33","608526962","test","2","intention_check","119","5","12","0","2500","54","64"
"071618","07:34:33","608526962","test","2","prime_negative","120","9","5","0","508","54","62"
"071618","07:34:33","608526962","test","2","intention_check","121","9","5","0","2500","54","62"
"071618","07:34:33","608526962","test","2","prime_negative","122","8","43","1","419","54","63"
"071618","07:34:33","608526962","test","2","intention_check","123","8","43","0","2500","54","63"
"071618","07:34:33","608526962","test","2","prime_negative","124","12","67","1","677","54","64"
"071618","07:34:33","608526962","test","2","intention_check","125","12","67","0","2500","54","64"
"071618","07:34:33","608526962","test","2","prime_negative","126","9","4","1","466","54","65"
"071618","07:34:33","608526962","test","2","intention_check","127","9","4","0","2500","54","65"
"071618","07:34:33","608526962","test","2","prime_negative","128","10","10","1","445","54","66"
"071618","07:34:33","608526962","test","2","intention_check","129","10","10","0","2500","54","66"
"071618","07:34:33","608526962","test","2","prime_positive","130","10","31","0","535","53","66"
"071618","07:34:33","608526962","test","2","intention_check","131","10","31","0","2500","53","66"
"071618","07:34:33","608526962","test","2","prime_positive","132","4","58","0","540","51","66"
"071618","07:34:33","608526962","test","2","intention_check","133","4","58","0","2500","51","66"
"071618","07:34:33","608526962","test","2","prime_negative","134","12","72","1","538","51","67"
"071618","07:34:33","608526962","test","2","intention_check","135","12","72","0","2500","51","67"
"071618","07:34:33","608526962","test","2","prime_negative","136","7","40","1","399","51","68"
"071618","07:34:33","608526962","test","2","intention_check","137","7","40","0","2500","51","68"
"071618","07:34:33","608526962","test","2","prime_positive","138","11","12","0","722","50","68"
"071618","07:34:33","608526962","test","2","intention_check","139","11","12","0","2500","50","68"
"071618","07:34:33","608526962","test","2","prime_positive","140","8","71","0","672","48","68"
"071618","07:34:33","608526962","test","2","intention_check","141","8","71","0","2500","48","68"
"071618","07:34:33","608526962","test","2","prime_positive","142","5","69","0","712","47","68"
"071618","07:34:33","608526962","test","2","intention_check","143","5","69","0","2500","47","68"
"071618","07:34:33","608526962","test","2","prime_negative","144","6","50","0","431","47","66"
"071618","07:34:33","608526962","test","2","intention_check","145","6","50","0","2500","47","66"
"071618","22:33:10","187488134","practice","1","prime_positive_practice","3","0","0","0","7182","0","0"
"071618","22:33:10","187488134","practice","1","intention_check_practice","4","0","0","0","2500","0","0"
"071618","22:33:10","187488134","practice","1","prime_positive_practice","5","0","0","0","872","0","0"
"071618","22:33:10","187488134","practice","1","intention_check_practice","6","0","0","0","2500","0","0"
"071618","22:33:10","187488134","practice","1","prime_negative_practice","7","0","0","0","1270","0","0"
"071618","22:33:10","187488134","practice","1","intention_check_practice","8","0","0","1","562","0","0"
"071618","22:33:10","187488134","practice","1","prime_negative_practice","9","0","0","0","693","0","0"
"071618","22:33:10","187488134","practice","1","intention_check_practice","10","0","0","1","240","0","0"
"071618","22:33:10","187488134","practice","1","prime_negative_practice","11","0","0","0","883","0","0"
"071618","22:33:10","187488134","practice","1","intention_check_practice","12","0","0","1","350","0","0"
"071618","22:33:10","187488134","practice","1","prime_negative_practice","13","0","0","0","857","0","0"
"071618","22:33:10","187488134","practice","1","intention_check_practice","14","0","0","1","62","0","0"
"071618","22:33:10","187488134","practice","1","prime_negative_practice","15","0","0","0","2520","0","0"
"071618","22:33:10","187488134","practice","1","intention_check_practice","16","0","0","1","370","0","0"
"071618","22:33:10","187488134","practice","1","prime_positive_practice","17","0","0","1","461","0","0"
"071618","22:33:10","187488134","practice","1","intention_check_practice","18","0","0","1","721","0","0"
"071618","22:33:10","187488134","practice","1","prime_positive_practice","19","0","0","1","356","0","0"
"071618","22:33:10","187488134","practice","1","intention_check_practice","20","0","0","1","189","0","0"
"071618","22:33:10","187488134","practice","1","prime_positive_practice","21","0","0","0","311","0","0"
"071618","22:33:10","187488134","practice","1","intention_check_practice","22","0","0","1","26","0","0"
"071618","22:33:10","187488134","test","2","prime_negative","2","10","57","1","1174","0","100"
"071618","22:33:10","187488134","test","2","intention_check","3","10","57","1","14","0","100"
"071618","22:33:10","187488134","test","2","prime_positive","4","11","35","1","4369","100","100"
"071618","22:33:10","187488134","test","2","intention_check","5","11","35","1","89","100","100"
"071618","22:33:10","187488134","test","2","prime_positive","6","3","21","1","563","100","100"
"071618","22:33:10","187488134","test","2","intention_check","7","3","21","0","2500","100","100"
"071618","22:33:10","187488134","test","2","prime_positive","8","5","51","1","406","100","100"
"071618","22:33:10","187488134","test","2","intention_check","9","5","51","0","2500","100","100"
"071618","22:33:10","187488134","test","2","prime_negative","10","9","71","1","79","100","100"
"071618","22:33:10","187488134","test","2","intention_check","11","9","71","1","59","100","100"
"071618","22:33:10","187488134","test","2","prime_positive","12","6","53","1","405","100","100"
"071618","22:33:10","187488134","test","2","intention_check","13","6","53","1","20","100","100"
"071618","22:33:10","187488134","test","2","prime_negative","14","1","59","0","255","100","66"
"071618","22:33:10","187488134","test","2","intention_check","15","1","59","1","35","100","66"
"071618","22:33:10","187488134","test","2","prime_negative","16","5","45","0","350","100","50"
"071618","22:33:10","187488134","test","2","intention_check","17","5","45","1","23","100","50"
"071618","22:33:10","187488134","test","2","prime_negative","18","2","43","0","545","100","40"
"071618","22:33:10","187488134","test","2","intention_check","19","2","43","1","11","100","40"
"071618","22:33:10","187488134","test","2","prime_negative","20","7","9","0","19269","100","33"
"071618","22:33:10","187488134","test","2","intention_check","21","7","9","1","41","100","33"
"071618","22:33:10","187488134","test","2","prime_positive","22","1","70","0","604","80","33"
"071618","22:33:10","187488134","test","2","intention_check","23","1","70","0","2500","80","33"
"071618","22:33:10","187488134","test","2","prime_negative","24","11","54","0","468","80","28"
"071618","22:33:10","187488134","test","2","intention_check","25","11","54","0","2500","80","28"
"071618","22:33:10","187488134","test","2","prime_positive","26","2","32","0","91","66","28"
"071618","22:33:10","187488134","test","2","intention_check","27","2","32","0","2500","66","28"
"071618","22:33:10","187488134","test","2","prime_positive","28","9","17","0","7864","57","28"
"071618","22:33:10","187488134","test","2","intention_check","29","9","17","0","2500","57","28"
"071618","22:33:10","187488134","test","2","prime_positive","30","8","37","1","3014","62","28"
"071618","22:33:10","187488134","test","2","intention_check","31","8","37","0","2500","62","28"
"071618","22:33:10","187488134","test","2","prime_negative","32","4","6","0","23","62","25"
"071618","22:33:10","187488134","test","2","intention_check","33","4","6","0","2500","62","25"
"071618","22:33:10","187488134","test","2","prime_negative","34","7","22","0","2543","62","22"
"071618","22:33:10","187488134","test","2","intention_check","35","7","22","0","2500","62","22"
"071618","22:33:10","187488134","test","2","prime_positive","36","9","29","0","2210","55","22"
"071618","22:33:10","187488134","test","2","intention_check","37","9","29","0","2500","55","22"
"071618","22:33:10","187488134","test","2","prime_positive","38","2","11","1","195","60","22"
"071618","22:33:10","187488134","test","2","intention_check","39","2","11","0","2500","60","22"
"071618","22:33:10","187488134","test","2","prime_positive","40","3","44","1","92","63","22"
"071618","22:33:10","187488134","test","2","intention_check","41","3","44","0","2500","63","22"
"071618","22:33:10","187488134","test","2","prime_negative","42","12","2","1","89","63","30"
"071618","22:33:10","187488134","test","2","intention_check","43","12","2","0","2500","63","30"
"071618","22:33:10","187488134","test","2","prime_negative","44","6","50","1","79","63","36"
"071618","22:33:10","187488134","test","2","intention_check","45","6","50","0","2500","63","36"
"071618","22:33:10","187488134","test","2","prime_negative","46","3","28","0","4861","63","33"
"071618","22:33:10","187488134","test","2","intention_check","47","3","28","0","2500","63","33"
"071618","22:33:10","187488134","test","2","prime_positive","48","5","14","0","3019","58","33"
"071618","22:33:10","187488134","test","2","intention_check","49","5","14","0","2500","58","33"
"071618","22:33:10","187488134","test","2","prime_negative","50","8","58","0","3899","58","30"
"071618","22:33:10","187488134","test","2","intention_check","51","8","58","1","30","58","30"
"071618","22:33:10","187488134","test","2","prime_positive","52","11","4","0","408","53","30"
"071618","22:33:10","187488134","test","2","intention_check","53","11","4","1","47","53","30"
"071618","22:33:10","187488134","test","2","prime_negative","54","11","40","0","458","53","28"
"071618","22:33:10","187488134","test","2","intention_check","55","11","40","1","38","53","28"
"071618","22:33:10","187488134","test","2","prime_negative","56","9","69","0","513","53","26"
"071618","22:33:10","187488134","test","2","intention_check","57","9","69","1","76","53","26"
"071618","22:33:10","187488134","test","2","prime_negative","58","2","20","0","4518","53","25"
"071618","22:33:10","187488134","test","2","intention_check","59","2","20","0","2500","53","25"
"071618","22:33:10","187488134","test","2","prime_negative","60","10","36","1","970","53","29"
"071618","22:33:10","187488134","test","2","intention_check","61","10","36","0","2500","53","29"
"071618","22:33:10","187488134","test","2","prime_negative","62","1","47","0","180","53","27"
"071618","22:33:10","187488134","test","2","intention_check","63","1","47","1","476","53","27"
"071618","22:33:10","187488134","test","2","prime_negative","64","5","65","0","207","53","26"
"071618","22:33:10","187488134","test","2","intention_check","65","5","65","1","174","53","26"
"071618","22:33:10","187488134","test","2","prime_negative","66","3","42","0","312","53","25"
"071618","22:33:10","187488134","test","2","intention_check","67","3","42","1","75","53","25"
"071618","22:33:10","187488134","test","2","prime_negative","68","11","61","0","326","53","23"
"071618","22:33:10","187488134","test","2","intention_check","69","11","61","1","79","53","23"
"071618","22:33:10","187488134","test","2","prime_positive","70","7","23","1","290","57","23"
"071618","22:33:10","187488134","test","2","intention_check","71","7","23","1","53","57","23"
"071618","22:33:10","187488134","test","2","prime_negative","72","10","12","0","368","57","22"
"071618","22:33:10","187488134","test","2","intention_check","73","10","12","1","48","57","22"
"071618","22:33:10","187488134","test","2","prime_negative","74","6","8","0","675","57","21"
"071618","22:33:10","187488134","test","2","intention_check","75","6","8","1","79","57","21"
"071618","22:33:10","187488134","test","2","prime_positive","76","6","18","1","305","60","21"
"071618","22:33:10","187488134","test","2","intention_check","77","6","18","1","36","60","21"
"071618","22:33:10","187488134","test","2","prime_positive","78","1","1","0","607","56","21"
"071618","22:33:10","187488134","test","2","intention_check","79","1","1","1","21","56","21"
"071618","22:33:10","187488134","test","2","prime_positive","80","4","27","0","80","52","21"
"071618","22:33:10","187488134","test","2","intention_check","81","4","27","1","108","52","21"
"071618","22:33:10","187488134","test","2","prime_negative","82","4","3","0","951","52","20"
"071618","22:33:10","187488134","test","2","intention_check","83","4","3","1","1303","52","20"
"071618","22:33:10","187488134","test","2","prime_positive","84","12","33","0","418","50","20"
"071618","22:33:10","187488134","test","2","intention_check","85","12","33","1","48","50","20"
"071618","22:33:10","187488134","test","2","prime_positive","86","10","39","1","451","52","20"
"071618","22:33:10","187488134","test","2","intention_check","87","10","39","1","47","52","20"
"071618","22:33:10","187488134","test","2","prime_negative","88","5","48","0","370","52","20"
"071618","22:33:10","187488134","test","2","intention_check","89","5","48","1","18","52","20"
"071618","22:33:10","187488134","test","2","prime_negative","90","8","16","0","357","52","19"
"071618","22:33:10","187488134","test","2","intention_check","91","8","16","1","37","52","19"
"071618","22:33:10","187488134","test","2","prime_negative","92","12","41","0","416","52","18"
"071618","22:33:10","187488134","test","2","intention_check","93","12","41","1","110","52","18"
"071618","22:33:10","187488134","test","2","prime_positive","94","8","56","1","617","55","18"
"071618","22:33:10","187488134","test","2","intention_check","95","8","56","1","47","55","18"
"071618","22:33:10","187488134","test","2","prime_positive","96","1","25","1","737","57","18"
"071618","22:33:10","187488134","test","2","intention_check","97","1","25","1","50","57","18"
"071618","22:33:10","187488134","test","2","prime_positive","98","12","38","1","4285","59","18"
"071618","22:33:10","187488134","test","2","intention_check","99","12","38","1","48","59","18"
"071618","22:33:10","187488134","test","2","prime_positive","100","9","26","0","1539","56","18"
"071618","22:33:10","187488134","test","2","intention_check","101","9","26","0","2500","56","18"
"071618","22:33:10","187488134","test","2","prime_negative","102","2","46","1","1430","56","21"
"071618","22:33:10","187488134","test","2","intention_check","103","2","46","0","2500","56","21"
"071618","22:33:10","187488134","test","2","prime_negative","104","9","64","0","2494","56","20"
"071618","22:33:10","187488134","test","2","intention_check","105","9","64","0","2500","56","20"
"071618","22:33:10","187488134","test","2","prime_positive","106","7","52","1","260","58","20"
"071618","22:33:10","187488134","test","2","intention_check","107","7","52","0","2500","58","20"
"071618","22:33:10","187488134","test","2","prime_negative","108","1","55","0","186","58","20"
"071618","22:33:10","187488134","test","2","intention_check","109","1","55","1","538","58","20"
"071618","22:33:10","187488134","test","2","prime_positive","110","3","24","0","548","56","20"
"071618","22:33:10","187488134","test","2","intention_check","111","3","24","1","118","56","20"
"071618","22:33:10","187488134","test","2","prime_positive","112","10","7","0","784","53","20"
"071618","22:33:10","187488134","test","2","intention_check","113","10","7","1","24","53","20"
"071618","22:33:10","187488134","test","2","prime_positive","114","4","31","1","442","55","20"
"071618","22:33:10","187488134","test","2","intention_check","115","4","31","1","55","55","20"
"071618","22:33:10","187488134","test","2","prime_negative","116","7","72","0","450","55","19"
"071618","22:33:10","187488134","test","2","intention_check","117","7","72","1","47","55","19"
"071618","22:33:10","187488134","test","2","prime_positive","118","6","60","0","466","53","19"
"071618","22:33:10","187488134","test","2","intention_check","119","6","60","1","29","53","19"
"071618","22:33:10","187488134","test","2","prime_positive","120","5","5","0","696","51","19"
"071618","22:33:10","187488134","test","2","intention_check","121","5","5","1","35","51","19"
"071618","22:33:10","187488134","test","2","prime_negative","122","11","30","1","1582","51","21"
"071618","22:33:10","187488134","test","2","intention_check","123","11","30","0","2500","51","21"
"071618","22:33:10","187488134","test","2","prime_positive","124","11","49","1","584","53","21"
"071618","22:33:10","187488134","test","2","intention_check","125","11","49","1","79","53","21"
"071618","22:33:10","187488134","test","2","prime_positive","126","2","24","1","426","54","21"
"071618","22:33:10","187488134","test","2","intention_check","127","2","24","0","2500","54","21"
"071618","22:33:10","187488134","test","2","prime_negative","128","7","17","0","258","54","21"
"071618","22:33:10","187488134","test","2","intention_check","129","7","17","1","71","54","21"
"071618","22:33:10","187488134","test","2","prime_negative","130","1","56","0","545","54","20"
"071618","22:33:10","187488134","test","2","intention_check","131","1","56","1","35","54","20"
"071618","22:33:10","187488134","test","2","prime_negative","132","2","16","0","5901","54","20"
"071618","22:33:10","187488134","test","2","intention_check","133","2","16","0","2500","54","20"
"071618","22:33:10","187488134","test","2","prime_positive","134","12","18","0","1626","53","20"
"071618","22:33:10","187488134","test","2","intention_check","135","12","18","0","2500","53","20"
"071618","22:33:10","187488134","test","2","prime_positive","136","7","15","1","1282","54","20"
"071618","22:33:10","187488134","test","2","intention_check","137","7","15","0","2500","54","20"
"071618","22:33:10","187488134","test","2","prime_positive","138","4","35","1","272","55","20"
"071618","22:33:10","187488134","test","2","intention_check","139","4","35","1","44","55","20"
"071618","22:33:10","187488134","test","2","prime_positive","140","6","44","1","758","57","20"
"071618","22:33:10","187488134","test","2","intention_check","141","6","44","0","2500","57","20"
"071618","22:33:10","187488134","test","2","prime_negative","142","10","47","0","913","57","19"
"071618","22:33:10","187488134","test","2","intention_check","143","10","47","0","2500","57","19"
"071618","22:33:10","187488134","test","2","prime_positive","144","11","60","1","246","58","19"
"071618","22:33:10","187488134","test","2","intention_check","145","11","60","1","27","58","19"
"071618","05:36:06","3545965","practice","1","prime_negative_practice","3","0","0","0","2894","0","0"
"071618","05:36:06","3545965","practice","1","intention_check_practice","4","0","0","1","1153","0","0"
"071618","05:36:06","3545965","practice","1","prime_positive_practice","5","0","0","1","295","0","0"
"071618","05:36:06","3545965","practice","1","intention_check_practice","6","0","0","1","1511","0","0"
"071618","05:36:06","3545965","practice","1","prime_negative_practice","7","0","0","0","729","0","0"
"071618","05:36:06","3545965","practice","1","intention_check_practice","8","0","0","1","739","0","0"
"071618","05:36:06","3545965","practice","1","prime_positive_practice","9","0","0","1","292","0","0"
"071618","05:36:06","3545965","practice","1","intention_check_practice","10","0","0","1","651","0","0"
"071618","05:36:06","3545965","practice","1","prime_positive_practice","11","0","0","1","351","0","0"
"071618","05:36:06","3545965","practice","1","intention_check_practice","12","0","0","1","687","0","0"
"071618","05:36:06","3545965","practice","1","prime_negative_practice","13","0","0","0","606","0","0"
"071618","05:36:06","3545965","practice","1","intention_check_practice","14","0","0","1","580","0","0"
"071618","05:36:06","3545965","practice","1","prime_positive_practice","15","0","0","1","397","0","0"
"071618","05:36:06","3545965","practice","1","intention_check_practice","16","0","0","1","591","0","0"
"071618","05:36:06","3545965","practice","1","prime_negative_practice","17","0","0","0","459","0","0"
"071618","05:36:06","3545965","practice","1","intention_check_practice","18","0","0","1","516","0","0"
"071618","05:36:06","3545965","practice","1","prime_positive_practice","19","0","0","1","354","0","0"
"071618","05:36:06","3545965","practice","1","intention_check_practice","20","0","0","1","486","0","0"
"071618","05:36:06","3545965","practice","1","prime_negative_practice","21","0","0","0","408","0","0"
"071618","05:36:06","3545965","practice","1","intention_check_practice","22","0","0","1","427","0","0"
"071618","05:36:06","3545965","test","2","prime_positive","2","1","53","1","412","100","0"
"071618","05:36:06","3545965","test","2","intention_check","3","1","53","1","544","100","0"
"071618","05:36:06","3545965","test","2","prime_positive","4","4","15","0","662","50","0"
"071618","05:36:06","3545965","test","2","intention_check","5","4","15","1","476","50","0"
"071618","05:36:06","3545965","test","2","prime_positive","6","5","3","1","369","66","0"
"071618","05:36:06","3545965","test","2","intention_check","7","5","3","1","440","66","0"
"071618","05:36:06","3545965","test","2","prime_negative","8","10","19","0","780","66","0"
"071618","05:36:06","3545965","test","2","intention_check","9","10","19","1","373","66","0"
"071618","05:36:06","3545965","test","2","prime_positive","10","12","52","1","421","75","0"
"071618","05:36:06","3545965","test","2","intention_check","11","12","52","1","393","75","0"
"071618","05:36:06","3545965","test","2","prime_positive","12","11","39","1","335","80","0"
"071618","05:36:06","3545965","test","2","intention_check","13","11","39","1","435","80","0"
"071618","05:36:06","3545965","test","2","prime_negative","14","8","65","0","551","80","0"
"071618","05:36:06","3545965","test","2","intention_check","15","8","65","1","336","80","0"
"071618","05:36:06","3545965","test","2","prime_positive","16","2","14","1","390","83","0"
"071618","05:36:06","3545965","test","2","intention_check","17","2","14","1","392","83","0"
"071618","05:36:06","3545965","test","2","prime_positive","18","10","28","1","361","85","0"
"071618","05:36:06","3545965","test","2","intention_check","19","10","28","1","423","85","0"
"071618","05:36:06","3545965","test","2","prime_positive","20","5","57","1","511","87","0"
"071618","05:36:06","3545965","test","2","intention_check","21","5","57","1","472","87","0"
"071618","05:36:06","3545965","test","2","prime_negative","22","11","63","0","470","87","0"
"071618","05:36:06","3545965","test","2","intention_check","23","11","63","1","392","87","0"
"071618","05:36:06","3545965","test","2","prime_negative","24","12","41","0","658","87","0"
"071618","05:36:06","3545965","test","2","intention_check","25","12","41","1","366","87","0"
"071618","05:36:06","3545965","test","2","prime_positive","26","11","5","1","425","88","0"
"071618","05:36:06","3545965","test","2","intention_check","27","11","5","1","335","88","0"
"071618","05:36:06","3545965","test","2","prime_negative","28","5","64","0","327","88","0"
"071618","05:36:06","3545965","test","2","intention_check","29","5","64","1","403","88","0"
"071618","05:36:06","3545965","test","2","prime_negative","30","6","10","0","422","88","0"
"071618","05:36:06","3545965","test","2","intention_check","31","6","10","1","374","88","0"
"071618","05:36:06","3545965","test","2","prime_positive","32","6","35","1","382","90","0"
"071618","05:36:06","3545965","test","2","intention_check","33","6","35","1","392","90","0"
"071618","05:36:06","3545965","test","2","prime_positive","34","9","17","1","390","90","0"
"071618","05:36:06","3545965","test","2","intention_check","35","9","17","1","407","90","0"
"071618","05:36:06","3545965","test","2","prime_negative","36","3","1","0","369","90","0"
"071618","05:36:06","3545965","test","2","intention_check","37","3","1","1","369","90","0"
"071618","05:36:06","3545965","test","2","prime_negative","38","1","70","0","323","90","0"
"071618","05:36:06","3545965","test","2","intention_check","39","1","70","1","348","90","0"
"071618","05:36:06","3545965","test","2","prime_negative","40","7","4","0","387","90","0"
"071618","05:36:06","3545965","test","2","intention_check","41","7","4","1","353","90","0"
"071618","05:36:06","3545965","test","2","prime_negative","42","5","36","0","326","90","0"
"071618","05:36:06","3545965","test","2","intention_check","43","5","36","1","362","90","0"
"071618","05:36:06","3545965","test","2","prime_negative","44","11","61","0","434","90","0"
"071618","05:36:06","3545965","test","2","intention_check","45","11","61","1","331","90","0"
"071618","05:36:06","3545965","test","2","prime_positive","46","4","34","0","438","83","0"
"071618","05:36:06","3545965","test","2","intention_check","47","4","34","1","350","83","0"
"071618","05:36:06","3545965","test","2","prime_positive","48","7","56","1","399","84","0"
"071618","05:36:06","3545965","test","2","intention_check","49","7","56","1","352","84","0"
"071618","05:36:06","3545965","test","2","prime_positive","50","2","26","1","624","85","0"
"071618","05:36:06","3545965","test","2","intention_check","51","2","26","1","358","85","0"
"071618","05:36:06","3545965","test","2","prime_negative","52","8","49","0","314","85","0"
"071618","05:36:06","3545965","test","2","intention_check","53","8","49","1","349","85","0"
"071618","05:36:06","3545965","test","2","prime_positive","54","8","60","1","506","86","0"
"071618","05:36:06","3545965","test","2","intention_check","55","8","60","1","336","86","0"
"071618","05:36:06","3545965","test","2","prime_positive","56","3","38","1","347","87","0"
"071618","05:36:06","3545965","test","2","intention_check","57","3","38","1","366","87","0"
"071618","05:36:06","3545965","test","2","prime_negative","58","9","8","0","366","87","0"
"071618","05:36:06","3545965","test","2","intention_check","59","9","8","1","292","87","0"
"071618","05:36:06","3545965","test","2","prime_positive","60","12","45","1","347","88","0"
"071618","05:36:06","3545965","test","2","intention_check","61","12","45","1","386","88","0"
"071618","05:36:06","3545965","test","2","prime_negative","62","12","25","0","498","88","0"
"071618","05:36:06","3545965","test","2","intention_check","63","12","25","1","326","88","0"
"071618","05:36:06","3545965","test","2","prime_positive","64","1","32","1","343","88","0"
"071618","05:36:06","3545965","test","2","intention_check","65","1","32","1","370","88","0"
"071618","05:36:06","3545965","test","2","prime_negative","66","2","40","0","342","88","0"
"071618","05:36:06","3545965","test","2","intention_check","67","2","40","1","300","88","0"
"071618","05:36:06","3545965","test","2","prime_positive","68","10","29","1","244","89","0"
"071618","05:36:06","3545965","test","2","intention_check","69","10","29","1","385","89","0"
"071618","05:36:06","3545965","test","2","prime_negative","70","3","23","0","287","89","0"
"071618","05:36:06","3545965","test","2","intention_check","71","3","23","1","289","89","0"
"071618","05:36:06","3545965","test","2","prime_negative","72","6","59","0","385","89","0"
"071618","05:36:06","3545965","test","2","intention_check","73","6","59","1","299","89","0"
"071618","05:36:06","3545965","test","2","prime_negative","74","4","50","0","373","89","0"
"071618","05:36:06","3545965","test","2","intention_check","75","4","50","1","305","89","0"
"071618","05:36:06","3545965","test","2","prime_negative","76","10","18","0","349","89","0"
"071618","05:36:06","3545965","test","2","intention_check","77","10","18","1","283","89","0"
"071618","05:36:06","3545965","test","2","prime_negative","78","5","24","0","259","89","0"
"071618","05:36:06","3545965","test","2","intention_check","79","5","24","1","319","89","0"
"071618","05:36:06","3545965","test","2","prime_positive","80","3","37","1","343","90","0"
"071618","05:36:06","3545965","test","2","intention_check","81","3","37","1","351","90","0"
"071618","05:36:06","3545965","test","2","prime_positive","82","12","68","1","342","90","0"
"071618","05:36:06","3545965","test","2","intention_check","83","12","68","1","371","90","0"
"071618","05:36:06","3545965","test","2","prime_negative","84","1","42","0","271","90","0"
"071618","05:36:06","3545965","test","2","intention_check","85","1","42","1","316","90","0"
"071618","05:36:06","3545965","test","2","prime_negative","86","3","21","0","315","90","0"
"071618","05:36:06","3545965","test","2","intention_check","87","3","21","1","300","90","0"
"071618","05:36:06","3545965","test","2","prime_negative","88","10","67","0","314","90","0"
"071618","05:36:06","3545965","test","2","intention_check","89","10","67","1","332","90","0"
"071618","05:36:06","3545965","test","2","prime_negative","90","6","47","0","373","90","0"
"071618","05:36:06","3545965","test","2","intention_check","91","6","47","1","296","90","0"
"071618","05:36:06","3545965","test","2","prime_negative","92","11","31","0","338","90","0"
"071618","05:36:06","3545965","test","2","intention_check","93","11","31","1","281","90","0"
"071618","05:36:06","3545965","test","2","prime_positive","94","8","43","1","366","90","0"
"071618","05:36:06","3545965","test","2","intention_check","95","8","43","1","335","90","0"
"071618","05:36:06","3545965","test","2","prime_positive","96","1","16","1","281","91","0"
"071618","05:36:06","3545965","test","2","intention_check","97","1","16","1","345","91","0"
"071618","05:36:06","3545965","test","2","prime_negative","98","8","11","0","267","91","0"
"071618","05:36:06","3545965","test","2","intention_check","99","8","11","1","289","91","0"
"071618","05:36:06","3545965","test","2","prime_positive","100","4","33","0","383","87","0"
"071618","05:36:06","3545965","test","2","intention_check","101","4","33","1","256","87","0"
"071618","05:36:06","3545965","test","2","prime_negative","102","7","30","0","353","87","0"
"071618","05:36:06","3545965","test","2","intention_check","103","7","30","1","265","87","0"
"071618","05:36:06","3545965","test","2","prime_positive","104","11","44","1","270","88","0"
"071618","05:36:06","3545965","test","2","intention_check","105","11","44","1","325","88","0"
"071618","05:36:06","3545965","test","2","prime_positive","106","2","20","1","336","88","0"
"071618","05:36:06","3545965","test","2","intention_check","107","2","20","1","339","88","0"
"071618","05:36:06","3545965","test","2","prime_positive","108","6","9","1","389","88","0"
"071618","05:36:06","3545965","test","2","intention_check","109","6","9","1","322","88","0"
"071618","05:36:06","3545965","test","2","prime_positive","110","9","22","1","281","89","0"
"071618","05:36:06","3545965","test","2","intention_check","111","9","22","1","355","89","0"
"071618","05:36:06","3545965","test","2","prime_positive","112","10","58","1","320","89","0"
"071618","05:36:06","3545965","test","2","intention_check","113","10","58","1","290","89","0"
"071618","05:36:06","3545965","test","2","prime_negative","114","4","13","0","380","89","0"
"071618","05:36:06","3545965","test","2","intention_check","115","4","13","1","261","89","0"
"071618","05:36:06","3545965","test","2","prime_positive","116","5","62","1","338","90","0"
"071618","05:36:06","3545965","test","2","intention_check","117","5","62","1","281","90","0"
"071618","05:36:06","3545965","test","2","prime_positive","118","7","66","1","336","90","0"
"071618","05:36:06","3545965","test","2","intention_check","119","7","66","1","322","90","0"
"071618","05:36:06","3545965","test","2","prime_positive","120","4","48","0","363","87","0"
"071618","05:36:06","3545965","test","2","intention_check","121","4","48","1","306","87","0"
"071618","05:36:06","3545965","test","2","prime_positive","122","10","71","1","374","87","0"
"071618","05:36:06","3545965","test","2","intention_check","123","10","71","1","334","87","0"
"071618","05:36:06","3545965","test","2","prime_positive","124","12","55","1","375","88","0"
"071618","05:36:06","3545965","test","2","intention_check","125","12","55","1","330","88","0"
"071618","05:36:06","3545965","test","2","prime_positive","126","5","11","1","349","88","0"
"071618","05:36:06","3545965","test","2","intention_check","127","5","11","1","328","88","0"
"071618","05:36:06","3545965","test","2","prime_negative","128","2","63","0","399","88","0"
"071618","05:36:06","3545965","test","2","intention_check","129","2","63","1","269","88","0"
"071618","05:36:06","3545965","test","2","prime_negative","130","9","13","0","397","88","0"
"071618","05:36:06","3545965","test","2","intention_check","131","9","13","1","290","88","0"
"071618","05:36:06","3545965","test","2","prime_negative","132","12","29","0","717","88","0"
"071618","05:36:06","3545965","test","2","intention_check","133","12","29","1","238","88","0"
"071618","05:36:06","3545965","test","2","prime_negative","134","9","1","0","583","88","0"
"071618","05:36:06","3545965","test","2","intention_check","135","9","1","1","243","88","0"
"071618","05:36:06","3545965","test","2","prime_negative","136","12","12","0","443","88","0"
"071618","05:36:06","3545965","test","2","intention_check","137","12","12","1","270","88","0"
"071618","05:36:06","3545965","test","2","prime_negative","138","11","23","0","439","88","0"
"071618","05:36:06","3545965","test","2","intention_check","139","11","23","1","294","88","0"
"071618","05:36:06","3545965","test","2","prime_negative","140","1","32","0","289","88","0"
"071618","05:36:06","3545965","test","2","intention_check","141","1","32","1","298","88","0"
"071618","05:36:06","3545965","test","2","prime_negative","142","10","43","0","260","88","0"
"071618","05:36:06","3545965","test","2","intention_check","143","10","43","1","338","88","0"
"071618","05:36:06","3545965","test","2","prime_positive","144","6","68","1","404","88","0"
"071618","05:36:06","3545965","test","2","intention_check","145","6","68","1","295","88","0"
"071618","08:50:13","689281609","practice","1","prime_negative_practice","3","0","0","0","847","0","0"
"071618","08:50:13","689281609","practice","1","intention_check_practice","4","0","0","0","2500","0","0"
"071618","08:50:13","689281609","practice","1","prime_negative_practice","5","0","0","0","887","0","0"
"071618","08:50:13","689281609","practice","1","intention_check_practice","6","0","0","0","2500","0","0"
"071618","08:50:13","689281609","practice","1","prime_positive_practice","7","0","0","0","652","0","0"
"071618","08:50:13","689281609","practice","1","intention_check_practice","8","0","0","0","2500","0","0"
"071618","08:50:13","689281609","practice","1","prime_negative_practice","9","0","0","1","539","0","0"
"071618","08:50:13","689281609","practice","1","intention_check_practice","10","0","0","0","2500","0","0"
"071618","08:50:13","689281609","practice","1","prime_positive_practice","11","0","0","0","558","0","0"
"071618","08:50:13","689281609","practice","1","intention_check_practice","12","0","0","0","2500","0","0"
"071618","08:50:13","689281609","practice","1","prime_positive_practice","13","0","0","0","418","0","0"
"071618","08:50:13","689281609","practice","1","intention_check_practice","14","0","0","0","2500","0","0"
"071618","08:50:13","689281609","practice","1","prime_negative_practice","15","0","0","1","426","0","0"
"071618","08:50:13","689281609","practice","1","intention_check_practice","16","0","0","0","2500","0","0"
"071618","08:50:13","689281609","practice","1","prime_positive_practice","17","0","0","0","442","0","0"
"071618","08:50:13","689281609","practice","1","intention_check_practice","18","0","0","0","2500","0","0"
"071618","08:50:13","689281609","practice","1","prime_positive_practice","19","0","0","1","473","0","0"
"071618","08:50:13","689281609","practice","1","intention_check_practice","20","0","0","0","2500","0","0"
"071618","08:50:13","689281609","practice","1","prime_negative_practice","21","0","0","1","623","0","0"
"071618","08:50:13","689281609","practice","1","intention_check_practice","22","0","0","0","2500","0","0"
"071618","08:50:13","689281609","test","2","prime_positive","2","6","48","0","1379","0","0"
"071618","08:50:13","689281609","test","2","intention_check","3","6","48","0","2500","0","0"
"071618","08:50:13","689281609","test","2","prime_negative","4","9","28","0","502","0","0"
"071618","08:50:13","689281609","test","2","intention_check","5","9","28","0","2500","0","0"
"071618","08:50:13","689281609","test","2","prime_positive","6","8","49","1","634","50","0"
"071618","08:50:13","689281609","test","2","intention_check","7","8","49","0","2500","50","0"
"071618","08:50:13","689281609","test","2","prime_positive","8","5","33","0","649","33","0"
"071618","08:50:13","689281609","test","2","intention_check","9","5","33","0","2500","33","0"
"071618","08:50:13","689281609","test","2","prime_negative","10","3","61","0","496","33","0"
"071618","08:50:13","689281609","test","2","intention_check","11","3","61","0","2500","33","0"
"071618","08:50:13","689281609","test","2","prime_negative","12","8","35","0","894","33","0"
"071618","08:50:13","689281609","test","2","intention_check","13","8","35","0","2500","33","0"
"071618","08:50:13","689281609","test","2","prime_negative","14","4","65","0","467","33","0"
"071618","08:50:13","689281609","test","2","intention_check","15","4","65","0","2500","33","0"
"071618","08:50:13","689281609","test","2","prime_negative","16","11","2","1","417","33","20"
"071618","08:50:13","689281609","test","2","intention_check","17","11","2","0","2500","33","20"
"071618","08:50:13","689281609","test","2","prime_negative","18","10","58","0","490","33","16"
"071618","08:50:13","689281609","test","2","intention_check","19","10","58","0","2500","33","16"
"071618","08:50:13","689281609","test","2","prime_positive","20","10","19","1","631","50","16"
"071618","08:50:13","689281609","test","2","intention_check","21","10","19","0","2500","50","16"
"071618","08:50:13","689281609","test","2","prime_negative","22","7","37","0","951","50","14"
"071618","08:50:13","689281609","test","2","intention_check","23","7","37","0","2500","50","14"
"071618","08:50:13","689281609","test","2","prime_positive","24","4","34","0","994","40","14"
"071618","08:50:13","689281609","test","2","intention_check","25","4","34","0","2500","40","14"
"071618","08:50:13","689281609","test","2","prime_negative","26","10","54","1","1396","40","25"
"071618","08:50:13","689281609","test","2","intention_check","27","10","54","0","2500","40","25"
"071618","08:50:13","689281609","test","2","prime_positive","28","7","9","1","469","50","25"
"071618","08:50:13","689281609","test","2","intention_check","29","7","9","0","2500","50","25"
"071618","08:50:13","689281609","test","2","prime_negative","30","4","64","0","483","50","22"
"071618","08:50:13","689281609","test","2","intention_check","31","4","64","0","2500","50","22"
"071618","08:50:13","689281609","test","2","prime_negative","32","12","18","0","744","50","20"
"071618","08:50:13","689281609","test","2","intention_check","33","12","18","0","2500","50","20"
"071618","08:50:13","689281609","test","2","prime_negative","34","8","3","0","556","50","18"
"071618","08:50:13","689281609","test","2","intention_check","35","8","3","0","2500","50","18"
"071618","08:50:13","689281609","test","2","prime_positive","36","12","21","0","455","42","18"
"071618","08:50:13","689281609","test","2","intention_check","37","12","21","0","2500","42","18"
"071618","08:50:13","689281609","test","2","prime_negative","38","11","41","0","1006","42","16"
"071618","08:50:13","689281609","test","2","intention_check","39","11","41","0","2500","42","16"
"071618","08:50:13","689281609","test","2","prime_positive","40","1","70","1","647","50","16"
"071618","08:50:13","689281609","test","2","intention_check","41","1","70","0","2500","50","16"
"071618","08:50:13","689281609","test","2","prime_positive","42","12","63","0","582","44","16"
"071618","08:50:13","689281609","test","2","intention_check","43","12","63","0","2500","44","16"
"071618","08:50:13","689281609","test","2","prime_positive","44","10","26","0","560","40","16"
"071618","08:50:13","689281609","test","2","intention_check","45","10","26","0","2500","40","16"
"071618","08:50:13","689281609","test","2","prime_positive","46","2","27","0","818","36","16"
"071618","08:50:13","689281609","test","2","intention_check","47","2","27","0","2500","36","16"
"071618","08:50:13","689281609","test","2","prime_negative","48","1","13","0","675","36","15"
"071618","08:50:13","689281609","test","2","intention_check","49","1","13","0","2500","36","15"
"071618","08:50:13","689281609","test","2","prime_negative","50","3","25","0","553","36","14"
"071618","08:50:13","689281609","test","2","intention_check","51","3","25","0","2500","36","14"
"071618","08:50:13","689281609","test","2","prime_negative","52","9","11","0","540","36","13"
"071618","08:50:13","689281609","test","2","intention_check","53","9","11","0","2500","36","13"
"071618","08:50:13","689281609","test","2","prime_negative","54","5","38","0","871","36","12"
"071618","08:50:13","689281609","test","2","intention_check","55","5","38","0","2500","36","12"
"071618","08:50:13","689281609","test","2","prime_positive","56","5","4","1","550","41","12"
"071618","08:50:13","689281609","test","2","intention_check","57","5","4","0","2500","41","12"
"071618","08:50:13","689281609","test","2","prime_negative","58","7","56","0","528","41","11"
"071618","08:50:13","689281609","test","2","intention_check","59","7","56","0","2500","41","11"
"071618","08:50:13","689281609","test","2","prime_positive","60","11","6","1","468","46","11"
"071618","08:50:13","689281609","test","2","intention_check","61","11","6","0","2500","46","11"
"071618","08:50:13","689281609","test","2","prime_negative","62","2","53","0","451","46","11"
"071618","08:50:13","689281609","test","2","intention_check","63","2","53","0","2500","46","11"
"071618","08:50:13","689281609","test","2","prime_positive","64","6","47","1","602","50","11"
"071618","08:50:13","689281609","test","2","intention_check","65","6","47","0","2500","50","11"
"071618","08:50:13","689281609","test","2","prime_positive","66","8","57","0","986","46","11"
"071618","08:50:13","689281609","test","2","intention_check","67","8","57","0","2500","46","11"
"071618","08:50:13","689281609","test","2","prime_positive","68","7","36","1","452","50","11"
"071618","08:50:13","689281609","test","2","intention_check","69","7","36","0","2500","50","11"
"071618","08:50:13","689281609","test","2","prime_positive","70","9","22","0","651","47","11"
"071618","08:50:13","689281609","test","2","intention_check","71","9","22","0","2500","47","11"
"071618","08:50:13","689281609","test","2","prime_negative","72","6","60","0","761","47","10"
"071618","08:50:13","689281609","test","2","intention_check","73","6","60","0","2500","47","10"
"071618","08:50:13","689281609","test","2","prime_positive","74","3","50","0","2156","44","10"
"071618","08:50:13","689281609","test","2","intention_check","75","3","50","0","2500","44","10"
"071618","08:50:13","689281609","test","2","prime_negative","76","9","10","0","487","44","10"
"071618","08:50:13","689281609","test","2","intention_check","77","9","10","0","2500","44","10"
"071618","08:50:13","689281609","test","2","prime_negative","78","7","14","0","613","44","9"
"071618","08:50:13","689281609","test","2","intention_check","79","7","14","0","2500","44","9"
"071618","08:50:13","689281609","test","2","prime_negative","80","11","42","0","582","44","9"
"071618","08:50:13","689281609","test","2","intention_check","81","11","42","0","2500","44","9"
"071618","08:50:13","689281609","test","2","prime_positive","82","4","66","1","704","47","9"
"071618","08:50:13","689281609","test","2","intention_check","83","4","66","0","2500","47","9"
"071618","08:50:13","689281609","test","2","prime_positive","84","6","1","1","605","50","9"
"071618","08:50:13","689281609","test","2","intention_check","85","6","1","0","2500","50","9"
"071618","08:50:13","689281609","test","2","prime_negative","86","12","45","0","862","50","8"
"071618","08:50:13","689281609","test","2","intention_check","87","12","45","0","2500","50","8"
"071618","08:50:13","689281609","test","2","prime_positive","88","5","55","0","564","47","8"
"071618","08:50:13","689281609","test","2","intention_check","89","5","55","0","2500","47","8"
"071618","08:50:13","689281609","test","2","prime_negative","90","10","72","0","687","47","8"
"071618","08:50:13","689281609","test","2","intention_check","91","10","72","0","2500","47","8"
"071618","08:50:13","689281609","test","2","prime_positive","92","11","23","0","660","45","8"
"071618","08:50:13","689281609","test","2","intention_check","93","11","23","0","2500","45","8"
"071618","08:50:13","689281609","test","2","prime_positive","94","3","15","0","635","43","8"
"071618","08:50:13","689281609","test","2","intention_check","95","3","15","0","2500","43","8"
"071618","08:50:13","689281609","test","2","prime_positive","96","9","5","0","626","41","8"
"071618","08:50:13","689281609","test","2","intention_check","97","9","5","0","2500","41","8"
"071618","08:50:13","689281609","test","2","prime_positive","98","7","20","0","466","40","8"
"071618","08:50:13","689281609","test","2","intention_check","99","7","20","0","2500","40","8"
"071618","08:50:13","689281609","test","2","prime_negative","100","6","52","0","369","40","8"
"071618","08:50:13","689281609","test","2","intention_check","101","6","52","0","2500","40","8"
"071618","08:50:13","689281609","test","2","prime_positive","102","10","16","1","803","42","8"
"071618","08:50:13","689281609","test","2","intention_check","103","10","16","0","2500","42","8"
"071618","08:50:13","689281609","test","2","prime_negative","104","5","39","1","492","42","11"
"071618","08:50:13","689281609","test","2","intention_check","105","5","39","0","2500","42","11"
"071618","08:50:13","689281609","test","2","prime_negative","106","2","67","0","449","42","11"
"071618","08:50:13","689281609","test","2","intention_check","107","2","67","0","2500","42","11"
"071618","08:50:13","689281609","test","2","prime_positive","108","1","46","1","528","44","11"
"071618","08:50:13","689281609","test","2","intention_check","109","1","46","0","2500","44","11"
"071618","08:50:13","689281609","test","2","prime_positive","110","12","30","1","524","46","11"
"071618","08:50:13","689281609","test","2","intention_check","111","12","30","0","2500","46","11"
"071618","08:50:13","689281609","test","2","prime_negative","112","1","32","0","384","46","10"
"071618","08:50:13","689281609","test","2","intention_check","113","1","32","0","2500","46","10"
"071618","08:50:13","689281609","test","2","prime_negative","114","3","43","0","458","46","10"
"071618","08:50:13","689281609","test","2","intention_check","115","3","43","0","2500","46","10"
"071618","08:50:13","689281609","test","2","prime_negative","116","8","68","0","616","46","10"
"071618","08:50:13","689281609","test","2","intention_check","117","8","68","0","2500","46","10"
"071618","08:50:13","689281609","test","2","prime_negative","118","4","44","0","489","46","9"
"071618","08:50:13","689281609","test","2","intention_check","119","4","44","0","2500","46","9"
"071618","08:50:13","689281609","test","2","prime_positive","120","2","12","0","502","44","9"
"071618","08:50:13","689281609","test","2","intention_check","121","2","12","0","2500","44","9"
"071618","08:50:13","689281609","test","2","prime_positive","122","8","51","1","499","46","9"
"071618","08:50:13","689281609","test","2","intention_check","123","8","51","0","2500","46","9"
"071618","08:50:13","689281609","test","2","prime_negative","124","8","31","0","344","46","9"
"071618","08:50:13","689281609","test","2","intention_check","125","8","31","0","2500","46","9"
"071618","08:50:13","689281609","test","2","prime_positive","126","4","28","0","380","45","9"
"071618","08:50:13","689281609","test","2","intention_check","127","4","28","0","2500","45","9"
"071618","08:50:13","689281609","test","2","prime_negative","128","4","11","0","326","45","9"
"071618","08:50:13","689281609","test","2","intention_check","129","4","11","0","2500","45","9"
"071618","08:50:13","689281609","test","2","prime_negative","130","6","25","0","498","45","8"
"071618","08:50:13","689281609","test","2","intention_check","131","6","25","0","2500","45","8"
"071618","08:50:13","689281609","test","2","prime_negative","132","11","41","0","1191","45","8"
"071618","08:50:13","689281609","test","2","intention_check","133","11","41","0","2500","45","8"
"071618","08:50:13","689281609","test","2","prime_positive","134","12","33","0","625","43","8"
"071618","08:50:13","689281609","test","2","intention_check","135","12","33","0","2500","43","8"
"071618","08:50:13","689281609","test","2","prime_positive","136","2","51","0","1721","42","8"
"071618","08:50:13","689281609","test","2","intention_check","137","2","51","0","2500","42","8"
"071618","08:50:13","689281609","test","2","prime_positive","138","11","34","0","478","41","8"
"071618","08:50:13","689281609","test","2","intention_check","139","11","34","0","2500","41","8"
"071618","08:50:13","689281609","test","2","prime_positive","140","1","31","0","452","40","8"
"071618","08:50:13","689281609","test","2","intention_check","141","1","31","0","2500","40","8"
"071618","08:50:13","689281609","test","2","prime_positive","142","7","26","0","435","38","8"
"071618","08:50:13","689281609","test","2","intention_check","143","7","26","0","2500","38","8"
"071618","08:50:13","689281609","test","2","prime_negative","144","12","10","1","1018","38","11"
"071618","08:50:13","689281609","test","2","intention_check","145","12","10","0","2500","38","11"
"071618","16:52:47","651077529","practice","1","prime_negative_practice","3","0","0","1","1819","0","0"
"071618","16:52:47","651077529","practice","1","intention_check_practice","4","0","0","0","2500","0","0"
"071618","16:52:47","651077529","practice","1","prime_positive_practice","5","0","0","0","777","0","0"
"071618","16:52:47","651077529","practice","1","intention_check_practice","6","0","0","0","2500","0","0"
"071618","16:52:47","651077529","practice","1","prime_negative_practice","7","0","0","1","1234","0","0"
"071618","16:52:47","651077529","practice","1","intention_check_practice","8","0","0","0","2500","0","0"
"071618","16:52:47","651077529","practice","1","prime_positive_practice","9","0","0","1","544","0","0"
"071618","16:52:47","651077529","practice","1","intention_check_practice","10","0","0","0","2500","0","0"
"071618","16:52:47","651077529","practice","1","prime_positive_practice","11","0","0","0","603","0","0"
"071618","16:52:47","651077529","practice","1","intention_check_practice","12","0","0","0","2500","0","0"
"071618","16:52:47","651077529","practice","1","prime_negative_practice","13","0","0","1","618","0","0"
"071618","16:52:47","651077529","practice","1","intention_check_practice","14","0","0","0","2500","0","0"
"071618","16:52:47","651077529","practice","1","prime_positive_practice","15","0","0","1","496","0","0"
"071618","16:52:47","651077529","practice","1","intention_check_practice","16","0","0","0","2500","0","0"
"071618","16:52:47","651077529","practice","1","prime_positive_practice","17","0","0","1","821","0","0"
"071618","16:52:47","651077529","practice","1","intention_check_practice","18","0","0","0","2500","0","0"
"071618","16:52:47","651077529","practice","1","prime_negative_practice","19","0","0","1","659","0","0"
"071618","16:52:47","651077529","practice","1","intention_check_practice","20","0","0","0","2500","0","0"
"071618","16:52:47","651077529","practice","1","prime_negative_practice","21","0","0","0","616","0","0"
"071618","16:52:47","651077529","practice","1","intention_check_practice","22","0","0","0","2500","0","0"
"071618","16:52:47","651077529","test","2","prime_positive","2","6","55","0","687","0","0"
"071618","16:52:47","651077529","test","2","intention_check","3","6","55","0","2500","0","0"
"071618","16:52:47","651077529","test","2","prime_negative","4","5","49","0","1548","0","0"
"071618","16:52:47","651077529","test","2","intention_check","5","5","49","0","2500","0","0"
"071618","16:52:47","651077529","test","2","prime_negative","6","7","19","0","773","0","0"
"071618","16:52:47","651077529","test","2","intention_check","7","7","19","0","2500","0","0"
"071618","16:52:47","651077529","test","2","prime_positive","8","9","31","0","606","0","0"
"071618","16:52:47","651077529","test","2","intention_check","9","9","31","0","2500","0","0"
"071618","16:52:47","651077529","test","2","prime_positive","10","11","48","0","702","0","0"
"071618","16:52:47","651077529","test","2","intention_check","11","11","48","0","2500","0","0"
"071618","16:52:47","651077529","test","2","prime_negative","12","10","44","1","392","0","33"
"071618","16:52:47","651077529","test","2","intention_check","13","10","44","0","2500","0","33"
"071618","16:52:47","651077529","test","2","prime_negative","14","12","25","1","416","0","50"
"071618","16:52:47","651077529","test","2","intention_check","15","12","25","0","2500","0","50"
"071618","16:52:47","651077529","test","2","prime_positive","16","5","10","1","2422","25","50"
"071618","16:52:47","651077529","test","2","intention_check","17","5","10","0","2500","25","50"
"071618","16:52:47","651077529","test","2","prime_negative","18","8","2","1","589","25","60"
"071618","16:52:47","651077529","test","2","intention_check","19","8","2","0","2500","25","60"
"071618","16:52:47","651077529","test","2","prime_negative","20","3","40","1","948","25","66"
"071618","16:52:47","651077529","test","2","intention_check","21","3","40","0","2500","25","66"
"071618","16:52:47","651077529","test","2","prime_negative","22","4","30","1","854","25","71"
"071618","16:52:47","651077529","test","2","intention_check","23","4","30","0","2500","25","71"
"071618","16:52:47","651077529","test","2","prime_positive","24","12","7","1","506","40","71"
"071618","16:52:47","651077529","test","2","intention_check","25","12","7","0","2500","40","71"
"071618","16:52:47","651077529","test","2","prime_negative","26","5","60","0","551","40","62"
"071618","16:52:47","651077529","test","2","intention_check","27","5","60","1","1616","40","62"
"071618","16:52:47","651077529","test","2","prime_negative","28","10","23","1","561","40","66"
"071618","16:52:47","651077529","test","2","intention_check","29","10","23","0","2500","40","66"
"071618","16:52:47","651077529","test","2","prime_positive","30","4","22","0","868","33","66"
"071618","16:52:47","651077529","test","2","intention_check","31","4","22","0","2500","33","66"
"071618","16:52:47","651077529","test","2","prime_negative","32","2","16","0","585","33","60"
"071618","16:52:47","651077529","test","2","intention_check","33","2","16","0","2500","33","60"
"071618","16:52:47","651077529","test","2","prime_positive","34","8","18","0","697","28","60"
"071618","16:52:47","651077529","test","2","intention_check","35","8","18","0","2500","28","60"
"071618","16:52:47","651077529","test","2","prime_negative","36","6","8","1","1054","28","63"
"071618","16:52:47","651077529","test","2","intention_check","37","6","8","0","2500","28","63"
"071618","16:52:47","651077529","test","2","prime_positive","38","1","26","0","700","25","63"
"071618","16:52:47","651077529","test","2","intention_check","39","1","26","0","2500","25","63"
"071618","16:52:47","651077529","test","2","prime_positive","40","5","53","0","785","22","63"
"071618","16:52:47","651077529","test","2","intention_check","41","5","53","0","2500","22","63"
"071618","16:52:47","651077529","test","2","prime_negative","42","7","57","1","1619","22","66"
"071618","16:52:47","651077529","test","2","intention_check","43","7","57","0","2500","22","66"
"071618","16:52:47","651077529","test","2","prime_negative","44","3","1","0","4291","22","61"
"071618","16:52:47","651077529","test","2","intention_check","45","3","1","0","2500","22","61"
"071618","16:52:47","651077529","test","2","prime_positive","46","11","20","0","648","20","61"
"071618","16:52:47","651077529","test","2","intention_check","47","11","20","0","2500","20","61"
"071618","16:52:47","651077529","test","2","prime_positive","48","7","58","0","527","18","61"
"071618","16:52:47","651077529","test","2","intention_check","49","7","58","0","2500","18","61"
"071618","16:52:47","651077529","test","2","prime_positive","50","10","21","1","1771","25","61"
"071618","16:52:47","651077529","test","2","intention_check","51","10","21","1","731","25","61"
"071618","16:52:47","651077529","test","2","prime_positive","52","4","64","0","509","23","61"
"071618","16:52:47","651077529","test","2","intention_check","53","4","64","0","2500","23","61"
"071618","16:52:47","651077529","test","2","prime_positive","54","9","67","0","634","21","61"
"071618","16:52:47","651077529","test","2","intention_check","55","9","67","0","2500","21","61"
"071618","16:52:47","651077529","test","2","prime_positive","56","3","46","1","321","26","61"
"071618","16:52:47","651077529","test","2","intention_check","57","3","46","0","2500","26","61"
"071618","16:52:47","651077529","test","2","prime_negative","58","4","41","1","653","26","64"
"071618","16:52:47","651077529","test","2","intention_check","59","4","41","1","1698","26","64"
"071618","16:52:47","651077529","test","2","prime_positive","60","2","35","1","493","31","64"
"071618","16:52:47","651077529","test","2","intention_check","61","2","35","1","1264","31","64"
"071618","16:52:47","651077529","test","2","prime_negative","62","11","43","1","675","31","66"
"071618","16:52:47","651077529","test","2","intention_check","63","11","43","0","2500","31","66"
"071618","16:52:47","651077529","test","2","prime_positive","64","8","36","1","993","35","66"
"071618","16:52:47","651077529","test","2","intention_check","65","8","36","0","2500","35","66"
"071618","16:52:47","651077529","test","2","prime_negative","66","1","4","0","1002","35","62"
"071618","16:52:47","651077529","test","2","intention_check","67","1","4","0","2500","35","62"
"071618","16:52:47","651077529","test","2","prime_negative","68","8","45","0","1107","35","58"
"071618","16:52:47","651077529","test","2","intention_check","69","8","45","0","2500","35","58"
"071618","16:52:47","651077529","test","2","prime_negative","70","12","52","1","1431","35","61"
"071618","16:52:47","651077529","test","2","intention_check","71","12","52","1","1301","35","61"
"071618","16:52:47","651077529","test","2","prime_negative","72","9","68","1","616","35","63"
"071618","16:52:47","651077529","test","2","intention_check","73","9","68","0","2500","35","63"
"071618","16:52:47","651077529","test","2","prime_positive","74","6","59","0","496","33","63"
"071618","16:52:47","651077529","test","2","intention_check","75","6","59","0","2500","33","63"
"071618","16:52:47","651077529","test","2","prime_positive","76","12","12","1","637","36","63"
"071618","16:52:47","651077529","test","2","intention_check","77","12","12","1","2106","36","63"
"071618","16:52:47","651077529","test","2","prime_negative","78","12","70","1","1141","36","65"
"071618","16:52:47","651077529","test","2","intention_check","79","12","70","1","702","36","65"
"071618","16:52:47","651077529","test","2","prime_negative","80","6","69","0","624","36","61"
"071618","16:52:47","651077529","test","2","intention_check","81","6","69","0","2500","36","61"
"071618","16:52:47","651077529","test","2","prime_negative","82","7","33","0","481","36","59"
"071618","16:52:47","651077529","test","2","intention_check","83","7","33","0","2500","36","59"
"071618","16:52:47","651077529","test","2","prime_negative","84","9","34","0","455","36","56"
"071618","16:52:47","651077529","test","2","intention_check","85","9","34","0","2500","36","56"
"071618","16:52:47","651077529","test","2","prime_positive","86","5","47","0","766","35","56"
"071618","16:52:47","651077529","test","2","intention_check","87","5","47","0","2500","35","56"
"071618","16:52:47","651077529","test","2","prime_positive","88","6","37","0","352","33","56"
"071618","16:52:47","651077529","test","2","intention_check","89","6","37","0","2500","33","56"
"071618","16:52:47","651077529","test","2","prime_positive","90","11","66","1","410","36","56"
"071618","16:52:47","651077529","test","2","intention_check","91","11","66","1","449","36","56"
"071618","16:52:47","651077529","test","2","prime_positive","92","1","42","0","732","34","56"
"071618","16:52:47","651077529","test","2","intention_check","93","1","42","0","2500","34","56"
"071618","16:52:47","651077529","test","2","prime_positive","94","2","13","1","375","37","56"
"071618","16:52:47","651077529","test","2","intention_check","95","2","13","0","2500","37","56"
"071618","16:52:47","651077529","test","2","prime_negative","96","8","3","1","937","37","58"
"071618","16:52:47","651077529","test","2","intention_check","97","8","3","0","2500","37","58"
"071618","16:52:47","651077529","test","2","prime_negative","98","5","9","1","1324","37","60"
"071618","16:52:47","651077529","test","2","intention_check","99","5","9","0","2500","37","60"
"071618","16:52:47","651077529","test","2","prime_positive","100","12","15","1","384","40","60"
"071618","16:52:47","651077529","test","2","intention_check","101","12","15","1","808","40","60"
"071618","16:52:47","651077529","test","2","prime_negative","102","10","29","1","669","40","61"
"071618","16:52:47","651077529","test","2","intention_check","103","10","29","0","2500","40","61"
"071618","16:52:47","651077529","test","2","prime_negative","104","3","50","0","472","40","59"
"071618","16:52:47","651077529","test","2","intention_check","105","3","50","1","1380","40","59"
"071618","16:52:47","651077529","test","2","prime_negative","106","2","61","1","1735","40","60"
"071618","16:52:47","651077529","test","2","intention_check","107","2","61","0","2500","40","60"
"071618","16:52:47","651077529","test","2","prime_negative","108","11","28","0","675","40","58"
"071618","16:52:47","651077529","test","2","intention_check","109","11","28","0","2500","40","58"
"071618","16:52:47","651077529","test","2","prime_positive","110","7","62","0","471","38","58"
"071618","16:52:47","651077529","test","2","intention_check","111","7","62","0","2500","38","58"
"071618","16:52:47","651077529","test","2","prime_negative","112","4","27","0","445","38","56"
"071618","16:52:47","651077529","test","2","intention_check","113","4","27","0","2500","38","56"
"071618","16:52:47","651077529","test","2","prime_positive","114","10","17","1","557","40","56"
"071618","16:52:47","651077529","test","2","intention_check","115","10","17","0","2500","40","56"
"071618","16:52:47","651077529","test","2","prime_positive","116","4","65","0","303","39","56"
"071618","16:52:47","651077529","test","2","intention_check","117","4","65","0","2500","39","56"
"071618","16:52:47","651077529","test","2","prime_negative","118","1","54","0","1315","39","54"
"071618","16:52:47","651077529","test","2","intention_check","119","1","54","1","728","39","54"
"071618","16:52:47","651077529","test","2","prime_negative","120","6","71","0","952","39","53"
"071618","16:52:47","651077529","test","2","intention_check","121","6","71","0","2500","39","53"
"071618","16:52:47","651077529","test","2","prime_positive","122","3","38","1","322","41","53"
"071618","16:52:47","651077529","test","2","intention_check","123","3","38","1","848","41","53"
"071618","16:52:47","651077529","test","2","prime_positive","124","9","32","0","478","40","53"
"071618","16:52:47","651077529","test","2","intention_check","125","9","32","0","2500","40","53"
"071618","16:52:47","651077529","test","2","prime_negative","126","7","16","0","412","40","51"
"071618","16:52:47","651077529","test","2","intention_check","127","7","16","1","2427","40","51"
"071618","16:52:47","651077529","test","2","prime_negative","128","4","50","0","790","40","50"
"071618","16:52:47","651077529","test","2","intention_check","129","4","50","0","2500","40","50"
"071618","16:52:47","651077529","test","2","prime_negative","130","9","52","1","871","40","51"
"071618","16:52:47","651077529","test","2","intention_check","131","9","52","0","2500","40","51"
"071618","16:52:47","651077529","test","2","prime_positive","132","8","70","0","653","38","51"
"071618","16:52:47","651077529","test","2","intention_check","133","8","70","0","2500","38","51"
"071618","16:52:47","651077529","test","2","prime_positive","134","4","67","0","396","37","51"
"071618","16:52:47","651077529","test","2","intention_check","135","4","67","0","2500","37","51"
"071618","16:52:47","651077529","test","2","prime_positive","136","6","40","0","469","36","51"
"071618","16:52:47","651077529","test","2","intention_check","137","6","40","0","2500","36","51"
"071618","16:52:47","651077529","test","2","prime_positive","138","11","31","0","643","35","51"
"071618","16:52:47","651077529","test","2","intention_check","139","11","31","0","2500","35","51"
"071618","16:52:47","651077529","test","2","prime_positive","140","7","51","1","722","37","51"
"071618","16:52:47","651077529","test","2","intention_check","141","7","51","0","2500","37","51"
"071618","16:52:47","651077529","test","2","prime_positive","142","10","20","0","894","36","51"
"071618","16:52:47","651077529","test","2","intention_check","143","10","20","0","2500","36","51"
"071618","16:52:47","651077529","test","2","prime_negative","144","2","14","0","595","36","50"
"071618","16:52:47","651077529","test","2","intention_check","145","2","14","0","2500","36","50"
"071618","07:54:16","142189929","practice","1","prime_positive_practice","3","0","0","0","738","0","0"
"071618","07:54:16","142189929","practice","1","intention_check_practice","4","0","0","0","2500","0","0"
"071618","07:54:16","142189929","practice","1","prime_negative_practice","5","0","0","0","1115","0","0"
"071618","07:54:16","142189929","practice","1","intention_check_practice","6","0","0","0","2500","0","0"
"071618","07:54:16","142189929","practice","1","prime_negative_practice","7","0","0","0","2764","0","0"
"071618","07:54:16","142189929","practice","1","intention_check_practice","8","0","0","1","656","0","0"
"071618","07:54:16","142189929","practice","1","prime_positive_practice","9","0","0","0","1121","0","0"
"071618","07:54:16","142189929","practice","1","intention_check_practice","10","0","0","0","2500","0","0"
"071618","07:54:16","142189929","practice","1","prime_negative_practice","11","0","0","1","1004","0","0"
"071618","07:54:16","142189929","practice","1","intention_check_practice","12","0","0","0","2500","0","0"
"071618","07:54:16","142189929","practice","1","prime_negative_practice","13","0","0","1","1400","0","0"
"071618","07:54:16","142189929","practice","1","intention_check_practice","14","0","0","0","2500","0","0"
"071618","07:54:16","142189929","practice","1","prime_positive_practice","15","0","0","0","759","0","0"
"071618","07:54:16","142189929","practice","1","intention_check_practice","16","0","0","0","2500","0","0"
"071618","07:54:16","142189929","practice","1","prime_positive_practice","17","0","0","0","697","0","0"
"071618","07:54:16","142189929","practice","1","intention_check_practice","18","0","0","0","2500","0","0"
"071618","07:54:16","142189929","practice","1","prime_negative_practice","19","0","0","1","945","0","0"
"071618","07:54:16","142189929","practice","1","intention_check_practice","20","0","0","0","2500","0","0"
"071618","07:54:16","142189929","practice","1","prime_positive_practice","21","0","0","0","727","0","0"
"071618","07:54:16","142189929","practice","1","intention_check_practice","22","0","0","0","2500","0","0"
"071618","07:54:16","142189929","test","2","prime_positive","2","7","11","0","822","0","0"
"071618","07:54:16","142189929","test","2","intention_check","3","7","11","0","2500","0","0"
"071618","07:54:16","142189929","test","2","prime_positive","4","4","65","0","675","0","0"
"071618","07:54:16","142189929","test","2","intention_check","5","4","65","0","2500","0","0"
"071618","07:54:16","142189929","test","2","prime_negative","6","6","35","0","841","0","0"
"071618","07:54:16","142189929","test","2","intention_check","7","6","35","0","2500","0","0"
"071618","07:54:16","142189929","test","2","prime_positive","8","3","59","0","915","0","0"
"071618","07:54:16","142189929","test","2","intention_check","9","3","59","0","2500","0","0"
"071618","07:54:16","142189929","test","2","prime_positive","10","8","18","0","916","0","0"
"071618","07:54:16","142189929","test","2","intention_check","11","8","18","0","2500","0","0"
"071618","07:54:16","142189929","test","2","prime_positive","12","11","29","1","1039","20","0"
"071618","07:54:16","142189929","test","2","intention_check","13","11","29","0","2500","20","0"
"071618","07:54:16","142189929","test","2","prime_negative","14","8","38","1","1393","20","50"
"071618","07:54:16","142189929","test","2","intention_check","15","8","38","0","2500","20","50"
