"date","time","group","subject","build","blocknum","trialnum","blockcode","trialcode","pretrialpause","posttrialpause","windowcenter","trialduration","trialtimeout","blocktimeout","response","correct","latency","inwindow"
"071618","13:39:57","95361462","387783740","4.0.10.0","1","1","end_of_study_questions_ifirst","awareness","0","0","0","0","0","0","less than half","1","17116","0"
"071618","13:39:57","95361462","387783740","4.0.10.0","1","2","end_of_study_questions_ifirst","influence_general","0","0","0","0","0","0","less than half","1","4577","0"
"071618","13:39:57","95361462","387783740","4.0.10.0","1","3","end_of_study_questions_ifirst","intentionality","0","0","0","0","0","0","all","1","16639","0"
"071618","13:39:57","95361462","387783740","4.0.10.0","1","4","end_of_study_questions_ifirst","unintentionality","0","0","0","0","0","0","most","1","11794","0"
"071618","13:39:57","95361462","387783740","4.0.10.0","1","5","end_of_study_questions_ifirst","self_exclusion_1","0","0","0","0","0","0","Yes, use my data","1","5750","0"
"071618","13:39:57","95361462","387783740","4.0.10.0","1","5","end_of_study_questions_ifirst","self_exclusion_1other","0","0","0","0","0","0","","1","5750","0"
"071618","07:40:10","434342216","608526962","4.0.10.0","1","1","end_of_study_questions_ifirst","awareness","0","0","0","0","0","0","about half","1","22561","0"
"071618","07:40:10","434342216","608526962","4.0.10.0","1","2","end_of_study_questions_ifirst","influence_general","0","0","0","0","0","0","none","1","6731","0"
"071618","07:40:10","434342216","608526962","4.0.10.0","1","3","end_of_study_questions_ifirst","intentionality","0","0","0","0","0","0","all","1","11904","0"
"071618","07:40:10","434342216","608526962","4.0.10.0","1","4","end_of_study_questions_ifirst","unintentionality","0","0","0","0","0","0","none","1","8000","0"
"071618","07:40:10","434342216","608526962","4.0.10.0","1","5","end_of_study_questions_ifirst","self_exclusion_1","0","0","0","0","0","0","Yes, use my data","1","3939","0"
"071618","07:40:10","434342216","608526962","4.0.10.0","1","5","end_of_study_questions_ifirst","self_exclusion_1other","0","0","0","0","0","0","","1","3939","0"
"071618","22:40:25","356979141","187488134","4.0.10.0","1","1","end_of_study_questions_ifirst","awareness","0","0","0","0","0","0","all","1","24753","0"
"071618","22:40:25","356979141","187488134","4.0.10.0","1","2","end_of_study_questions_ifirst","influence_general","0","0","0","0","0","0","more than half","1","34326","0"
"071618","22:40:25","356979141","187488134","4.0.10.0","1","3","end_of_study_questions_ifirst","intentionality","0","0","0","0","0","0","a few","1","10474","0"
"071618","22:40:25","356979141","187488134","4.0.10.0","1","4","end_of_study_questions_ifirst","unintentionality","0","0","0","0","0","0","more than half","1","12785","0"
"071618","22:40:25","356979141","187488134","4.0.10.0","1","5","end_of_study_questions_ifirst","self_exclusion_1","0","0","0","0","0","0","Yes, use my data","1","25665","0"
"071618","22:40:25","356979141","187488134","4.0.10.0","1","5","end_of_study_questions_ifirst","self_exclusion_1other","0","0","0","0","0","0","","1","25665","0"
"071618","05:42:13","218796003","3545965","4.0.10.0","1","1","end_of_study_questions_ufirst","awareness","0","0","0","0","0","0","most","1","15023","0"
"071618","05:42:13","218796003","3545965","4.0.10.0","1","2","end_of_study_questions_ufirst","influence_general","0","0","0","0","0","0","most","1","6307","0"
"071618","05:42:13","218796003","3545965","4.0.10.0","1","3","end_of_study_questions_ufirst","unintentionality","0","0","0","0","0","0","most","1","5319","0"
"071618","05:42:13","218796003","3545965","4.0.10.0","1","4","end_of_study_questions_ufirst","intentionality","0","0","0","0","0","0","about half","1","9572","0"
"071618","05:42:13","218796003","3545965","4.0.10.0","1","5","end_of_study_questions_ufirst","self_exclusion_1","0","0","0","0","0","0","Yes, use my data","1","5471","0"
"071618","05:42:13","218796003","3545965","4.0.10.0","1","5","end_of_study_questions_ufirst","self_exclusion_1other","0","0","0","0","0","0","","1","5471","0"
"071618","08:56:09","761820482","689281609","4.0.10.0","1","1","end_of_study_questions_ufirst","awareness","0","0","0","0","0","0","all","1","24393","0"
"071618","08:56:09","761820482","689281609","4.0.10.0","1","2","end_of_study_questions_ufirst","influence_general","0","0","0","0","0","0","none","1","6162","0"
"071618","08:56:09","761820482","689281609","4.0.10.0","1","3","end_of_study_questions_ufirst","unintentionality","0","0","0","0","0","0","a few","1","6410","0"
"071618","08:56:09","761820482","689281609","4.0.10.0","1","4","end_of_study_questions_ufirst","intentionality","0","0","0","0","0","0","none","1","7672","0"
"071618","08:56:09","761820482","689281609","4.0.10.0","1","5","end_of_study_questions_ufirst","self_exclusion_1","0","0","0","0","0","0","Yes, use my data","1","16331","0"
"071618","08:56:09","761820482","689281609","4.0.10.0","1","5","end_of_study_questions_ufirst","self_exclusion_1other","0","0","0","0","0","0","","1","16331","0"
"071618","16:59:29","91765804","651077529","4.0.10.0","1","1","end_of_study_questions_ufirst","awareness","0","0","0","0","0","0","all","1","27264","0"
"071618","16:59:29","91765804","651077529","4.0.10.0","1","2","end_of_study_questions_ufirst","influence_general","0","0","0","0","0","0","a few","1","12808","0"
"071618","16:59:29","91765804","651077529","4.0.10.0","1","3","end_of_study_questions_ufirst","unintentionality","0","0","0","0","0","0","a few","1","18658","0"
"071618","16:59:29","91765804","651077529","4.0.10.0","1","4","end_of_study_questions_ufirst","intentionality","0","0","0","0","0","0","a few","1","7649","0"
"071618","16:59:29","91765804","651077529","4.0.10.0","1","5","end_of_study_questions_ufirst","self_exclusion_1","0","0","0","0","0","0","Yes, use my data","1","25560","0"
"071618","16:59:29","91765804","651077529","4.0.10.0","1","5","end_of_study_questions_ufirst","self_exclusion_1other","0","0","0","0","0","0","","1","25560","0"
"071618","08:00:37","605451267","142189929","4.0.10.0","1","1","end_of_study_questions_ufirst","awareness","0","0","0","0","0","0","all","1","8949","0"
"071618","08:00:37","605451267","142189929","4.0.10.0","1","2","end_of_study_questions_ufirst","influence_general","0","0","0","0","0","0","less than half","1","8431","0"
"071618","08:00:37","605451267","142189929","4.0.10.0","1","3","end_of_study_questions_ufirst","unintentionality","0","0","0","0","0","0","a few","1","6559","0"
"071618","08:00:37","605451267","142189929","4.0.10.0","1","4","end_of_study_questions_ufirst","intentionality","0","0","0","0","0","0","a few","1","5446","0"
"071618","08:00:37","605451267","142189929","4.0.10.0","1","5","end_of_study_questions_ufirst","self_exclusion_1","0","0","0","0","0","0","Yes, use my data","1","2635","0"
"071618","08:00:37","605451267","142189929","4.0.10.0","1","5","end_of_study_questions_ufirst","self_exclusion_1other","0","0","0","0","0","0","","1","2635","0"
"071618","14:02:55","448512600","745230009","4.0.10.0","1","1","end_of_study_questions_ufirst","awareness","0","0","0","0","0","0","all","1","7034","0"
"071618","14:02:55","448512600","745230009","4.0.10.0","1","2","end_of_study_questions_ufirst","influence_general","0","0","0","0","0","0","less than half","1","4046","0"
"071618","14:02:55","448512600","745230009","4.0.10.0","1","3","end_of_study_questions_ufirst","unintentionality","0","0","0","0","0","0","a few","1","4802","0"
"071618","14:02:55","448512600","745230009","4.0.10.0","1","4","end_of_study_questions_ufirst","intentionality","0","0","0","0","0","0","none","1","3385","0"
"071618","14:02:55","448512600","745230009","4.0.10.0","1","5","end_of_study_questions_ufirst","self_exclusion_1","0","0","0","0","0","0","Yes, use my data","1","4047","0"
"071618","14:02:55","448512600","745230009","4.0.10.0","1","5","end_of_study_questions_ufirst","self_exclusion_1other","0","0","0","0","0","0","","1","4047","0"
"071618","09:02:55","319591345","347479845","4.0.10.0","1","1","end_of_study_questions_ufirst","awareness","0","0","0","0","0","0","all","1","19040","0"
"071618","09:02:55","319591345","347479845","4.0.10.0","1","2","end_of_study_questions_ufirst","influence_general","0","0","0","0","0","0","more than half","1","10364","0"
"071618","09:02:55","319591345","347479845","4.0.10.0","1","3","end_of_study_questions_ufirst","unintentionality","0","0","0","0","0","0","less than half","1","6838","0"
"071618","09:02:55","319591345","347479845","4.0.10.0","1","4","end_of_study_questions_ufirst","intentionality","0","0","0","0","0","0","less than half","1","7519","0"
"071618","09:02:55","319591345","347479845","4.0.10.0","1","5","end_of_study_questions_ufirst","self_exclusion_1","0","0","0","0","0","0","Yes, use my data","1","6060","0"
"071618","09:02:55","319591345","347479845","4.0.10.0","1","5","end_of_study_questions_ufirst","self_exclusion_1other","0","0","0","0","0","0","","1","6060","0"
"071618","09:24:57","747279265","698994348","4.0.10.0","1","1","end_of_study_questions_ifirst","awareness","0","0","0","0","0","0","less than half","1","5960","0"
"071618","09:24:57","747279265","698994348","4.0.10.0","1","2","end_of_study_questions_ifirst","influence_general","0","0","0","0","0","0","most","1","5144","0"
"071618","09:24:57","747279265","698994348","4.0.10.0","1","3","end_of_study_questions_ifirst","intentionality","0","0","0","0","0","0","most","1","3640","0"
"071618","09:24:57","747279265","698994348","4.0.10.0","1","4","end_of_study_questions_ifirst","unintentionality","0","0","0","0","0","0","most","1","3669","0"
"071618","09:24:57","747279265","698994348","4.0.10.0","1","5","end_of_study_questions_ifirst","self_exclusion_1","0","0","0","0","0","0","Yes, use my data","1","5176","0"
"071618","09:24:57","747279265","698994348","4.0.10.0","1","5","end_of_study_questions_ifirst","self_exclusion_1other","0","0","0","0","0","0","","1","5176","0"
"071618","14:24:45","41254049","601178662","4.0.10.0","1","1","end_of_study_questions_ifirst","awareness","0","0","0","0","0","0","most","1","24428","0"
"071618","14:24:45","41254049","601178662","4.0.10.0","1","2","end_of_study_questions_ifirst","influence_general","0","0","0","0","0","0","a few","1","8273","0"
"071618","14:24:45","41254049","601178662","4.0.10.0","1","3","end_of_study_questions_ifirst","intentionality","0","0","0","0","0","0","a few","1","9279","0"
"071618","14:24:45","41254049","601178662","4.0.10.0","1","4","end_of_study_questions_ifirst","unintentionality","0","0","0","0","0","0","a few","1","8447","0"
"071618","14:24:45","41254049","601178662","4.0.10.0","1","5","end_of_study_questions_ifirst","self_exclusion_1","0","0","0","0","0","0","Yes, use my data","1","4000","0"
"071618","14:24:45","41254049","601178662","4.0.10.0","1","5","end_of_study_questions_ifirst","self_exclusion_1other","0","0","0","0","0","0","","1","4000","0"
"071618","09:31:04","16758641","181289079","4.0.10.0","1","1","end_of_study_questions_ufirst","awareness","0","0","0","0","0","0","all","1","16764","0"
"071618","09:31:04","16758641","181289079","4.0.10.0","1","2","end_of_study_questions_ufirst","influence_general","0","0","0","0","0","0","a few","1","6773","0"
"071618","09:31:04","16758641","181289079","4.0.10.0","1","3","end_of_study_questions_ufirst","unintentionality","0","0","0","0","0","0","none","1","10941","0"
"071618","09:31:04","16758641","181289079","4.0.10.0","1","4","end_of_study_questions_ufirst","intentionality","0","0","0","0","0","0","a few","1","15501","0"
"071618","09:31:04","16758641","181289079","4.0.10.0","1","5","end_of_study_questions_ufirst","self_exclusion_1","0","0","0","0","0","0","Yes, use my data","1","4748","0"
"071618","09:31:04","16758641","181289079","4.0.10.0","1","5","end_of_study_questions_ufirst","self_exclusion_1other","0","0","0","0","0","0","","1","4748","0"
"071618","09:32:23","489875680","654107985","4.0.10.0","1","1","end_of_study_questions_ufirst","awareness","0","0","0","0","0","0","all","1","25166","0"
"071618","09:32:23","489875680","654107985","4.0.10.0","1","2","end_of_study_questions_ufirst","influence_general","0","0","0","0","0","0","a few","1","13396","0"
"071618","09:32:23","489875680","654107985","4.0.10.0","1","3","end_of_study_questions_ufirst","unintentionality","0","0","0","0","0","0","none","1","8881","0"
"071618","09:32:23","489875680","654107985","4.0.10.0","1","4","end_of_study_questions_ufirst","intentionality","0","0","0","0","0","0","none","1","8840","0"
"071618","09:32:23","489875680","654107985","4.0.10.0","1","5","end_of_study_questions_ufirst","self_exclusion_1","0","0","0","0","0","0","Yes, use my data","1","6489","0"
"071618","09:32:23","489875680","654107985","4.0.10.0","1","5","end_of_study_questions_ufirst","self_exclusion_1other","0","0","0","0","0","0","","1","6489","0"
"071618","14:29:18","66648559","754556216","4.0.10.0","1","1","end_of_study_questions_ifirst","awareness","0","0","0","0","0","0","all","1","7949","0"
"071618","14:29:18","66648559","754556216","4.0.10.0","1","2","end_of_study_questions_ifirst","influence_general","0","0","0","0","0","0","about half","1","6889","0"
"071618","14:29:18","66648559","754556216","4.0.10.0","1","3","end_of_study_questions_ifirst","intentionality","0","0","0","0","0","0","a few","1","6592","0"
"071618","14:29:18","66648559","754556216","4.0.10.0","1","4","end_of_study_questions_ifirst","unintentionality","0","0","0","0","0","0","less than half","1","6873","0"
"071618","14:29:18","66648559","754556216","4.0.10.0","1","5","end_of_study_questions_ifirst","self_exclusion_1","0","0","0","0","0","0","Yes, use my data","1","5400","0"
"071618","14:29:18","66648559","754556216","4.0.10.0","1","5","end_of_study_questions_ifirst","self_exclusion_1other","0","0","0","0","0","0","","1","5400","0"
"071618","14:33:15","791747305","328485968","4.0.10.0","1","1","end_of_study_questions_ifirst","awareness","0","0","0","0","0","0","all","1","18853","0"
"071618","14:33:15","791747305","328485968","4.0.10.0","1","2","end_of_study_questions_ifirst","influence_general","0","0","0","0","0","0","less than half","1","9598","0"
"071618","14:33:15","791747305","328485968","4.0.10.0","1","3","end_of_study_questions_ifirst","intentionality","0","0","0","0","0","0","a few","1","10000","0"
"071618","14:33:15","791747305","328485968","4.0.10.0","1","4","end_of_study_questions_ifirst","unintentionality","0","0","0","0","0","0","a few","1","5455","0"
"071618","14:33:15","791747305","328485968","4.0.10.0","1","5","end_of_study_questions_ifirst","self_exclusion_1","0","0","0","0","0","0","Yes, use my data","1","4509","0"
"071618","14:33:15","791747305","328485968","4.0.10.0","1","5","end_of_study_questions_ifirst","self_exclusion_1other","0","0","0","0","0","0","","1","4509","0"
"071618","09:34:38","935355174","795100721","4.0.10.0","1","1","end_of_study_questions_ufirst","awareness","0","0","0","0","0","0","all","1","14889","0"
"071618","09:34:38","935355174","795100721","4.0.10.0","1","2","end_of_study_questions_ufirst","influence_general","0","0","0","0","0","0","more than half","1","2968","0"
"071618","09:34:38","935355174","795100721","4.0.10.0","1","3","end_of_study_questions_ufirst","unintentionality","0","0","0","0","0","0","most","1","4397","0"
"071618","09:34:38","935355174","795100721","4.0.10.0","1","4","end_of_study_questions_ufirst","intentionality","0","0","0","0","0","0","more than half","1","4038","0"
"071618","09:34:38","935355174","795100721","4.0.10.0","1","5","end_of_study_questions_ufirst","self_exclusion_1","0","0","0","0","0","0","Yes, use my data","1","2515","0"
"071618","09:34:38","935355174","795100721","4.0.10.0","1","5","end_of_study_questions_ufirst","self_exclusion_1other","0","0","0","0","0","0","","1","2515","0"
"071618","14:34:34","951003308","487741973","4.0.10.0","1","1","end_of_study_questions_ufirst","awareness","0","0","0","0","0","0","most","1","16318","0"
"071618","14:34:34","951003308","487741973","4.0.10.0","1","2","end_of_study_questions_ufirst","influence_general","0","0","0","0","0","0","most","1","5298","0"
"071618","14:34:34","951003308","487741973","4.0.10.0","1","3","end_of_study_questions_ufirst","unintentionality","0","0","0","0","0","0","most","1","5689","0"
"071618","14:34:34","951003308","487741973","4.0.10.0","1","4","end_of_study_questions_ufirst","intentionality","0","0","0","0","0","0","most","1","6226","0"
"071618","14:34:34","951003308","487741973","4.0.10.0","1","5","end_of_study_questions_ufirst","self_exclusion_1","0","0","0","0","0","0","Yes, use my data","1","14548","0"
"071618","14:34:34","951003308","487741973","4.0.10.0","1","5","end_of_study_questions_ufirst","self_exclusion_1other","0","0","0","0","0","0","","1","14548","0"
"071618","14:37:24","281855895","426804087","4.0.10.0","1","1","end_of_study_questions_ufirst","awareness","0","0","0","0","0","0","a few","1","18947","0"
"071618","14:37:24","281855895","426804087","4.0.10.0","1","2","end_of_study_questions_ufirst","influence_general","0","0","0","0","0","0","none","1","25381","0"
"071618","14:37:24","281855895","426804087","4.0.10.0","1","3","end_of_study_questions_ufirst","unintentionality","0","0","0","0","0","0","a few","1","15098","0"
"071618","14:37:24","281855895","426804087","4.0.10.0","1","4","end_of_study_questions_ufirst","intentionality","0","0","0","0","0","0","a few","1","11904","0"
"071618","14:37:24","281855895","426804087","4.0.10.0","1","5","end_of_study_questions_ufirst","self_exclusion_1","0","0","0","0","0","0","Yes, use my data","1","5849","0"
"071618","14:37:24","281855895","426804087","4.0.10.0","1","5","end_of_study_questions_ufirst","self_exclusion_1other","0","0","0","0","0","0","","1","5849","0"
"071618","14:37:13","542150554","184299191","4.0.10.0","1","1","end_of_study_questions_ufirst","awareness","0","0","0","0","0","0","all","1","43876","0"
"071618","14:37:13","542150554","184299191","4.0.10.0","1","2","end_of_study_questions_ufirst","influence_general","0","0","0","0","0","0","less than half","1","11080","0"
"071618","14:37:13","542150554","184299191","4.0.10.0","1","3","end_of_study_questions_ufirst","unintentionality","0","0","0","0","0","0","a few","1","8527","0"
"071618","14:37:13","542150554","184299191","4.0.10.0","1","4","end_of_study_questions_ufirst","intentionality","0","0","0","0","0","0","none","1","10443","0"
"071618","14:37:13","542150554","184299191","4.0.10.0","1","5","end_of_study_questions_ufirst","self_exclusion_1","0","0","0","0","0","0","Yes, use my data","1","17698","0"
"071618","14:37:13","542150554","184299191","4.0.10.0","1","5","end_of_study_questions_ufirst","self_exclusion_1other","0","0","0","0","0","0","","1","17698","0"
"071618","09:40:35","433405794","136022943","4.0.10.0","1","1","end_of_study_questions_ufirst","awareness","0","0","0","0","0","0","all","1","18567","0"
"071618","09:40:35","433405794","136022943","4.0.10.0","1","2","end_of_study_questions_ufirst","influence_general","0","0","0","0","0","0","most","1","8599","0"
"071618","09:40:35","433405794","136022943","4.0.10.0","1","3","end_of_study_questions_ufirst","unintentionality","0","0","0","0","0","0","more than half","1","10408","0"
"071618","09:40:35","433405794","136022943","4.0.10.0","1","4","end_of_study_questions_ufirst","intentionality","0","0","0","0","0","0","about half","1","16588","0"
"071618","09:40:35","433405794","136022943","4.0.10.0","1","5","end_of_study_questions_ufirst","self_exclusion_1","0","0","0","0","0","0","Yes, use my data","1","10610","0"
"071618","09:40:35","433405794","136022943","4.0.10.0","1","5","end_of_study_questions_ufirst","self_exclusion_1other","0","0","0","0","0","0","","1","10610","0"
"071618","14:42:01","518675658","765338899","4.0.10.0","1","1","end_of_study_questions_ufirst","awareness","0","0","0","0","0","0","most","1","20415","0"
"071618","14:42:01","518675658","765338899","4.0.10.0","1","2","end_of_study_questions_ufirst","influence_general","0","0","0","0","0","0","a few","1","7797","0"
"071618","14:42:01","518675658","765338899","4.0.10.0","1","3","end_of_study_questions_ufirst","unintentionality","0","0","0","0","0","0","none","1","9093","0"
"071618","14:42:01","518675658","765338899","4.0.10.0","1","4","end_of_study_questions_ufirst","intentionality","0","0","0","0","0","0","none","1","4923","0"
"071618","14:42:01","518675658","765338899","4.0.10.0","1","5","end_of_study_questions_ufirst","self_exclusion_1","0","0","0","0","0","0","Yes, use my data","1","10972","0"
"071618","14:42:01","518675658","765338899","4.0.10.0","1","5","end_of_study_questions_ufirst","self_exclusion_1other","0","0","0","0","0","0","","1","10972","0"
"071618","14:42:42","777880262","704053711","4.0.10.0","1","1","end_of_study_questions_ufirst","awareness","0","0","0","0","0","0","all","1","56088","0"
"071618","14:42:42","777880262","704053711","4.0.10.0","1","2","end_of_study_questions_ufirst","influence_general","0","0","0","0","0","0","about half","1","6120","0"
"071618","14:42:42","777880262","704053711","4.0.10.0","1","3","end_of_study_questions_ufirst","unintentionality","0","0","0","0","0","0","more than half","1","6064","0"
"071618","14:42:42","777880262","704053711","4.0.10.0","1","4","end_of_study_questions_ufirst","intentionality","0","0","0","0","0","0","about half","1","15268","0"
"071618","14:42:42","777880262","704053711","4.0.10.0","1","5","end_of_study_questions_ufirst","self_exclusion_1","0","0","0","0","0","0","Yes, use my data","1","17600","0"
"071618","14:42:42","777880262","704053711","4.0.10.0","1","5","end_of_study_questions_ufirst","self_exclusion_1other","0","0","0","0","0","0","","1","17600","0"
"071618","14:44:48","921269167","710030814","4.0.10.0","1","1","end_of_study_questions_ifirst","awareness","0","0","0","0","0","0","all","1","47300","0"
"071618","14:44:48","921269167","710030814","4.0.10.0","1","2","end_of_study_questions_ifirst","influence_general","0","0","0","0","0","0","a few","1","5132","0"
"071618","14:44:48","921269167","710030814","4.0.10.0","1","3","end_of_study_questions_ifirst","intentionality","0","0","0","0","0","0","a few","1","7019","0"
"071618","14:44:48","921269167","710030814","4.0.10.0","1","4","end_of_study_questions_ifirst","unintentionality","0","0","0","0","0","0","less than half","1","4377","0"
"071618","14:44:48","921269167","710030814","4.0.10.0","1","5","end_of_study_questions_ifirst","self_exclusion_1","0","0","0","0","0","0","Yes, use my data","1","5237","0"
"071618","14:44:48","921269167","710030814","4.0.10.0","1","5","end_of_study_questions_ifirst","self_exclusion_1other","0","0","0","0","0","0","","1","5237","0"
"071618","14:46:00","302033217","985068112","4.0.10.0","1","1","end_of_study_questions_ifirst","awareness","0","0","0","0","0","0","more than half","1","17803","0"
"071618","14:46:00","302033217","985068112","4.0.10.0","1","2","end_of_study_questions_ifirst","influence_general","0","0","0","0","0","0","all","1","2693","0"
"071618","14:46:00","302033217","985068112","4.0.10.0","1","3","end_of_study_questions_ifirst","intentionality","0","0","0","0","0","0","less than half","1","2195","0"
"071618","14:46:00","302033217","985068112","4.0.10.0","1","4","end_of_study_questions_ifirst","unintentionality","0","0","0","0","0","0","about half","1","3143","0"
"071618","14:46:00","302033217","985068112","4.0.10.0","1","5","end_of_study_questions_ifirst","self_exclusion_1","0","0","0","0","0","0","No, exclude my data (please specify why):","1","3236","0"
"071618","14:46:00","302033217","985068112","4.0.10.0","1","5","end_of_study_questions_ifirst","self_exclusion_1other","0","0","0","0","0","0","","1","3236","0"
"071618","14:47:30","65004135","290998509","4.0.10.0","1","1","end_of_study_questions_ufirst","awareness","0","0","0","0","0","0","all","1","45624","0"
"071618","14:47:30","65004135","290998509","4.0.10.0","1","2","end_of_study_questions_ufirst","influence_general","0","0","0","0","0","0","about half","1","5318","0"
"071618","14:47:30","65004135","290998509","4.0.10.0","1","3","end_of_study_questions_ufirst","unintentionality","0","0","0","0","0","0","about half","1","20911","0"
"071618","14:47:30","65004135","290998509","4.0.10.0","1","4","end_of_study_questions_ufirst","intentionality","0","0","0","0","0","0","a few","1","11309","0"
"071618","14:47:30","65004135","290998509","4.0.10.0","1","5","end_of_study_questions_ufirst","self_exclusion_1","0","0","0","0","0","0","Yes, use my data","1","14929","0"
"071618","14:47:30","65004135","290998509","4.0.10.0","1","5","end_of_study_questions_ufirst","self_exclusion_1other","0","0","0","0","0","0","","1","14929","0"
"071618","08:48:09","128652365","960339179","4.0.10.0","1","1","end_of_study_questions_ufirst","awareness","0","0","0","0","0","0","all","1","28986","0"
"071618","08:48:09","128652365","960339179","4.0.10.0","1","2","end_of_study_questions_ufirst","influence_general","0","0","0","0","0","0","a few","1","8439","0"
"071618","08:48:09","128652365","960339179","4.0.10.0","1","3","end_of_study_questions_ufirst","unintentionality","0","0","0","0","0","0","none","1","11691","0"
"071618","08:48:09","128652365","960339179","4.0.10.0","1","4","end_of_study_questions_ufirst","intentionality","0","0","0","0","0","0","a few","1","9543","0"
"071618","08:48:09","128652365","960339179","4.0.10.0","1","5","end_of_study_questions_ufirst","self_exclusion_1","0","0","0","0","0","0","Yes, use my data","1","22492","0"
"071618","08:48:09","128652365","960339179","4.0.10.0","1","5","end_of_study_questions_ufirst","self_exclusion_1other","0","0","0","0","0","0","","1","22492","0"
"071618","06:49:10","271115111","292953014","4.0.10.0","1","1","end_of_study_questions_ifirst","awareness","0","0","0","0","0","0","most","1","26190","0"
"071618","06:49:10","271115111","292953014","4.0.10.0","1","2","end_of_study_questions_ifirst","influence_general","0","0","0","0","0","0","a few","1","6651","0"
"071618","06:49:10","271115111","292953014","4.0.10.0","1","3","end_of_study_questions_ifirst","intentionality","0","0","0","0","0","0","none","1","37329","0"
"071618","06:49:10","271115111","292953014","4.0.10.0","1","4","end_of_study_questions_ifirst","unintentionality","0","0","0","0","0","0","less than half","1","7361","0"
"071618","06:49:10","271115111","292953014","4.0.10.0","1","5","end_of_study_questions_ifirst","self_exclusion_1","0","0","0","0","0","0","Yes, use my data","1","5187","0"
"071618","06:49:10","271115111","292953014","4.0.10.0","1","5","end_of_study_questions_ifirst","self_exclusion_1other","0","0","0","0","0","0","","1","5187","0"
"071618","14:50:43","238798937","308751542","4.0.10.0","1","1","end_of_study_questions_ifirst","awareness","0","0","0","0","0","0","all","1","11891","0"
"071618","14:50:43","238798937","308751542","4.0.10.0","1","2","end_of_study_questions_ifirst","influence_general","0","0","0","0","0","0","none","1","6484","0"
"071618","14:50:43","238798937","308751542","4.0.10.0","1","3","end_of_study_questions_ifirst","intentionality","0","0","0","0","0","0","none","1","6102","0"
"071618","14:50:43","238798937","308751542","4.0.10.0","1","4","end_of_study_questions_ifirst","unintentionality","0","0","0","0","0","0","none","1","4552","0"
"071618","14:50:43","238798937","308751542","4.0.10.0","1","5","end_of_study_questions_ifirst","self_exclusion_1","0","0","0","0","0","0","No, exclude my data (please specify why):","1","41694","0"
"071618","14:50:43","238798937","308751542","4.0.10.0","1","5","end_of_study_questions_ifirst","self_exclusion_1other","0","0","0","0","0","0","It was so pointless, the images flicked up for a millisecond, the Chinese character was shown for a flicker of a second, and virtually impossible to react to.","1","41694","0"
"071618","08:51:26","619609187","932810171","4.0.10.0","1","1","end_of_study_questions_ufirst","awareness","0","0","0","0","0","0","all","1","24607","0"
"071618","08:51:26","619609187","932810171","4.0.10.0","1","2","end_of_study_questions_ufirst","influence_general","0","0","0","0","0","0","none","1","9493","0"
"071618","08:51:26","619609187","932810171","4.0.10.0","1","3","end_of_study_questions_ufirst","unintentionality","0","0","0","0","0","0","none","1","15551","0"
"071618","08:51:26","619609187","932810171","4.0.10.0","1","4","end_of_study_questions_ufirst","intentionality","0","0","0","0","0","0","none","1","5408","0"
"071618","08:51:26","619609187","932810171","4.0.10.0","1","5","end_of_study_questions_ufirst","self_exclusion_1","0","0","0","0","0","0","Yes, use my data","1","4796","0"
"071618","08:51:26","619609187","932810171","4.0.10.0","1","5","end_of_study_questions_ufirst","self_exclusion_1other","0","0","0","0","0","0","","1","4796","0"
"071618","14:52:47","286959482","752626183","4.0.10.0","1","1","end_of_study_questions_ufirst","awareness","0","0","0","0","0","0","most","1","22230","0"
"071618","14:52:47","286959482","752626183","4.0.10.0","1","2","end_of_study_questions_ufirst","influence_general","0","0","0","0","0","0","about half","1","7547","0"
"071618","14:52:47","286959482","752626183","4.0.10.0","1","3","end_of_study_questions_ufirst","unintentionality","0","0","0","0","0","0","about half","1","4899","0"
"071618","14:52:47","286959482","752626183","4.0.10.0","1","4","end_of_study_questions_ufirst","intentionality","0","0","0","0","0","0","a few","1","5196","0"
"071618","14:52:47","286959482","752626183","4.0.10.0","1","5","end_of_study_questions_ufirst","self_exclusion_1","0","0","0","0","0","0","Yes, use my data","1","11650","0"
"071618","14:52:47","286959482","752626183","4.0.10.0","1","5","end_of_study_questions_ufirst","self_exclusion_1other","0","0","0","0","0","0","","1","11650","0"
"071618","09:52:52","744457130","642571861","4.0.10.0","1","1","end_of_study_questions_ufirst","awareness","0","0","0","0","0","0","all","1","22562","0"
"071618","09:52:52","744457130","642571861","4.0.10.0","1","2","end_of_study_questions_ufirst","influence_general","0","0","0","0","0","0","a few","1","11487","0"
"071618","09:52:52","744457130","642571861","4.0.10.0","1","3","end_of_study_questions_ufirst","unintentionality","0","0","0","0","0","0","a few","1","8695","0"
"071618","09:52:52","744457130","642571861","4.0.10.0","1","4","end_of_study_questions_ufirst","intentionality","0","0","0","0","0","0","none","1","5832","0"
"071618","09:52:52","744457130","642571861","4.0.10.0","1","5","end_of_study_questions_ufirst","self_exclusion_1","0","0","0","0","0","0","Yes, use my data","1","9381","0"
"071618","09:52:52","744457130","642571861","4.0.10.0","1","5","end_of_study_questions_ufirst","self_exclusion_1other","0","0","0","0","0","0","","1","9381","0"
"071618","10:53:05","201512663","860183763","4.0.10.0","1","1","end_of_study_questions_ufirst","awareness","0","0","0","0","0","0","all","1","23148","0"
"071618","10:53:05","201512663","860183763","4.0.10.0","1","2","end_of_study_questions_ufirst","influence_general","0","0","0","0","0","0","most","1","8380","0"
"071618","10:53:05","201512663","860183763","4.0.10.0","1","3","end_of_study_questions_ufirst","unintentionality","0","0","0","0","0","0","most","1","9381","0"
"071618","10:53:05","201512663","860183763","4.0.10.0","1","4","end_of_study_questions_ufirst","intentionality","0","0","0","0","0","0","none","1","7009","0"
"071618","10:53:05","201512663","860183763","4.0.10.0","1","5","end_of_study_questions_ufirst","self_exclusion_1","0","0","0","0","0","0","Yes, use my data","1","4819","0"
"071618","10:53:05","201512663","860183763","4.0.10.0","1","5","end_of_study_questions_ufirst","self_exclusion_1other","0","0","0","0","0","0","","1","4819","0"
"071618","14:53:51","617661306","229097424","4.0.10.0","1","1","end_of_study_questions_ifirst","awareness","0","0","0","0","0","0","all","1","12776","0"
"071618","14:53:51","617661306","229097424","4.0.10.0","1","2","end_of_study_questions_ifirst","influence_general","0","0","0","0","0","0","most","1","6254","0"
"071618","14:53:51","617661306","229097424","4.0.10.0","1","3","end_of_study_questions_ifirst","intentionality","0","0","0","0","0","0","most","1","7497","0"
"071618","14:53:51","617661306","229097424","4.0.10.0","1","4","end_of_study_questions_ifirst","unintentionality","0","0","0","0","0","0","most","1","4442","0"
"071618","14:53:51","617661306","229097424","4.0.10.0","1","5","end_of_study_questions_ifirst","self_exclusion_1","0","0","0","0","0","0","Yes, use my data","1","8269","0"
"071618","14:53:51","617661306","229097424","4.0.10.0","1","5","end_of_study_questions_ifirst","self_exclusion_1other","0","0","0","0","0","0","","1","8269","0"
"071618","09:55:12","915968005","671481412","4.0.10.0","1","1","end_of_study_questions_ifirst","awareness","0","0","0","0","0","0","","1","1595","0"
"071618","23:55:04","595743351","273905501","4.0.10.0","1","1","end_of_study_questions_ufirst","awareness","0","0","0","0","0","0","all","1","16842","0"
"071618","23:55:04","595743351","273905501","4.0.10.0","1","2","end_of_study_questions_ufirst","influence_general","0","0","0","0","0","0","most","1","8705","0"
"071618","23:55:04","595743351","273905501","4.0.10.0","1","3","end_of_study_questions_ufirst","unintentionality","0","0","0","0","0","0","most","1","16894","0"
"071618","23:55:04","595743351","273905501","4.0.10.0","1","4","end_of_study_questions_ufirst","intentionality","0","0","0","0","0","0","more than half","1","9114","0"
"071618","23:55:04","595743351","273905501","4.0.10.0","1","5","end_of_study_questions_ufirst","self_exclusion_1","0","0","0","0","0","0","Yes, use my data","1","14947","0"
"071618","23:55:04","595743351","273905501","4.0.10.0","1","5","end_of_study_questions_ufirst","self_exclusion_1other","0","0","0","0","0","0","","1","14947","0"
"071618","14:55:58","179580539","330579327","4.0.10.0","1","1","end_of_study_questions_ufirst","awareness","0","0","0","0","0","0","most","1","12465","0"
"071618","14:55:58","179580539","330579327","4.0.10.0","1","2","end_of_study_questions_ufirst","influence_general","0","0","0","0","0","0","most","1","8166","0"
"071618","14:55:58","179580539","330579327","4.0.10.0","1","3","end_of_study_questions_ufirst","unintentionality","0","0","0","0","0","0","most","1","5581","0"
"071618","14:55:58","179580539","330579327","4.0.10.0","1","4","end_of_study_questions_ufirst","intentionality","0","0","0","0","0","0","a few","1","6980","0"
"071618","14:55:58","179580539","330579327","4.0.10.0","1","5","end_of_study_questions_ufirst","self_exclusion_1","0","0","0","0","0","0","No, exclude my data (please specify why):","1","21906","0"
"071618","14:55:58","179580539","330579327","4.0.10.0","1","5","end_of_study_questions_ufirst","self_exclusion_1other","0","0","0","0","0","0","I struggled to get the programme to work properly","1","21906","0"
"071618","14:58:06","392015065","337066657","4.0.10.0","1","1","end_of_study_questions_ufirst","awareness","0","0","0","0","0","0","all","1","17484","0"
"071618","14:58:06","392015065","337066657","4.0.10.0","1","2","end_of_study_questions_ufirst","influence_general","0","0","0","0","0","0","none","1","5182","0"
"071618","14:58:06","392015065","337066657","4.0.10.0","1","3","end_of_study_questions_ufirst","unintentionality","0","0","0","0","0","0","none","1","7332","0"
"071618","14:58:06","392015065","337066657","4.0.10.0","1","4","end_of_study_questions_ufirst","intentionality","0","0","0","0","0","0","none","1","4133","0"
"071618","14:58:06","392015065","337066657","4.0.10.0","1","5","end_of_study_questions_ufirst","self_exclusion_1","0","0","0","0","0","0","Yes, use my data","1","9813","0"
"071618","14:58:06","392015065","337066657","4.0.10.0","1","5","end_of_study_questions_ufirst","self_exclusion_1other","0","0","0","0","0","0","","1","9813","0"
"071618","14:58:32","41883169","413147342","4.0.10.0","1","1","end_of_study_questions_ifirst","awareness","0","0","0","0","0","0","all","1","22849","0"
"071618","14:58:32","41883169","413147342","4.0.10.0","1","2","end_of_study_questions_ifirst","influence_general","0","0","0","0","0","0","none","1","9120","0"
"071618","14:58:32","41883169","413147342","4.0.10.0","1","3","end_of_study_questions_ifirst","intentionality","0","0","0","0","0","0","none","1","8213","0"
"071618","14:58:32","41883169","413147342","4.0.10.0","1","4","end_of_study_questions_ifirst","unintentionality","0","0","0","0","0","0","none","1","5867","0"
"071618","14:58:32","41883169","413147342","4.0.10.0","1","5","end_of_study_questions_ifirst","self_exclusion_1","0","0","0","0","0","0","Yes, use my data","1","13655","0"
"071618","14:58:32","41883169","413147342","4.0.10.0","1","5","end_of_study_questions_ifirst","self_exclusion_1other","0","0","0","0","0","0","","1","13655","0"
"071618","14:59:23","9712098","180201925","4.0.10.0","1","1","end_of_study_questions_ufirst","awareness","0","0","0","0","0","0","all","1","27946","0"
"071618","14:59:23","9712098","180201925","4.0.10.0","1","2","end_of_study_questions_ufirst","influence_general","0","0","0","0","0","0","none","1","12317","0"
"071618","14:59:23","9712098","180201925","4.0.10.0","1","3","end_of_study_questions_ufirst","unintentionality","0","0","0","0","0","0","a few","1","12668","0"
"071618","14:59:23","9712098","180201925","4.0.10.0","1","4","end_of_study_questions_ufirst","intentionality","0","0","0","0","0","0","none","1","8961","0"
"071618","14:59:23","9712098","180201925","4.0.10.0","1","5","end_of_study_questions_ufirst","self_exclusion_1","0","0","0","0","0","0","Yes, use my data","1","17469","0"
"071618","14:59:23","9712098","180201925","4.0.10.0","1","5","end_of_study_questions_ufirst","self_exclusion_1other","0","0","0","0","0","0","","1","17469","0"
"071618","10:01:16","604784836","773202440","4.0.10.0","1","1","end_of_study_questions_ifirst","awareness","0","0","0","0","0","0","all","1","14545","0"
"071618","10:01:16","604784836","773202440","4.0.10.0","1","2","end_of_study_questions_ifirst","influence_general","0","0","0","0","0","0","most","1","4373","0"
"071618","10:01:16","604784836","773202440","4.0.10.0","1","3","end_of_study_questions_ifirst","intentionality","0","0","0","0","0","0","most","1","5598","0"
"071618","10:01:16","604784836","773202440","4.0.10.0","1","4","end_of_study_questions_ifirst","unintentionality","0","0","0","0","0","0","all","1","5010","0"
"071618","10:01:16","604784836","773202440","4.0.10.0","1","5","end_of_study_questions_ifirst","self_exclusion_1","0","0","0","0","0","0","Yes, use my data","1","4088","0"
"071618","10:01:16","604784836","773202440","4.0.10.0","1","5","end_of_study_questions_ifirst","self_exclusion_1other","0","0","0","0","0","0","","1","4088","0"
"071618","10:04:20","915968005","671481412","4.0.10.0","1","1","end_of_study_questions_ifirst","awareness","0","0","0","0","0","0","about half","1","10489","0"
"071618","10:04:20","915968005","671481412","4.0.10.0","1","2","end_of_study_questions_ifirst","influence_general","0","0","0","0","0","0","about half","1","4011","0"
"071618","10:04:20","915968005","671481412","4.0.10.0","1","3","end_of_study_questions_ifirst","intentionality","0","0","0","0","0","0","about half","1","3858","0"
"071618","10:04:20","915968005","671481412","4.0.10.0","1","4","end_of_study_questions_ifirst","unintentionality","0","0","0","0","0","0","about half","1","5719","0"
"071618","10:04:20","915968005","671481412","4.0.10.0","1","5","end_of_study_questions_ifirst","self_exclusion_1","0","0","0","0","0","0","Yes, use my data","1","2572","0"
"071618","10:04:20","915968005","671481412","4.0.10.0","1","5","end_of_study_questions_ifirst","self_exclusion_1other","0","0","0","0","0","0","","1","2572","0"
"071618","15:04:34","682148722","590008967","4.0.10.0","1","1","end_of_study_questions_ufirst","awareness","0","0","0","0","0","0","all","1","33058","0"
"071618","15:04:34","682148722","590008967","4.0.10.0","1","2","end_of_study_questions_ufirst","influence_general","0","0","0","0","0","0","most","1","6061","0"
"071618","15:04:34","682148722","590008967","4.0.10.0","1","3","end_of_study_questions_ufirst","unintentionality","0","0","0","0","0","0","most","1","6126","0"
"071618","15:04:34","682148722","590008967","4.0.10.0","1","4","end_of_study_questions_ufirst","intentionality","0","0","0","0","0","0","all","1","6231","0"
"071618","15:04:34","682148722","590008967","4.0.10.0","1","5","end_of_study_questions_ufirst","self_exclusion_1","0","0","0","0","0","0","Yes, use my data","1","6497","0"
"071618","15:04:34","682148722","590008967","4.0.10.0","1","5","end_of_study_questions_ufirst","self_exclusion_1other","0","0","0","0","0","0","","1","6497","0"
"071618","15:05:22","475163154","791742299","4.0.10.0","1","1","end_of_study_questions_ufirst","awareness","0","0","0","0","0","0","all","1","13236","0"
"071618","15:05:22","475163154","791742299","4.0.10.0","1","2","end_of_study_questions_ufirst","influence_general","0","0","0","0","0","0","a few","1","6586","0"
"071618","15:05:22","475163154","791742299","4.0.10.0","1","3","end_of_study_questions_ufirst","unintentionality","0","0","0","0","0","0","a few","1","7498","0"
"071618","15:05:22","475163154","791742299","4.0.10.0","1","4","end_of_study_questions_ufirst","intentionality","0","0","0","0","0","0","none","1","10100","0"
"071618","15:05:22","475163154","791742299","4.0.10.0","1","5","end_of_study_questions_ufirst","self_exclusion_1","0","0","0","0","0","0","Yes, use my data","1","13297","0"
"071618","15:05:22","475163154","791742299","4.0.10.0","1","5","end_of_study_questions_ufirst","self_exclusion_1other","0","0","0","0","0","0","","1","13297","0"
"071618","09:08:05","666100047","963711838","4.0.10.0","1","1","end_of_study_questions_ifirst","awareness","0","0","0","0","0","0","all","1","15193","0"
"071618","09:08:05","666100047","963711838","4.0.10.0","1","2","end_of_study_questions_ifirst","influence_general","0","0","0","0","0","0","a few","1","10405","0"
"071618","09:08:05","666100047","963711838","4.0.10.0","1","3","end_of_study_questions_ifirst","intentionality","0","0","0","0","0","0","a few","1","7324","0"
"071618","09:08:05","666100047","963711838","4.0.10.0","1","4","end_of_study_questions_ifirst","unintentionality","0","0","0","0","0","0","a few","1","4763","0"
"071618","09:08:05","666100047","963711838","4.0.10.0","1","5","end_of_study_questions_ifirst","self_exclusion_1","0","0","0","0","0","0","Yes, use my data","1","11384","0"
"071618","09:08:05","666100047","963711838","4.0.10.0","1","5","end_of_study_questions_ifirst","self_exclusion_1other","0","0","0","0","0","0","","1","11384","0"
"071618","15:11:30","842019693","401033296","4.0.10.0","1","1","end_of_study_questions_ifirst","awareness","0","0","0","0","0","0","a few","1","17886","0"
"071618","15:11:30","842019693","401033296","4.0.10.0","1","2","end_of_study_questions_ifirst","influence_general","0","0","0","0","0","0","more than half","1","10290","0"
"071618","15:11:30","842019693","401033296","4.0.10.0","1","3","end_of_study_questions_ifirst","intentionality","0","0","0","0","0","0","most","1","9133","0"
"071618","15:11:30","842019693","401033296","4.0.10.0","1","4","end_of_study_questions_ifirst","unintentionality","0","0","0","0","0","0","most","1","6613","0"
"071618","15:11:30","842019693","401033296","4.0.10.0","1","5","end_of_study_questions_ifirst","self_exclusion_1","0","0","0","0","0","0","Yes, use my data","1","5868","0"
"071618","15:11:30","842019693","401033296","4.0.10.0","1","5","end_of_study_questions_ifirst","self_exclusion_1other","0","0","0","0","0","0","","1","5868","0"
"071618","10:12:40","693721371","603072255","4.0.10.0","1","1","end_of_study_questions_ufirst","awareness","0","0","0","0","0","0","all","1","29546","0"
"071618","10:12:40","693721371","603072255","4.0.10.0","1","2","end_of_study_questions_ufirst","influence_general","0","0","0","0","0","0","more than half","1","11782","0"
"071618","10:12:40","693721371","603072255","4.0.10.0","1","3","end_of_study_questions_ufirst","unintentionality","0","0","0","0","0","0","about half","1","13616","0"
"071618","10:12:40","693721371","603072255","4.0.10.0","1","4","end_of_study_questions_ufirst","intentionality","0","0","0","0","0","0","about half","1","11980","0"
"071618","10:12:40","693721371","603072255","4.0.10.0","1","5","end_of_study_questions_ufirst","self_exclusion_1","0","0","0","0","0","0","Yes, use my data","1","33781","0"
"071618","10:12:40","693721371","603072255","4.0.10.0","1","5","end_of_study_questions_ufirst","self_exclusion_1other","0","0","0","0","0","0","","1","33781","0"
"071618","15:12:11","272621182","589498455","4.0.10.0","1","1","end_of_study_questions_ufirst","awareness","0","0","0","0","0","0","all","1","17841","0"
"071618","15:12:11","272621182","589498455","4.0.10.0","1","2","end_of_study_questions_ufirst","influence_general","0","0","0","0","0","0","all","1","6315","0"
"071618","15:12:11","272621182","589498455","4.0.10.0","1","3","end_of_study_questions_ufirst","unintentionality","0","0","0","0","0","0","all","1","7547","0"
"071618","15:12:11","272621182","589498455","4.0.10.0","1","4","end_of_study_questions_ufirst","intentionality","0","0","0","0","0","0","none","1","13904","0"
"071618","15:12:11","272621182","589498455","4.0.10.0","1","5","end_of_study_questions_ufirst","self_exclusion_1","0","0","0","0","0","0","Yes, use my data","1","22644","0"
"071618","15:12:11","272621182","589498455","4.0.10.0","1","5","end_of_study_questions_ufirst","self_exclusion_1other","0","0","0","0","0","0","","1","22644","0"
"071618","10:13:26","376652053","787311848","4.0.10.0","1","1","end_of_study_questions_ifirst","awareness","0","0","0","0","0","0","all","1","22564","0"
"071618","10:13:26","376652053","787311848","4.0.10.0","1","2","end_of_study_questions_ifirst","influence_general","0","0","0","0","0","0","more than half","1","10507","0"
"071618","10:13:26","376652053","787311848","4.0.10.0","1","3","end_of_study_questions_ifirst","intentionality","0","0","0","0","0","0","about half","1","6556","0"
"071618","10:13:26","376652053","787311848","4.0.10.0","1","4","end_of_study_questions_ifirst","unintentionality","0","0","0","0","0","0","about half","1","4898","0"
"071618","10:13:26","376652053","787311848","4.0.10.0","1","5","end_of_study_questions_ifirst","self_exclusion_1","0","0","0","0","0","0","Yes, use my data","1","15596","0"
"071618","10:13:26","376652053","787311848","4.0.10.0","1","5","end_of_study_questions_ifirst","self_exclusion_1other","0","0","0","0","0","0","","1","15596","0"
"071618","15:13:51","227009176","910044066","4.0.10.0","1","1","end_of_study_questions_ifirst","awareness","0","0","0","0","0","0","most","1","28380","0"
"071618","15:13:51","227009176","910044066","4.0.10.0","1","2","end_of_study_questions_ifirst","influence_general","0","0","0","0","0","0","a few","1","12506","0"
"071618","15:13:51","227009176","910044066","4.0.10.0","1","3","end_of_study_questions_ifirst","intentionality","0","0","0","0","0","0","none","1","9194","0"
"071618","15:13:51","227009176","910044066","4.0.10.0","1","4","end_of_study_questions_ifirst","unintentionality","0","0","0","0","0","0","a few","1","5882","0"
"071618","15:13:51","227009176","910044066","4.0.10.0","1","5","end_of_study_questions_ifirst","self_exclusion_1","0","0","0","0","0","0","Yes, use my data","1","6469","0"
"071618","15:13:51","227009176","910044066","4.0.10.0","1","5","end_of_study_questions_ifirst","self_exclusion_1other","0","0","0","0","0","0","","1","6469","0"
"071618","15:14:38","733694934","350301937","4.0.10.0","1","1","end_of_study_questions_ufirst","awareness","0","0","0","0","0","0","about half","1","23911","0"
"071618","15:14:38","733694934","350301937","4.0.10.0","1","2","end_of_study_questions_ufirst","influence_general","0","0","0","0","0","0","none","1","3836","0"
"071618","15:14:38","733694934","350301937","4.0.10.0","1","3","end_of_study_questions_ufirst","unintentionality","0","0","0","0","0","0","none","1","4319","0"
"071618","15:14:38","733694934","350301937","4.0.10.0","1","4","end_of_study_questions_ufirst","intentionality","0","0","0","0","0","0","none","1","5535","0"
"071618","15:14:38","733694934","350301937","4.0.10.0","1","5","end_of_study_questions_ufirst","self_exclusion_1","0","0","0","0","0","0","Yes, use my data","1","4377","0"
"071618","15:14:38","733694934","350301937","4.0.10.0","1","5","end_of_study_questions_ufirst","self_exclusion_1other","0","0","0","0","0","0","","1","4377","0"
"071618","15:15:54","430505723","875576921","4.0.10.0","1","1","end_of_study_questions_ufirst","awareness","0","0","0","0","0","0","all","1","5679","0"
"071618","15:15:54","430505723","875576921","4.0.10.0","1","2","end_of_study_questions_ufirst","influence_general","0","0","0","0","0","0","a few","1","6952","0"
"071618","15:15:54","430505723","875576921","4.0.10.0","1","3","end_of_study_questions_ufirst","unintentionality","0","0","0","0","0","0","less than half","1","6707","0"
"071618","15:15:54","430505723","875576921","4.0.10.0","1","4","end_of_study_questions_ufirst","intentionality","0","0","0","0","0","0","a few","1","5274","0"
"071618","15:15:54","430505723","875576921","4.0.10.0","1","5","end_of_study_questions_ufirst","self_exclusion_1","0","0","0","0","0","0","Yes, use my data","1","11240","0"
"071618","15:15:54","430505723","875576921","4.0.10.0","1","5","end_of_study_questions_ufirst","self_exclusion_1other","0","0","0","0","0","0","","1","11240","0"
"071618","15:16:37","227671159","474334397","4.0.10.0","1","1","end_of_study_questions_ufirst","awareness","0","0","0","0","0","0","all","1","13915","0"
"071618","15:16:37","227671159","474334397","4.0.10.0","1","2","end_of_study_questions_ufirst","influence_general","0","0","0","0","0","0","less than half","1","9497","0"
"071618","15:16:37","227671159","474334397","4.0.10.0","1","3","end_of_study_questions_ufirst","unintentionality","0","0","0","0","0","0","more than half","1","7674","0"
"071618","15:16:37","227671159","474334397","4.0.10.0","1","4","end_of_study_questions_ufirst","intentionality","0","0","0","0","0","0","a few","1","10395","0"
"071618","15:16:37","227671159","474334397","4.0.10.0","1","5","end_of_study_questions_ufirst","self_exclusion_1","0","0","0","0","0","0","Yes, use my data","1","8967","0"
"071618","15:16:37","227671159","474334397","4.0.10.0","1","5","end_of_study_questions_ufirst","self_exclusion_1other","0","0","0","0","0","0","","1","8967","0"
"071618","23:47:07","329223191","626816346","4.0.10.0","1","1","end_of_study_questions_ifirst","awareness","0","0","0","0","0","0","all","1","29233","0"
"071618","23:47:07","329223191","626816346","4.0.10.0","1","2","end_of_study_questions_ifirst","influence_general","0","0","0","0","0","0","a few","1","8132","0"
"071618","23:47:07","329223191","626816346","4.0.10.0","1","3","end_of_study_questions_ifirst","intentionality","0","0","0","0","0","0","a few","1","16431","0"
"071618","23:47:07","329223191","626816346","4.0.10.0","1","4","end_of_study_questions_ifirst","unintentionality","0","0","0","0","0","0","a few","1","7541","0"
"071618","23:47:07","329223191","626816346","4.0.10.0","1","5","end_of_study_questions_ifirst","self_exclusion_1","0","0","0","0","0","0","Yes, use my data","1","25673","0"
"071618","23:47:07","329223191","626816346","4.0.10.0","1","5","end_of_study_questions_ifirst","self_exclusion_1other","0","0","0","0","0","0","","1","25673","0"
"071618","10:18:41","707439503","934611708","4.0.10.0","1","1","end_of_study_questions_ifirst","awareness","0","0","0","0","0","0","none","1","22306","0"
"071618","10:18:41","707439503","934611708","4.0.10.0","1","2","end_of_study_questions_ifirst","influence_general","0","0","0","0","0","0","a few","1","6625","0"
"071618","10:18:41","707439503","934611708","4.0.10.0","1","3","end_of_study_questions_ifirst","intentionality","0","0","0","0","0","0","none","1","7842","0"
"071618","10:18:41","707439503","934611708","4.0.10.0","1","4","end_of_study_questions_ifirst","unintentionality","0","0","0","0","0","0","a few","1","6752","0"
"071618","10:18:41","707439503","934611708","4.0.10.0","1","5","end_of_study_questions_ifirst","self_exclusion_1","0","0","0","0","0","0","Yes, use my data","1","5833","0"
"071618","10:18:41","707439503","934611708","4.0.10.0","1","5","end_of_study_questions_ifirst","self_exclusion_1other","0","0","0","0","0","0","","1","5833","0"
"071618","15:17:52","164107744","392174335","4.0.10.0","1","1","end_of_study_questions_ufirst","awareness","0","0","0","0","0","0","about half","1","35532","0"
"071618","15:17:52","164107744","392174335","4.0.10.0","1","2","end_of_study_questions_ufirst","influence_general","0","0","0","0","0","0","more than half","1","18678","0"
"071618","15:17:52","164107744","392174335","4.0.10.0","1","3","end_of_study_questions_ufirst","unintentionality","0","0","0","0","0","0","less than half","1","9206","0"
"071618","15:17:52","164107744","392174335","4.0.10.0","1","4","end_of_study_questions_ufirst","intentionality","0","0","0","0","0","0","about half","1","9526","0"
"071618","15:17:52","164107744","392174335","4.0.10.0","1","5","end_of_study_questions_ufirst","self_exclusion_1","0","0","0","0","0","0","Yes, use my data","1","28873","0"
"071618","15:17:52","164107744","392174335","4.0.10.0","1","5","end_of_study_questions_ufirst","self_exclusion_1other","0","0","0","0","0","0","","1","28873","0"
"071618","07:19:44","308347188","600769455","4.0.10.0","1","1","end_of_study_questions_ufirst","awareness","0","0","0","0","0","0","a few","1","11565","0"
"071618","07:19:44","308347188","600769455","4.0.10.0","1","2","end_of_study_questions_ufirst","influence_general","0","0","0","0","0","0","a few","1","9449","0"
"071618","07:19:44","308347188","600769455","4.0.10.0","1","3","end_of_study_questions_ufirst","unintentionality","0","0","0","0","0","0","less than half","1","10493","0"
"071618","07:19:44","308347188","600769455","4.0.10.0","1","4","end_of_study_questions_ufirst","intentionality","0","0","0","0","0","0","a few","1","9464","0"
"071618","07:19:44","308347188","600769455","4.0.10.0","1","5","end_of_study_questions_ufirst","self_exclusion_1","0","0","0","0","0","0","Yes, use my data","1","5101","0"
"071618","07:19:44","308347188","600769455","4.0.10.0","1","5","end_of_study_questions_ufirst","self_exclusion_1other","0","0","0","0","0","0","","1","5101","0"
"071618","15:13:24","208448089","821794310","4.0.10.0","1","1","end_of_study_questions_ifirst","awareness","0","0","0","0","0","0","all","1","41092","0"
"071618","15:13:24","208448089","821794310","4.0.10.0","1","2","end_of_study_questions_ifirst","influence_general","0","0","0","0","0","0","none","1","11816","0"
"071618","15:13:24","208448089","821794310","4.0.10.0","1","3","end_of_study_questions_ifirst","intentionality","0","0","0","0","0","0","none","1","10311","0"
"071618","15:13:24","208448089","821794310","4.0.10.0","1","4","end_of_study_questions_ifirst","unintentionality","0","0","0","0","0","0","none","1","11199","0"
"071618","15:13:24","208448089","821794310","4.0.10.0","1","5","end_of_study_questions_ifirst","self_exclusion_1","0","0","0","0","0","0","No, exclude my data (please specify why):","1","388452","0"
"071618","15:13:24","208448089","821794310","4.0.10.0","1","5","end_of_study_questions_ifirst","self_exclusion_1other","0","0","0","0","0","0","Early on in the test i realised that i like chinese symbols regardless of design and found myself answering each question with a ""Pleasent"" responce, i do not know if this will negatively effect the results of your study which is why i selected this option. also i found the images to flash by so fast i focused my attention on seeing the symbol and not the first image which is why it was easy not to let the image effect my judgement of the symbol.","1","388452","0"
"071618","10:20:32","937938681","722688639","4.0.10.0","1","1","end_of_study_questions_ufirst","awareness","0","0","0","0","0","0","less than half","1","13360","0"
"071618","10:20:32","937938681","722688639","4.0.10.0","1","2","end_of_study_questions_ufirst","influence_general","0","0","0","0","0","0","none","1","5831","0"
"071618","10:20:32","937938681","722688639","4.0.10.0","1","3","end_of_study_questions_ufirst","unintentionality","0","0","0","0","0","0","none","1","5629","0"
"071618","10:20:32","937938681","722688639","4.0.10.0","1","4","end_of_study_questions_ufirst","intentionality","0","0","0","0","0","0","none","1","4188","0"
"071618","10:20:32","937938681","722688639","4.0.10.0","1","5","end_of_study_questions_ufirst","self_exclusion_1","0","0","0","0","0","0","No, exclude my data (please specify why):","1","71344","0"
"071618","10:20:32","937938681","722688639","4.0.10.0","1","5","end_of_study_questions_ufirst","self_exclusion_1other","0","0","0","0","0","0","I find all Chinese characters aesthetically attractive and hit pleasant for all of them. I think that the intention of the study was to see whether the images before/after influenced the participants view of the character which I completely disregarded. Therefore, my data is not very useful (if that is the goal of the study). ","1","71344","0"
"071618","22:22:41","271178487","498350692","4.0.10.0","1","1","end_of_study_questions_ifirst","awareness","0","0","0","0","0","0","less than half","1","25625","0"
"071618","22:22:41","271178487","498350692","4.0.10.0","1","2","end_of_study_questions_ifirst","influence_general","0","0","0","0","0","0","about half","1","7705","0"
"071618","22:22:41","271178487","498350692","4.0.10.0","1","3","end_of_study_questions_ifirst","intentionality","0","0","0","0","0","0","a few","1","11775","0"
"071618","22:22:41","271178487","498350692","4.0.10.0","1","4","end_of_study_questions_ifirst","unintentionality","0","0","0","0","0","0","a few","1","6865","0"
"071618","22:22:41","271178487","498350692","4.0.10.0","1","5","end_of_study_questions_ifirst","self_exclusion_1","0","0","0","0","0","0","Yes, use my data","1","11430","0"
"071618","22:22:41","271178487","498350692","4.0.10.0","1","5","end_of_study_questions_ifirst","self_exclusion_1other","0","0","0","0","0","0","","1","11430","0"
"071618","15:27:10","166946191","608020386","4.0.10.0","1","1","end_of_study_questions_ifirst","awareness","0","0","0","0","0","0","all","1","11595","0"
"071618","15:27:10","166946191","608020386","4.0.10.0","1","2","end_of_study_questions_ifirst","influence_general","0","0","0","0","0","0","more than half","1","9487","0"
"071618","15:27:10","166946191","608020386","4.0.10.0","1","3","end_of_study_questions_ifirst","intentionality","0","0","0","0","0","0","about half","1","5772","0"
"071618","15:27:10","166946191","608020386","4.0.10.0","1","4","end_of_study_questions_ifirst","unintentionality","0","0","0","0","0","0","less than half","1","5377","0"
"071618","15:27:10","166946191","608020386","4.0.10.0","1","5","end_of_study_questions_ifirst","self_exclusion_1","0","0","0","0","0","0","Yes, use my data","1","4491","0"
"071618","15:27:10","166946191","608020386","4.0.10.0","1","5","end_of_study_questions_ifirst","self_exclusion_1other","0","0","0","0","0","0","","1","4491","0"
"071618","15:30:41","869030838","866309533","4.0.10.0","1","1","end_of_study_questions_ufirst","awareness","0","0","0","0","0","0","all","1","12345","0"
"071618","15:30:41","869030838","866309533","4.0.10.0","1","2","end_of_study_questions_ufirst","influence_general","0","0","0","0","0","0","a few","1","5080","0"
"071618","15:30:41","869030838","866309533","4.0.10.0","1","3","end_of_study_questions_ufirst","unintentionality","0","0","0","0","0","0","less than half","1","4898","0"
"071618","15:30:41","869030838","866309533","4.0.10.0","1","4","end_of_study_questions_ufirst","intentionality","0","0","0","0","0","0","none","1","5052","0"
"071618","15:30:41","869030838","866309533","4.0.10.0","1","5","end_of_study_questions_ufirst","self_exclusion_1","0","0","0","0","0","0","Yes, use my data","1","3383","0"
"071618","15:30:41","869030838","866309533","4.0.10.0","1","5","end_of_study_questions_ufirst","self_exclusion_1other","0","0","0","0","0","0","","1","3383","0"
"071618","15:27:02","452417747","866046103","4.0.10.0","1","1","end_of_study_questions_ufirst","awareness","0","0","0","0","0","0","all","1","15797","0"
"071618","15:27:02","452417747","866046103","4.0.10.0","1","2","end_of_study_questions_ufirst","influence_general","0","0","0","0","0","0","less than half","1","8368","0"
"071618","15:27:02","452417747","866046103","4.0.10.0","1","3","end_of_study_questions_ufirst","unintentionality","0","0","0","0","0","0","a few","1","9941","0"
"071618","15:27:02","452417747","866046103","4.0.10.0","1","4","end_of_study_questions_ufirst","intentionality","0","0","0","0","0","0","none","1","7714","0"
"071618","15:27:02","452417747","866046103","4.0.10.0","1","5","end_of_study_questions_ufirst","self_exclusion_1","0","0","0","0","0","0","Yes, use my data","1","17058","0"
"071618","15:27:02","452417747","866046103","4.0.10.0","1","5","end_of_study_questions_ufirst","self_exclusion_1other","0","0","0","0","0","0","","1","17058","0"
"071618","10:27:17","895159870","354547274","4.0.10.0","1","1","end_of_study_questions_ifirst","awareness","0","0","0","0","0","0","all","1","31548","0"
"071618","10:27:17","895159870","354547274","4.0.10.0","1","2","end_of_study_questions_ifirst","influence_general","0","0","0","0","0","0","all","1","9052","0"
"071618","10:27:17","895159870","354547274","4.0.10.0","1","3","end_of_study_questions_ifirst","intentionality","0","0","0","0","0","0","more than half","1","7240","0"
"071618","10:27:17","895159870","354547274","4.0.10.0","1","4","end_of_study_questions_ifirst","unintentionality","0","0","0","0","0","0","most","1","8381","0"
"071618","10:27:17","895159870","354547274","4.0.10.0","1","5","end_of_study_questions_ifirst","self_exclusion_1","0","0","0","0","0","0","Yes, use my data","1","4243","0"
"071618","10:27:17","895159870","354547274","4.0.10.0","1","5","end_of_study_questions_ifirst","self_exclusion_1other","0","0","0","0","0","0","","1","4243","0"
"071618","10:27:54","940275690","179416344","4.0.10.0","1","1","end_of_study_questions_ifirst","awareness","0","0","0","0","0","0","all","1","27739","0"
"071618","10:27:54","940275690","179416344","4.0.10.0","1","2","end_of_study_questions_ifirst","influence_general","0","0","0","0","0","0","less than half","1","14629","0"
"071618","10:27:54","940275690","179416344","4.0.10.0","1","3","end_of_study_questions_ifirst","intentionality","0","0","0","0","0","0","less than half","1","6978","0"
"071618","10:27:54","940275690","179416344","4.0.10.0","1","4","end_of_study_questions_ifirst","unintentionality","0","0","0","0","0","0","more than half","1","10496","0"
"071618","10:27:54","940275690","179416344","4.0.10.0","1","5","end_of_study_questions_ifirst","self_exclusion_1","0","0","0","0","0","0","Yes, use my data","1","11668","0"
"071618","10:27:54","940275690","179416344","4.0.10.0","1","5","end_of_study_questions_ifirst","self_exclusion_1other","0","0","0","0","0","0","","1","11668","0"
"071618","15:28:23","665263046","344603030","4.0.10.0","1","1","end_of_study_questions_ifirst","awareness","0","0","0","0","0","0","all","1","10870","0"
"071618","15:28:23","665263046","344603030","4.0.10.0","1","2","end_of_study_questions_ifirst","influence_general","0","0","0","0","0","0","none","1","6497","0"
"071618","15:28:23","665263046","344603030","4.0.10.0","1","3","end_of_study_questions_ifirst","intentionality","0","0","0","0","0","0","none","1","16668","0"
"071618","15:28:23","665263046","344603030","4.0.10.0","1","4","end_of_study_questions_ifirst","unintentionality","0","0","0","0","0","0","a few","1","6991","0"
"071618","15:28:23","665263046","344603030","4.0.10.0","1","5","end_of_study_questions_ifirst","self_exclusion_1","0","0","0","0","0","0","Yes, use my data","1","6797","0"
"071618","15:28:23","665263046","344603030","4.0.10.0","1","5","end_of_study_questions_ifirst","self_exclusion_1other","0","0","0","0","0","0","","1","6797","0"
"071618","10:30:58","329101916","331448779","4.0.10.0","1","1","end_of_study_questions_ufirst","awareness","0","0","0","0","0","0","all","1","12879","0"
"071618","10:30:58","329101916","331448779","4.0.10.0","1","2","end_of_study_questions_ufirst","influence_general","0","0","0","0","0","0","a few","1","9002","0"
"071618","10:30:58","329101916","331448779","4.0.10.0","1","3","end_of_study_questions_ufirst","unintentionality","0","0","0","0","0","0","a few","1","5228","0"
"071618","10:30:58","329101916","331448779","4.0.10.0","1","4","end_of_study_questions_ufirst","intentionality","0","0","0","0","0","0","a few","1","3551","0"
"071618","10:30:58","329101916","331448779","4.0.10.0","1","5","end_of_study_questions_ufirst","self_exclusion_1","0","0","0","0","0","0","Yes, use my data","1","3423","0"
"071618","10:30:58","329101916","331448779","4.0.10.0","1","5","end_of_study_questions_ufirst","self_exclusion_1other","0","0","0","0","0","0","","1","3423","0"
"071618","10:29:39","401485431","36970580","4.0.10.0","1","1","end_of_study_questions_ifirst","awareness","0","0","0","0","0","0","all","1","22515","0"
"071618","10:29:39","401485431","36970580","4.0.10.0","1","2","end_of_study_questions_ifirst","influence_general","0","0","0","0","0","0","about half","1","6494","0"
"071618","10:29:39","401485431","36970580","4.0.10.0","1","3","end_of_study_questions_ifirst","intentionality","0","0","0","0","0","0","less than half","1","11650","0"
"071618","10:29:39","401485431","36970580","4.0.10.0","1","4","end_of_study_questions_ifirst","unintentionality","0","0","0","0","0","0","less than half","1","10466","0"
"071618","10:29:39","401485431","36970580","4.0.10.0","1","5","end_of_study_questions_ifirst","self_exclusion_1","0","0","0","0","0","0","Yes, use my data","1","6055","0"
"071618","10:29:39","401485431","36970580","4.0.10.0","1","5","end_of_study_questions_ifirst","self_exclusion_1other","0","0","0","0","0","0","","1","6055","0"
"071618","09:30:15","658596141","709057711","4.0.10.0","1","1","end_of_study_questions_ufirst","awareness","0","0","0","0","0","0","about half","1","8156","0"
"071618","09:30:15","658596141","709057711","4.0.10.0","1","2","end_of_study_questions_ufirst","influence_general","0","0","0","0","0","0","about half","1","2516","0"
"071618","09:30:15","658596141","709057711","4.0.10.0","1","3","end_of_study_questions_ufirst","unintentionality","0","0","0","0","0","0","more than half","1","2728","0"
"071618","09:30:15","658596141","709057711","4.0.10.0","1","4","end_of_study_questions_ufirst","intentionality","0","0","0","0","0","0","less than half","1","2571","0"
"071618","09:30:15","658596141","709057711","4.0.10.0","1","5","end_of_study_questions_ufirst","self_exclusion_1","0","0","0","0","0","0","Yes, use my data","1","3087","0"
"071618","09:30:15","658596141","709057711","4.0.10.0","1","5","end_of_study_questions_ufirst","self_exclusion_1other","0","0","0","0","0","0","","1","3087","0"
"071618","15:30:00","747100094","355139417","4.0.10.0","1","1","end_of_study_questions_ufirst","awareness","0","0","0","0","0","0","all","1","18262","0"
"071618","15:30:00","747100094","355139417","4.0.10.0","1","2","end_of_study_questions_ufirst","influence_general","0","0","0","0","0","0","most","1","6741","0"
"071618","15:30:00","747100094","355139417","4.0.10.0","1","3","end_of_study_questions_ufirst","unintentionality","0","0","0","0","0","0","all","1","11181","0"
"071618","15:30:00","747100094","355139417","4.0.10.0","1","4","end_of_study_questions_ufirst","intentionality","0","0","0","0","0","0","most","1","6117","0"
"071618","15:30:00","747100094","355139417","4.0.10.0","1","5","end_of_study_questions_ufirst","self_exclusion_1","0","0","0","0","0","0","Yes, use my data","1","12485","0"
"071618","15:30:00","747100094","355139417","4.0.10.0","1","5","end_of_study_questions_ufirst","self_exclusion_1other","0","0","0","0","0","0","","1","12485","0"
"071618","15:31:52","711649134","952261778","4.0.10.0","1","1","end_of_study_questions_ifirst","awareness","0","0","0","0","0","0","all","1","17304","0"
"071618","15:31:52","711649134","952261778","4.0.10.0","1","2","end_of_study_questions_ifirst","influence_general","0","0","0","0","0","0","a few","1","7205","0"
"071618","15:31:52","711649134","952261778","4.0.10.0","1","3","end_of_study_questions_ifirst","intentionality","0","0","0","0","0","0","none","1","13300","0"
"071618","15:31:52","711649134","952261778","4.0.10.0","1","4","end_of_study_questions_ifirst","unintentionality","0","0","0","0","0","0","less than half","1","11267","0"
"071618","15:31:52","711649134","952261778","4.0.10.0","1","5","end_of_study_questions_ifirst","self_exclusion_1","0","0","0","0","0","0","Yes, use my data","1","8004","0"
"071618","15:31:52","711649134","952261778","4.0.10.0","1","5","end_of_study_questions_ifirst","self_exclusion_1other","0","0","0","0","0","0","","1","8004","0"
"071618","07:32:39","827487469","168637346","4.0.10.0","1","1","end_of_study_questions_ifirst","awareness","0","0","0","0","0","0","most","1","19511","0"
"071618","07:32:39","827487469","168637346","4.0.10.0","1","2","end_of_study_questions_ifirst","influence_general","0","0","0","0","0","0","a few","1","5825","0"
"071618","07:32:39","827487469","168637346","4.0.10.0","1","3","end_of_study_questions_ifirst","intentionality","0","0","0","0","0","0","a few","1","4990","0"
"071618","07:32:39","827487469","168637346","4.0.10.0","1","4","end_of_study_questions_ifirst","unintentionality","0","0","0","0","0","0","less than half","1","5965","0"
"071618","07:32:39","827487469","168637346","4.0.10.0","1","5","end_of_study_questions_ifirst","self_exclusion_1","0","0","0","0","0","0","Yes, use my data","1","7844","0"
"071618","07:32:39","827487469","168637346","4.0.10.0","1","5","end_of_study_questions_ifirst","self_exclusion_1other","0","0","0","0","0","0","","1","7844","0"
"071618","15:33:05","926761325","295357034","4.0.10.0","1","1","end_of_study_questions_ifirst","awareness","0","0","0","0","0","0","all","1","18086","0"
"071618","15:33:05","926761325","295357034","4.0.10.0","1","2","end_of_study_questions_ifirst","influence_general","0","0","0","0","0","0","all","1","5728","0"
"071618","15:33:05","926761325","295357034","4.0.10.0","1","3","end_of_study_questions_ifirst","intentionality","0","0","0","0","0","0","all","1","4629","0"
"071618","15:33:05","926761325","295357034","4.0.10.0","1","4","end_of_study_questions_ifirst","unintentionality","0","0","0","0","0","0","all","1","9022","0"
"071618","15:33:05","926761325","295357034","4.0.10.0","1","5","end_of_study_questions_ifirst","self_exclusion_1","0","0","0","0","0","0","Yes, use my data","1","19514","0"
"071618","15:33:05","926761325","295357034","4.0.10.0","1","5","end_of_study_questions_ifirst","self_exclusion_1other","0","0","0","0","0","0","","1","19514","0"
"071618","15:33:14","207619203","139843245","4.0.10.0","1","1","end_of_study_questions_ufirst","awareness","0","0","0","0","0","0","all","1","31869","0"
"071618","15:33:14","207619203","139843245","4.0.10.0","1","2","end_of_study_questions_ufirst","influence_general","0","0","0","0","0","0","a few","1","6475","0"
"071618","15:33:14","207619203","139843245","4.0.10.0","1","3","end_of_study_questions_ufirst","unintentionality","0","0","0","0","0","0","a few","1","10181","0"
"071618","15:33:14","207619203","139843245","4.0.10.0","1","4","end_of_study_questions_ufirst","intentionality","0","0","0","0","0","0","none","1","12244","0"
"071618","15:33:14","207619203","139843245","4.0.10.0","1","5","end_of_study_questions_ufirst","self_exclusion_1","0","0","0","0","0","0","Yes, use my data","1","6220","0"
"071618","15:33:14","207619203","139843245","4.0.10.0","1","5","end_of_study_questions_ufirst","self_exclusion_1other","0","0","0","0","0","0","","1","6220","0"
"071618","09:33:40","918233661","239892503","4.0.10.0","1","1","end_of_study_questions_ufirst","awareness","0","0","0","0","0","0","all","1","17995","0"
"071618","09:33:40","918233661","239892503","4.0.10.0","1","2","end_of_study_questions_ufirst","influence_general","0","0","0","0","0","0","all","1","3747","0"
"071618","09:33:40","918233661","239892503","4.0.10.0","1","3","end_of_study_questions_ufirst","unintentionality","0","0","0","0","0","0","all","1","11510","0"
"071618","09:33:40","918233661","239892503","4.0.10.0","1","4","end_of_study_questions_ufirst","intentionality","0","0","0","0","0","0","all","1","4623","0"
"071618","09:33:40","918233661","239892503","4.0.10.0","1","5","end_of_study_questions_ufirst","self_exclusion_1","0","0","0","0","0","0","Yes, use my data","1","13967","0"
"071618","09:33:40","918233661","239892503","4.0.10.0","1","5","end_of_study_questions_ufirst","self_exclusion_1other","0","0","0","0","0","0","","1","13967","0"
"071618","08:33:35","323199007","644857832","4.0.10.0","1","1","end_of_study_questions_ifirst","awareness","0","0","0","0","0","0","all","1","14933","0"
"071618","08:33:35","323199007","644857832","4.0.10.0","1","2","end_of_study_questions_ifirst","influence_general","0","0","0","0","0","0","less than half","1","15711","0"
"071618","08:33:35","323199007","644857832","4.0.10.0","1","3","end_of_study_questions_ifirst","intentionality","0","0","0","0","0","0","a few","1","12593","0"
"071618","08:33:35","323199007","644857832","4.0.10.0","1","4","end_of_study_questions_ifirst","unintentionality","0","0","0","0","0","0","about half","1","11005","0"
"071618","08:33:35","323199007","644857832","4.0.10.0","1","5","end_of_study_questions_ifirst","self_exclusion_1","0","0","0","0","0","0","Yes, use my data","1","15329","0"
"071618","08:33:35","323199007","644857832","4.0.10.0","1","5","end_of_study_questions_ifirst","self_exclusion_1other","0","0","0","0","0","0","","1","15329","0"
"071618","10:34:49","12863378","11515328","4.0.10.0","1","1","end_of_study_questions_ifirst","awareness","0","0","0","0","0","0","all","1","19291","0"
"071618","10:34:49","12863378","11515328","4.0.10.0","1","2","end_of_study_questions_ifirst","influence_general","0","0","0","0","0","0","a few","1","6282","0"
"071618","10:34:49","12863378","11515328","4.0.10.0","1","3","end_of_study_questions_ifirst","intentionality","0","0","0","0","0","0","none","1","8346","0"
"071618","10:34:49","12863378","11515328","4.0.10.0","1","4","end_of_study_questions_ifirst","unintentionality","0","0","0","0","0","0","a few","1","7280","0"
"071618","10:34:49","12863378","11515328","4.0.10.0","1","5","end_of_study_questions_ifirst","self_exclusion_1","0","0","0","0","0","0","Yes, use my data","1","9303","0"
"071618","10:34:49","12863378","11515328","4.0.10.0","1","5","end_of_study_questions_ifirst","self_exclusion_1other","0","0","0","0","0","0","","1","9303","0"
"071618","10:34:35","470006353","859270916","4.0.10.0","1","1","end_of_study_questions_ifirst","awareness","0","0","0","0","0","0","most","1","10817","0"
"071618","10:34:35","470006353","859270916","4.0.10.0","1","2","end_of_study_questions_ifirst","influence_general","0","0","0","0","0","0","about half","1","4438","0"
"071618","10:34:35","470006353","859270916","4.0.10.0","1","3","end_of_study_questions_ifirst","intentionality","0","0","0","0","0","0","a few","1","4970","0"
"071618","10:34:35","470006353","859270916","4.0.10.0","1","4","end_of_study_questions_ifirst","unintentionality","0","0","0","0","0","0","most","1","4240","0"
"071618","10:34:35","470006353","859270916","4.0.10.0","1","5","end_of_study_questions_ifirst","self_exclusion_1","0","0","0","0","0","0","Yes, use my data","1","3011","0"
"071618","10:34:35","470006353","859270916","4.0.10.0","1","5","end_of_study_questions_ifirst","self_exclusion_1other","0","0","0","0","0","0","","1","3011","0"
"071618","10:36:35","480375427","431792373","4.0.10.0","1","1","end_of_study_questions_ufirst","awareness","0","0","0","0","0","0","none","1","16379","0"
"071618","10:36:35","480375427","431792373","4.0.10.0","1","2","end_of_study_questions_ufirst","influence_general","0","0","0","0","0","0","most","1","7839","0"
"071618","10:36:35","480375427","431792373","4.0.10.0","1","3","end_of_study_questions_ufirst","unintentionality","0","0","0","0","0","0","most","1","10638","0"
"071618","10:36:35","480375427","431792373","4.0.10.0","1","4","end_of_study_questions_ufirst","intentionality","0","0","0","0","0","0","most","1","6658","0"
"071618","10:36:35","480375427","431792373","4.0.10.0","1","5","end_of_study_questions_ufirst","self_exclusion_1","0","0","0","0","0","0","Yes, use my data","1","3649","0"
"071618","10:36:35","480375427","431792373","4.0.10.0","1","5","end_of_study_questions_ufirst","self_exclusion_1other","0","0","0","0","0","0","","1","3649","0"
"071618","15:37:04","391632747","323856783","4.0.10.0","1","1","end_of_study_questions_ufirst","awareness","0","0","0","0","0","0","all","1","13355","0"
"071618","15:37:04","391632747","323856783","4.0.10.0","1","2","end_of_study_questions_ufirst","influence_general","0","0","0","0","0","0","more than half","1","6665","0"
"071618","15:37:04","391632747","323856783","4.0.10.0","1","3","end_of_study_questions_ufirst","unintentionality","0","0","0","0","0","0","less than half","1","6549","0"
"071618","15:37:04","391632747","323856783","4.0.10.0","1","4","end_of_study_questions_ufirst","intentionality","0","0","0","0","0","0","less than half","1","5097","0"
"071618","15:37:04","391632747","323856783","4.0.10.0","1","5","end_of_study_questions_ufirst","self_exclusion_1","0","0","0","0","0","0","Yes, use my data","1","8201","0"
"071618","15:37:04","391632747","323856783","4.0.10.0","1","5","end_of_study_questions_ufirst","self_exclusion_1other","0","0","0","0","0","0","","1","8201","0"
"071618","15:36:56","320304737","689198556","4.0.10.0","1","1","end_of_study_questions_ifirst","awareness","0","0","0","0","0","0","about half","1","12609","0"
"071618","15:36:56","320304737","689198556","4.0.10.0","1","2","end_of_study_questions_ifirst","influence_general","0","0","0","0","0","0","most","1","7601","0"
"071618","15:36:56","320304737","689198556","4.0.10.0","1","3","end_of_study_questions_ifirst","intentionality","0","0","0","0","0","0","about half","1","11322","0"
"071618","15:36:56","320304737","689198556","4.0.10.0","1","4","end_of_study_questions_ifirst","unintentionality","0","0","0","0","0","0","about half","1","18066","0"
"071618","15:36:56","320304737","689198556","4.0.10.0","1","5","end_of_study_questions_ifirst","self_exclusion_1","0","0","0","0","0","0","Yes, use my data","1","12815","0"
"071618","15:36:56","320304737","689198556","4.0.10.0","1","5","end_of_study_questions_ifirst","self_exclusion_1other","0","0","0","0","0","0","","1","12815","0"
"071618","15:39:00","878700153","395053396","4.0.10.0","1","1","end_of_study_questions_ifirst","awareness","0","0","0","0","0","0","more than half","1","9311","0"
"071618","15:39:00","878700153","395053396","4.0.10.0","1","2","end_of_study_questions_ifirst","influence_general","0","0","0","0","0","0","more than half","1","5568","0"
"071618","15:39:00","878700153","395053396","4.0.10.0","1","3","end_of_study_questions_ifirst","intentionality","0","0","0","0","0","0","about half","1","6526","0"
"071618","15:39:00","878700153","395053396","4.0.10.0","1","4","end_of_study_questions_ifirst","unintentionality","0","0","0","0","0","0","most","1","6624","0"
"071618","15:39:00","878700153","395053396","4.0.10.0","1","5","end_of_study_questions_ifirst","self_exclusion_1","0","0","0","0","0","0","Yes, use my data","1","8822","0"
"071618","15:39:00","878700153","395053396","4.0.10.0","1","5","end_of_study_questions_ifirst","self_exclusion_1other","0","0","0","0","0","0","","1","8822","0"
"071618","10:42:31","403268396","648546876","4.0.10.0","1","1","end_of_study_questions_ifirst","awareness","0","0","0","0","0","0","all","1","15701","0"
"071618","10:42:31","403268396","648546876","4.0.10.0","1","2","end_of_study_questions_ifirst","influence_general","0","0","0","0","0","0","a few","1","6028","0"
"071618","10:42:31","403268396","648546876","4.0.10.0","1","3","end_of_study_questions_ifirst","intentionality","0","0","0","0","0","0","none","1","5847","0"
"071618","10:42:31","403268396","648546876","4.0.10.0","1","4","end_of_study_questions_ifirst","unintentionality","0","0","0","0","0","0","a few","1","7434","0"
"071618","10:42:31","403268396","648546876","4.0.10.0","1","5","end_of_study_questions_ifirst","self_exclusion_1","0","0","0","0","0","0","Yes, use my data","1","6947","0"
"071618","10:42:31","403268396","648546876","4.0.10.0","1","5","end_of_study_questions_ifirst","self_exclusion_1other","0","0","0","0","0","0","","1","6947","0"
"071618","15:44:41","598020153","353533557","4.0.10.0","1","1","end_of_study_questions_ufirst","awareness","0","0","0","0","0","0","all","1","15200","0"
"071618","15:44:41","598020153","353533557","4.0.10.0","1","2","end_of_study_questions_ufirst","influence_general","0","0","0","0","0","0","none","1","12101","0"
"071618","15:44:41","598020153","353533557","4.0.10.0","1","3","end_of_study_questions_ufirst","unintentionality","0","0","0","0","0","0","none","1","5875","0"
"071618","15:44:41","598020153","353533557","4.0.10.0","1","4","end_of_study_questions_ufirst","intentionality","0","0","0","0","0","0","none","1","5556","0"
"071618","15:44:41","598020153","353533557","4.0.10.0","1","5","end_of_study_questions_ufirst","self_exclusion_1","0","0","0","0","0","0","Yes, use my data","1","6994","0"
"071618","15:44:41","598020153","353533557","4.0.10.0","1","5","end_of_study_questions_ufirst","self_exclusion_1other","0","0","0","0","0","0","","1","6994","0"
"071618","15:45:17","694430924","601113332","4.0.10.0","1","1","end_of_study_questions_ifirst","awareness","0","0","0","0","0","0","all","1","13999","0"
"071618","15:45:17","694430924","601113332","4.0.10.0","1","2","end_of_study_questions_ifirst","influence_general","0","0","0","0","0","0","none","1","7241","0"
"071618","15:45:17","694430924","601113332","4.0.10.0","1","3","end_of_study_questions_ifirst","intentionality","0","0","0","0","0","0","none","1","7267","0"
"071618","15:45:17","694430924","601113332","4.0.10.0","1","4","end_of_study_questions_ifirst","unintentionality","0","0","0","0","0","0","none","1","4120","0"
"071618","15:45:17","694430924","601113332","4.0.10.0","1","5","end_of_study_questions_ifirst","self_exclusion_1","0","0","0","0","0","0","Yes, use my data","1","2895","0"
"071618","15:45:17","694430924","601113332","4.0.10.0","1","5","end_of_study_questions_ifirst","self_exclusion_1other","0","0","0","0","0","0","","1","2895","0"
"071618","15:45:19","956514666","864076786","4.0.10.0","1","1","end_of_study_questions_ifirst","awareness","0","0","0","0","0","0","most","1","17306","0"
"071618","15:45:19","956514666","864076786","4.0.10.0","1","2","end_of_study_questions_ifirst","influence_general","0","0","0","0","0","0","most","1","5537","0"
"071618","15:45:19","956514666","864076786","4.0.10.0","1","3","end_of_study_questions_ifirst","intentionality","0","0","0","0","0","0","more than half","1","7628","0"
"071618","15:45:19","956514666","864076786","4.0.10.0","1","4","end_of_study_questions_ifirst","unintentionality","0","0","0","0","0","0","about half","1","6481","0"
"071618","15:45:19","956514666","864076786","4.0.10.0","1","5","end_of_study_questions_ifirst","self_exclusion_1","0","0","0","0","0","0","Yes, use my data","1","4614","0"
"071618","15:45:19","956514666","864076786","4.0.10.0","1","5","end_of_study_questions_ifirst","self_exclusion_1other","0","0","0","0","0","0","","1","4614","0"
"071618","15:45:07","5407592","302702628","4.0.10.0","1","1","end_of_study_questions_ifirst","awareness","0","0","0","0","0","0","about half","1","21170","0"
"071618","15:45:07","5407592","302702628","4.0.10.0","1","2","end_of_study_questions_ifirst","influence_general","0","0","0","0","0","0","about half","1","6364","0"
"071618","15:45:07","5407592","302702628","4.0.10.0","1","3","end_of_study_questions_ifirst","intentionality","0","0","0","0","0","0","a few","1","17292","0"
"071618","15:45:07","5407592","302702628","4.0.10.0","1","4","end_of_study_questions_ifirst","unintentionality","0","0","0","0","0","0","about half","1","5832","0"
"071618","15:45:07","5407592","302702628","4.0.10.0","1","5","end_of_study_questions_ifirst","self_exclusion_1","0","0","0","0","0","0","Yes, use my data","1","3348","0"
"071618","15:45:07","5407592","302702628","4.0.10.0","1","5","end_of_study_questions_ifirst","self_exclusion_1other","0","0","0","0","0","0","","1","3348","0"
"071618","15:45:09","354307755","824618497","4.0.10.0","1","1","end_of_study_questions_ufirst","awareness","0","0","0","0","0","0","all","1","28382","0"
"071618","15:45:09","354307755","824618497","4.0.10.0","1","2","end_of_study_questions_ufirst","influence_general","0","0","0","0","0","0","all","1","14478","0"
"071618","15:45:09","354307755","824618497","4.0.10.0","1","3","end_of_study_questions_ufirst","unintentionality","0","0","0","0","0","0","about half","1","23766","0"
"071618","15:45:09","354307755","824618497","4.0.10.0","1","4","end_of_study_questions_ufirst","intentionality","0","0","0","0","0","0","most","1","20881","0"
"071618","15:45:09","354307755","824618497","4.0.10.0","1","5","end_of_study_questions_ufirst","self_exclusion_1","0","0","0","0","0","0","Yes, use my data","1","24035","0"
"071618","15:45:09","354307755","824618497","4.0.10.0","1","5","end_of_study_questions_ufirst","self_exclusion_1other","0","0","0","0","0","0","","1","24035","0"
"071718","00:47:01","571123800","427174423","4.0.10.0","1","1","end_of_study_questions_ufirst","awareness","0","0","0","0","0","0","all","1","12456","0"
"071718","00:47:01","571123800","427174423","4.0.10.0","1","2","end_of_study_questions_ufirst","influence_general","0","0","0","0","0","0","none","1","4924","0"
"071718","00:47:01","571123800","427174423","4.0.10.0","1","3","end_of_study_questions_ufirst","unintentionality","0","0","0","0","0","0","all","1","7853","0"
"071718","00:47:01","571123800","427174423","4.0.10.0","1","4","end_of_study_questions_ufirst","intentionality","0","0","0","0","0","0","all","1","7897","0"
"071718","00:47:01","571123800","427174423","4.0.10.0","1","5","end_of_study_questions_ufirst","self_exclusion_1","0","0","0","0","0","0","No, exclude my data (please specify why):","1","21699","0"
"071718","00:47:01","571123800","427174423","4.0.10.0","1","5","end_of_study_questions_ufirst","self_exclusion_1other","0","0","0","0","0","0","second part of the trial did not work","1","21699","0"
"071618","10:47:25","223748906","912834396","4.0.10.0","1","1","end_of_study_questions_ifirst","awareness","0","0","0","0","0","0","all","1","17548","0"
"071618","10:47:25","223748906","912834396","4.0.10.0","1","2","end_of_study_questions_ifirst","influence_general","0","0","0","0","0","0","a few","1","11731","0"
"071618","10:47:25","223748906","912834396","4.0.10.0","1","3","end_of_study_questions_ifirst","intentionality","0","0","0","0","0","0","a few","1","8429","0"
"071618","10:47:25","223748906","912834396","4.0.10.0","1","4","end_of_study_questions_ifirst","unintentionality","0","0","0","0","0","0","about half","1","13660","0"
"071618","10:47:25","223748906","912834396","4.0.10.0","1","5","end_of_study_questions_ifirst","self_exclusion_1","0","0","0","0","0","0","Yes, use my data","1","8849","0"
"071618","10:47:25","223748906","912834396","4.0.10.0","1","5","end_of_study_questions_ifirst","self_exclusion_1other","0","0","0","0","0","0","","1","8849","0"
"071618","15:49:07","625702880","924175746","4.0.10.0","1","1","end_of_study_questions_ifirst","awareness","0","0","0","0","0","0","all","1","12158","0"
"071618","15:49:07","625702880","924175746","4.0.10.0","1","2","end_of_study_questions_ifirst","influence_general","0","0","0","0","0","0","none","1","8599","0"
"071618","15:49:07","625702880","924175746","4.0.10.0","1","3","end_of_study_questions_ifirst","intentionality","0","0","0","0","0","0","all","1","5446","0"
"071618","15:49:07","625702880","924175746","4.0.10.0","1","4","end_of_study_questions_ifirst","unintentionality","0","0","0","0","0","0","a few","1","7442","0"
"071618","15:49:07","625702880","924175746","4.0.10.0","1","5","end_of_study_questions_ifirst","self_exclusion_1","0","0","0","0","0","0","Yes, use my data","1","5775","0"
"071618","15:49:07","625702880","924175746","4.0.10.0","1","5","end_of_study_questions_ifirst","self_exclusion_1other","0","0","0","0","0","0","","1","5775","0"
"071618","10:48:12","870732732","97904951","4.0.10.0","1","1","end_of_study_questions_ufirst","awareness","0","0","0","0","0","0","all","1","6745","0"
"071618","10:48:12","870732732","97904951","4.0.10.0","1","2","end_of_study_questions_ufirst","influence_general","0","0","0","0","0","0","most","1","5724","0"
"071618","10:48:12","870732732","97904951","4.0.10.0","1","3","end_of_study_questions_ufirst","unintentionality","0","0","0","0","0","0","about half","1","11553","0"
"071618","10:48:12","870732732","97904951","4.0.10.0","1","4","end_of_study_questions_ufirst","intentionality","0","0","0","0","0","0","about half","1","12682","0"
"071618","10:48:12","870732732","97904951","4.0.10.0","1","5","end_of_study_questions_ufirst","self_exclusion_1","0","0","0","0","0","0","Yes, use my data","1","4619","0"
"071618","10:48:12","870732732","97904951","4.0.10.0","1","5","end_of_study_questions_ufirst","self_exclusion_1other","0","0","0","0","0","0","","1","4619","0"
"071618","15:48:47","737698530","984361772","4.0.10.0","1","1","end_of_study_questions_ifirst","awareness","0","0","0","0","0","0","more than half","1","14811","0"
"071618","15:48:47","737698530","984361772","4.0.10.0","1","2","end_of_study_questions_ifirst","influence_general","0","0","0","0","0","0","most","1","3755","0"
"071618","15:48:47","737698530","984361772","4.0.10.0","1","3","end_of_study_questions_ifirst","intentionality","0","0","0","0","0","0","most","1","3290","0"
"071618","15:48:47","737698530","984361772","4.0.10.0","1","4","end_of_study_questions_ifirst","unintentionality","0","0","0","0","0","0","most","1","2338","0"
"071618","15:48:47","737698530","984361772","4.0.10.0","1","5","end_of_study_questions_ifirst","self_exclusion_1","0","0","0","0","0","0","Yes, use my data","1","3271","0"
"071618","15:48:47","737698530","984361772","4.0.10.0","1","5","end_of_study_questions_ifirst","self_exclusion_1other","0","0","0","0","0","0","","1","3271","0"
"071618","10:49:30","722748833","778083163","4.0.10.0","1","1","end_of_study_questions_ufirst","awareness","0","0","0","0","0","0","all","1","6637","0"
"071618","10:49:30","722748833","778083163","4.0.10.0","1","2","end_of_study_questions_ufirst","influence_general","0","0","0","0","0","0","less than half","1","6924","0"
"071618","10:49:30","722748833","778083163","4.0.10.0","1","3","end_of_study_questions_ufirst","unintentionality","0","0","0","0","0","0","about half","1","6414","0"
"071618","10:49:30","722748833","778083163","4.0.10.0","1","4","end_of_study_questions_ufirst","intentionality","0","0","0","0","0","0","none","1","6461","0"
"071618","10:49:30","722748833","778083163","4.0.10.0","1","5","end_of_study_questions_ufirst","self_exclusion_1","0","0","0","0","0","0","Yes, use my data","1","3618","0"
"071618","10:49:30","722748833","778083163","4.0.10.0","1","5","end_of_study_questions_ufirst","self_exclusion_1other","0","0","0","0","0","0","","1","3618","0"
"071618","15:49:25","759096912","691114029","4.0.10.0","1","1","end_of_study_questions_ufirst","awareness","0","0","0","0","0","0","all","1","13903","0"
"071618","15:49:25","759096912","691114029","4.0.10.0","1","2","end_of_study_questions_ufirst","influence_general","0","0","0","0","0","0","most","1","6701","0"
"071618","15:49:25","759096912","691114029","4.0.10.0","1","3","end_of_study_questions_ufirst","unintentionality","0","0","0","0","0","0","about half","1","5638","0"
"071618","15:49:25","759096912","691114029","4.0.10.0","1","4","end_of_study_questions_ufirst","intentionality","0","0","0","0","0","0","about half","1","6860","0"
"071618","15:49:25","759096912","691114029","4.0.10.0","1","5","end_of_study_questions_ufirst","self_exclusion_1","0","0","0","0","0","0","Yes, use my data","1","8559","0"
"071618","15:49:25","759096912","691114029","4.0.10.0","1","5","end_of_study_questions_ufirst","self_exclusion_1other","0","0","0","0","0","0","","1","8559","0"
"071618","12:19:27","704208922","388421664","4.0.10.0","1","1","end_of_study_questions_ifirst","awareness","0","0","0","0","0","0","all","1","19520","0"
"071618","12:19:27","704208922","388421664","4.0.10.0","1","2","end_of_study_questions_ifirst","influence_general","0","0","0","0","0","0","less than half","1","9020","0"
"071618","12:19:27","704208922","388421664","4.0.10.0","1","3","end_of_study_questions_ifirst","intentionality","0","0","0","0","0","0","a few","1","8875","0"
"071618","12:19:27","704208922","388421664","4.0.10.0","1","4","end_of_study_questions_ifirst","unintentionality","0","0","0","0","0","0","a few","1","8032","0"
"071618","12:19:27","704208922","388421664","4.0.10.0","1","5","end_of_study_questions_ifirst","self_exclusion_1","0","0","0","0","0","0","Yes, use my data","1","13762","0"
"071618","12:19:27","704208922","388421664","4.0.10.0","1","5","end_of_study_questions_ifirst","self_exclusion_1other","0","0","0","0","0","0","","1","13762","0"
"071618","15:49:48","600937579","893359853","4.0.10.0","1","1","end_of_study_questions_ufirst","awareness","0","0","0","0","0","0","all","1","16198","0"
"071618","15:49:48","600937579","893359853","4.0.10.0","1","2","end_of_study_questions_ufirst","influence_general","0","0","0","0","0","0","none","1","9362","0"
"071618","15:49:48","600937579","893359853","4.0.10.0","1","3","end_of_study_questions_ufirst","unintentionality","0","0","0","0","0","0","a few","1","6439","0"
"071618","15:49:48","600937579","893359853","4.0.10.0","1","4","end_of_study_questions_ufirst","intentionality","0","0","0","0","0","0","none","1","7648","0"
"071618","15:49:48","600937579","893359853","4.0.10.0","1","5","end_of_study_questions_ufirst","self_exclusion_1","0","0","0","0","0","0","Yes, use my data","1","4514","0"
"071618","15:49:48","600937579","893359853","4.0.10.0","1","5","end_of_study_questions_ufirst","self_exclusion_1other","0","0","0","0","0","0","","1","4514","0"
"071618","07:48:56","561922949","688557942","4.0.10.0","1","1","end_of_study_questions_ifirst","awareness","0","0","0","0","0","0","all","1","17839","0"
"071618","07:48:56","561922949","688557942","4.0.10.0","1","2","end_of_study_questions_ifirst","influence_general","0","0","0","0","0","0","less than half","1","38101","0"
"071618","07:48:56","561922949","688557942","4.0.10.0","1","3","end_of_study_questions_ifirst","intentionality","0","0","0","0","0","0","a few","1","12744","0"
"071618","07:48:56","561922949","688557942","4.0.10.0","1","4","end_of_study_questions_ifirst","unintentionality","0","0","0","0","0","0","a few","1","11106","0"
"071618","07:48:56","561922949","688557942","4.0.10.0","1","5","end_of_study_questions_ifirst","self_exclusion_1","0","0","0","0","0","0","Yes, use my data","1","19682","0"
"071618","07:48:56","561922949","688557942","4.0.10.0","1","5","end_of_study_questions_ifirst","self_exclusion_1other","0","0","0","0","0","0","","1","19682","0"
"071618","15:48:31","494909145","446624219","4.0.10.0","1","1","end_of_study_questions_ufirst","awareness","0","0","0","0","0","0","all","1","64114","0"
"071618","15:48:31","494909145","446624219","4.0.10.0","1","2","end_of_study_questions_ufirst","influence_general","0","0","0","0","0","0","most","1","11180","0"
"071618","15:48:31","494909145","446624219","4.0.10.0","1","3","end_of_study_questions_ufirst","unintentionality","0","0","0","0","0","0","most","1","12267","0"
"071618","15:48:31","494909145","446624219","4.0.10.0","1","4","end_of_study_questions_ufirst","intentionality","0","0","0","0","0","0","more than half","1","10070","0"
"071618","15:48:31","494909145","446624219","4.0.10.0","1","5","end_of_study_questions_ufirst","self_exclusion_1","0","0","0","0","0","0","Yes, use my data","1","30433","0"
"071618","15:48:31","494909145","446624219","4.0.10.0","1","5","end_of_study_questions_ufirst","self_exclusion_1other","0","0","0","0","0","0","","1","30433","0"
"071618","09:50:41","47856922","494116681","4.0.10.0","1","1","end_of_study_questions_ufirst","awareness","0","0","0","0","0","0","all","1","13618","0"
"071618","09:50:41","47856922","494116681","4.0.10.0","1","2","end_of_study_questions_ufirst","influence_general","0","0","0","0","0","0","none","1","5073","0"
"071618","09:50:41","47856922","494116681","4.0.10.0","1","3","end_of_study_questions_ufirst","unintentionality","0","0","0","0","0","0","a few","1","6223","0"
"071618","09:50:41","47856922","494116681","4.0.10.0","1","4","end_of_study_questions_ufirst","intentionality","0","0","0","0","0","0","none","1","3894","0"
"071618","09:50:41","47856922","494116681","4.0.10.0","1","5","end_of_study_questions_ufirst","self_exclusion_1","0","0","0","0","0","0","Yes, use my data","1","4330","0"
"071618","09:50:41","47856922","494116681","4.0.10.0","1","5","end_of_study_questions_ufirst","self_exclusion_1other","0","0","0","0","0","0","","1","4330","0"
"071618","15:50:44","556861536","27172297","4.0.10.0","1","1","end_of_study_questions_ufirst","awareness","0","0","0","0","0","0","all","1","12219","0"
"071618","15:50:44","556861536","27172297","4.0.10.0","1","2","end_of_study_questions_ufirst","influence_general","0","0","0","0","0","0","most","1","10675","0"
"071618","15:50:44","556861536","27172297","4.0.10.0","1","3","end_of_study_questions_ufirst","unintentionality","0","0","0","0","0","0","most","1","10946","0"
"071618","15:50:44","556861536","27172297","4.0.10.0","1","4","end_of_study_questions_ufirst","intentionality","0","0","0","0","0","0","most","1","13356","0"
"071618","15:50:44","556861536","27172297","4.0.10.0","1","5","end_of_study_questions_ufirst","self_exclusion_1","0","0","0","0","0","0","Yes, use my data","1","4744","0"
"071618","15:50:44","556861536","27172297","4.0.10.0","1","5","end_of_study_questions_ufirst","self_exclusion_1other","0","0","0","0","0","0","","1","4744","0"
"071618","10:51:26","754044232","370651236","4.0.10.0","1","1","end_of_study_questions_ifirst","awareness","0","0","0","0","0","0","all","1","14371","0"
"071618","10:51:26","754044232","370651236","4.0.10.0","1","2","end_of_study_questions_ifirst","influence_general","0","0","0","0","0","0","all","1","6021","0"
"071618","10:51:26","754044232","370651236","4.0.10.0","1","3","end_of_study_questions_ifirst","intentionality","0","0","0","0","0","0","more than half","1","7585","0"
"071618","10:51:26","754044232","370651236","4.0.10.0","1","4","end_of_study_questions_ifirst","unintentionality","0","0","0","0","0","0","all","1","6797","0"
