date,time,subject,blockcode,blocknum,trialcode,trialnum,values.primestim,values.targetstim,correct,latency,trial.prime_positive.totalpercentcorrect,trial.prime_negative.totalpercentcorrect
121418,15:11:00,239168551,practice,1,prime_negative_practice,4,0,0,0,848,0,0
121418,15:11:00,239168551,practice,1,prime_positive_practice,5,0,0,0,862,0,0
121418,15:11:00,239168551,practice,1,prime_positive_practice,6,0,0,1,594,0,0
121418,15:11:00,239168551,practice,1,prime_negative_practice,7,0,0,1,620,0,0
121418,15:11:00,239168551,practice,1,prime_positive_practice,8,0,0,1,631,0,0
121418,15:11:00,239168551,practice,1,prime_positive_practice,9,0,0,1,530,0,0
121418,15:11:00,239168551,practice,1,prime_negative_practice,10,0,0,1,359,0,0
121418,15:11:00,239168551,practice,1,prime_negative_practice,11,0,0,1,1846,0,0
121418,14:36:56,424435398,practice,1,prime_positive_practice,4,0,0,1,3191,0,0
121418,14:36:56,424435398,practice,1,prime_negative_practice,5,0,0,0,2552,0,0
121418,14:36:56,424435398,practice,1,prime_positive_practice,6,0,0,1,1184,0,0
121418,14:36:56,424435398,practice,1,prime_negative_practice,7,0,0,0,1224,0,0
121418,14:36:56,424435398,practice,1,prime_positive_practice,8,0,0,1,905,0,0
121418,14:36:56,424435398,practice,1,prime_negative_practice,9,0,0,0,1145,0,0
121418,14:36:56,424435398,practice,1,prime_negative_practice,10,0,0,0,917,0,0
121418,14:36:56,424435398,practice,1,prime_negative_practice,11,0,0,1,1260,0,0
121418,14:36:56,424435398,practice,1,prime_positive_practice,12,0,0,1,678,0,0
121418,14:36:56,424435398,practice,1,prime_positive_practice,13,0,0,0,687,0,0
121418,14:36:56,424435398,test,2,prime_negative,2,6,51,1,996,0,100
121418,14:36:56,424435398,test,2,prime_positive,3,5,18,0,661,0,100
121418,14:36:56,424435398,test,2,prime_negative,4,10,52,1,791,0,100
121418,14:36:56,424435398,test,2,prime_negative,5,12,44,1,557,0,100
121418,14:36:56,424435398,test,2,prime_negative,6,7,13,1,692,0,100
121418,14:36:56,424435398,test,2,prime_positive,7,8,68,0,822,0,100
121418,14:36:56,424435398,test,2,prime_negative,8,11,37,1,591,0,100
121418,14:36:56,424435398,test,2,prime_positive,9,11,21,0,778,0,100
121418,14:36:56,424435398,test,2,prime_positive,10,7,25,0,664,0,100
121418,14:36:56,424435398,test,2,prime_positive,11,12,40,0,655,0,100
121418,14:36:56,424435398,test,2,prime_positive,12,9,31,1,1968,16,100
121418,14:36:56,424435398,test,2,prime_negative,13,2,27,1,839,16,100
121418,14:36:56,424435398,test,2,prime_negative,14,4,50,1,795,16,100
121418,14:36:56,424435398,test,2,prime_negative,15,10,19,1,557,16,100
121418,14:36:56,424435398,test,2,prime_positive,16,6,54,0,913,14,100
121418,14:36:56,424435398,test,2,prime_positive,17,12,35,1,656,25,100
121418,14:36:56,424435398,test,2,prime_positive,18,8,33,0,755,22,100
121418,14:36:56,424435398,test,2,prime_positive,19,4,70,0,591,20,100
121418,14:36:56,424435398,test,2,prime_negative,20,1,14,0,660,20,88
121418,14:36:56,424435398,test,2,prime_negative,21,2,24,1,549,20,90
121418,14:36:56,424435398,test,2,prime_positive,22,11,45,0,779,18,90
121418,14:36:56,424435398,test,2,prime_negative,23,9,4,1,505,18,90
121418,14:36:56,424435398,test,2,prime_positive,24,9,36,1,510,25,90
121418,14:36:56,424435398,test,2,prime_negative,25,12,32,1,569,25,91
121418,14:36:56,424435398,test,2,prime_negative,26,4,49,0,546,25,84
121418,14:36:56,424435398,test,2,prime_positive,27,5,15,1,470,30,84
121418,14:36:56,424435398,test,2,prime_negative,28,3,47,0,535,30,78
121418,14:36:56,424435398,test,2,prime_positive,29,6,23,0,771,28,78
121418,14:36:56,424435398,test,2,prime_negative,30,5,55,1,524,28,80
121418,14:36:56,424435398,test,2,prime_positive,31,2,30,1,754,33,80
121418,14:36:56,424435398,test,2,prime_positive,32,1,69,1,774,37,80
121418,14:36:56,424435398,test,2,prime_positive,33,7,6,0,706,35,80
121418,14:36:56,424435398,test,2,prime_positive,34,10,9,1,783,38,80
121418,14:36:56,424435398,test,2,prime_negative,35,7,48,1,569,38,81
121418,14:36:56,424435398,test,2,prime_positive,36,3,16,1,621,42,81
121418,14:36:56,424435398,test,2,prime_negative,37,11,26,1,845,42,82
121418,14:36:56,424435398,test,2,prime_negative,38,6,7,0,834,42,77
121418,14:36:56,424435398,test,2,prime_negative,39,8,58,1,588,42,78
121418,14:36:56,424435398,test,2,prime_positive,40,2,2,1,593,45,78
121418,14:36:56,424435398,test,2,prime_negative,41,1,29,1,615,45,80
121418,14:36:56,424435398,test,2,prime_negative,42,2,64,1,841,45,80
121418,14:36:56,424435398,test,2,prime_positive,43,3,12,1,560,47,80
121418,14:36:56,424435398,test,2,prime_positive,44,9,71,0,749,45,80
121418,14:36:56,424435398,test,2,prime_positive,45,11,5,1,536,47,80
121418,14:36:56,424435398,test,2,prime_negative,46,6,28,1,1184,47,81
121418,14:36:56,424435398,test,2,prime_positive,47,4,34,0,664,45,81
121418,14:36:56,424435398,test,2,prime_positive,48,1,43,1,487,48,81
121418,14:36:56,424435398,test,2,prime_negative,49,3,60,1,362,48,82
121418,14:36:56,424435398,test,2,prime_positive,50,12,42,1,934,50,82
121418,14:36:56,424435398,test,2,prime_positive,51,5,72,1,1002,51,82
121418,14:36:56,424435398,test,2,prime_negative,52,10,8,0,603,51,79
121418,14:36:56,424435398,test,2,prime_negative,53,12,46,1,536,51,80
121418,14:36:56,424435398,test,2,prime_positive,54,10,20,0,931,50,80
121418,14:36:56,424435398,test,2,prime_negative,55,11,17,1,781,50,80
121418,14:36:56,424435398,test,2,prime_negative,56,7,63,0,1039,50,77
121418,14:36:56,424435398,test,2,prime_positive,57,6,39,1,1219,51,77
121418,14:36:56,424435398,test,2,prime_positive,58,8,66,0,575,50,77
121418,14:36:56,424435398,test,2,prime_positive,59,7,11,1,358,51,77
121418,14:36:56,424435398,test,2,prime_positive,60,11,1,1,464,53,77
121418,14:36:56,424435398,test,2,prime_negative,61,5,65,1,726,53,78
121418,14:36:56,424435398,test,2,prime_positive,62,3,3,1,816,54,78
121418,14:36:56,424435398,test,2,prime_negative,63,4,41,0,1007,54,75
121418,14:36:56,424435398,test,2,prime_negative,64,8,10,1,488,54,76
121418,14:36:56,424435398,test,2,prime_negative,65,9,57,1,644,54,77
121418,14:36:56,424435398,test,2,prime_negative,66,3,22,1,744,54,78
121418,14:36:56,424435398,test,2,prime_negative,67,11,1,1,659,54,78
121418,14:36:56,424435398,test,2,prime_positive,68,4,20,1,666,55,78
121418,14:36:56,424435398,test,2,prime_positive,69,2,45,0,649,54,78
121418,14:36:56,424435398,test,2,prime_negative,70,4,18,1,580,54,79
121418,14:36:56,424435398,test,2,prime_positive,71,5,23,0,858,52,79
121418,14:36:56,424435398,test,2,prime_negative,72,6,12,0,1014,52,77
121418,14:36:56,424435398,test,2,prime_negative,73,1,52,0,899,52,75
121418,14:38:01,75924109,practice,1,prime_positive_practice,4,0,0,0,3636,0,0
121418,14:38:01,75924109,practice,1,prime_negative_practice,5,0,0,0,2184,0,0
121418,14:38:01,75924109,practice,1,prime_positive_practice,6,0,0,1,1342,0,0
121418,14:38:01,75924109,practice,1,prime_negative_practice,7,0,0,0,1566,0,0
121418,14:38:01,75924109,practice,1,prime_negative_practice,8,0,0,0,1077,0,0
121418,14:38:01,75924109,practice,1,prime_positive_practice,9,0,0,1,544,0,0
121418,14:38:01,75924109,practice,1,prime_positive_practice,10,0,0,1,1736,0,0
121418,14:38:01,75924109,practice,1,prime_negative_practice,11,0,0,0,952,0,0
121418,14:38:01,75924109,practice,1,prime_positive_practice,12,0,0,1,600,0,0
121418,14:38:01,75924109,practice,1,prime_negative_practice,13,0,0,0,1045,0,0
121418,14:38:01,75924109,test,2,prime_negative,2,9,46,0,905,0,0
121418,14:38:01,75924109,test,2,prime_positive,3,12,22,1,626,100,0
121418,14:38:01,75924109,test,2,prime_positive,4,2,41,1,1431,100,0
121418,14:38:01,75924109,test,2,prime_negative,5,7,2,0,812,100,0
121418,14:38:01,75924109,test,2,prime_negative,6,5,67,0,649,100,0
121418,14:38:01,75924109,test,2,prime_negative,7,4,45,1,525,100,25
121418,14:38:01,75924109,test,2,prime_negative,8,1,71,0,614,100,20
121418,14:38:01,75924109,test,2,prime_positive,9,11,40,1,507,100,20
121418,14:38:01,75924109,test,2,prime_negative,10,10,7,0,668,100,16
121418,14:38:01,75924109,test,2,prime_negative,11,3,66,0,423,100,14
121418,14:38:01,75924109,test,2,prime_negative,12,5,31,0,412,100,12
121418,14:38:01,75924109,test,2,prime_positive,13,1,65,1,417,100,12
121418,14:38:01,75924109,test,2,prime_positive,14,5,6,1,734,100,12
121418,14:38:01,75924109,test,2,prime_negative,15,8,8,0,414,100,11
121418,14:38:01,75924109,test,2,prime_positive,16,6,4,1,604,100,11
121418,14:38:01,75924109,test,2,prime_positive,17,10,39,1,473,100,11
121418,14:38:01,75924109,test,2,prime_positive,18,4,24,1,540,100,11
121418,14:38:01,75924109,test,2,prime_negative,19,4,58,0,564,100,10
121418,14:38:01,75924109,test,2,prime_positive,20,3,32,1,331,100,10
121418,14:38:01,75924109,test,2,prime_negative,21,2,48,0,564,100,9
121418,14:38:01,75924109,test,2,prime_negative,22,7,72,0,483,100,8
121418,14:38:01,75924109,test,2,prime_negative,23,10,20,0,509,100,7
121418,14:38:01,75924109,test,2,prime_positive,24,11,35,1,343,100,7
121418,14:38:01,75924109,test,2,prime_negative,25,12,59,0,543,100,7
121418,14:38:01,75924109,test,2,prime_positive,26,2,14,1,367,100,7
121418,14:38:01,75924109,test,2,prime_positive,27,6,33,1,422,100,7
121418,14:38:01,75924109,test,2,prime_positive,28,7,53,1,234,100,7
121418,14:38:01,75924109,test,2,prime_negative,29,1,10,0,534,100,6
121418,14:38:01,75924109,test,2,prime_positive,30,9,62,1,519,100,6
121418,14:38:01,75924109,test,2,prime_positive,31,12,15,1,455,100,6
121418,14:38:01,75924109,test,2,prime_negative,32,6,18,0,643,100,6
121418,14:38:01,75924109,test,2,prime_negative,33,9,61,0,503,100,5
121418,14:38:01,75924109,test,2,prime_negative,34,11,70,1,640,100,11
121418,14:38:01,75924109,test,2,prime_negative,35,3,64,0,492,100,10
121418,14:38:01,75924109,test,2,prime_negative,36,6,28,0,415,100,10
121418,14:38:01,75924109,test,2,prime_positive,37,5,21,1,364,100,10
121418,14:38:01,75924109,test,2,prime_negative,38,3,23,0,1099,100,9
121418,14:38:01,75924109,test,2,prime_positive,39,1,57,1,509,100,9
121418,14:38:01,75924109,test,2,prime_positive,40,8,34,1,542,100,9
121418,14:38:01,75924109,test,2,prime_positive,41,10,68,1,614,100,9
121418,14:38:01,75924109,test,2,prime_positive,42,6,3,1,3388,100,9
121418,14:38:01,75924109,test,2,prime_positive,43,12,55,1,346,100,9
121418,14:38:01,75924109,test,2,prime_positive,44,8,69,1,1562,100,9
121418,14:38:01,75924109,test,2,prime_positive,45,4,11,1,209,100,9
121418,14:38:01,75924109,test,2,prime_negative,46,9,9,0,167,100,9
121418,14:38:01,75924109,test,2,prime_positive,47,3,60,1,229,100,9
121418,14:38:01,75924109,test,2,prime_positive,48,1,52,1,186,100,9
121418,14:38:01,75924109,test,2,prime_negative,49,10,5,0,376,100,8
121418,14:38:01,75924109,test,2,prime_negative,50,5,29,1,335,100,12
121418,14:38:01,75924109,test,2,prime_negative,51,4,37,0,359,100,12
121418,14:38:01,75924109,test,2,prime_positive,52,2,16,1,486,100,12
121418,14:38:01,75924109,test,2,prime_positive,53,9,63,1,1665,100,12
121418,14:38:01,75924109,test,2,prime_negative,54,7,25,0,380,100,11
121418,14:38:01,75924109,test,2,prime_negative,55,1,17,0,171,100,11
121418,14:38:01,75924109,test,2,prime_positive,56,11,50,1,266,100,11
121418,14:38:01,75924109,test,2,prime_negative,57,11,1,1,204,100,14
121418,14:38:01,75924109,test,2,prime_positive,58,7,51,1,258,100,14
121418,14:38:01,75924109,test,2,prime_positive,59,10,38,1,325,100,14
121418,14:38:01,75924109,test,2,prime_negative,60,2,27,0,158,100,13
121418,14:38:01,75924109,test,2,prime_positive,61,5,13,1,397,100,13
121418,14:38:01,75924109,test,2,prime_positive,62,9,12,1,492,100,13
121418,14:38:01,75924109,test,2,prime_negative,63,12,56,1,685,100,16
121418,14:38:01,75924109,test,2,prime_negative,64,8,56,0,248,100,16
121418,14:38:01,75924109,test,2,prime_negative,65,9,69,0,276,100,15
121418,14:38:01,75924109,test,2,prime_positive,66,12,13,1,278,100,15
121418,14:38:01,75924109,test,2,prime_positive,67,2,30,1,201,100,15
121418,14:38:01,75924109,test,2,prime_negative,68,8,26,0,270,100,15
121418,14:38:01,75924109,test,2,prime_positive,69,7,36,1,113,100,15
121418,14:38:01,75924109,test,2,prime_negative,70,12,38,0,314,100,14
121418,14:38:01,75924109,test,2,prime_negative,71,5,42,1,172,100,17
121418,14:38:01,75924109,test,2,prime_negative,72,11,27,0,562,100,16
121418,14:38:01,75924109,test,2,prime_positive,73,1,9,1,322,100,16
121418,14:56:30,746338923,practice,1,prime_positive_practice,4,0,0,1,665,0,0
121418,14:56:30,746338923,practice,1,prime_negative_practice,5,0,0,1,544,0,0
121418,14:56:30,746338923,practice,1,prime_positive_practice,6,0,0,1,538,0,0
121418,14:56:30,746338923,practice,1,prime_positive_practice,7,0,0,1,462,0,0
121418,14:56:30,746338923,practice,1,prime_positive_practice,8,0,0,1,529,0,0
121418,14:56:30,746338923,practice,1,prime_negative_practice,9,0,0,1,491,0,0
121418,14:56:30,746338923,practice,1,prime_positive_practice,10,0,0,1,532,0,0
121418,14:56:30,746338923,practice,1,prime_negative_practice,11,0,0,1,519,0,0
121418,14:56:30,746338923,practice,1,prime_negative_practice,12,0,0,1,1126,0,0
121418,14:56:30,746338923,practice,1,prime_negative_practice,13,0,0,1,752,0,0
121418,14:56:30,746338923,test,2,prime_negative,2,6,25,1,551,0,100
121418,14:56:30,746338923,test,2,prime_negative,3,9,1,1,705,0,100
121418,14:56:30,746338923,test,2,prime_positive,4,1,42,1,617,100,100
121418,14:56:30,746338923,test,2,prime_positive,5,5,18,1,4154,100,100
121418,14:56:30,746338923,test,2,prime_positive,6,10,43,1,873,100,100
121418,14:56:30,746338923,test,2,prime_positive,7,2,22,1,1207,100,100
121418,14:56:30,746338923,test,2,prime_negative,8,3,12,1,892,100,100
121418,14:56:30,746338923,test,2,prime_negative,9,1,38,1,896,100,100
121418,14:56:30,746338923,test,2,prime_positive,10,11,70,1,1570,100,100
121418,14:56:30,746338923,test,2,prime_negative,11,10,69,1,1551,100,100
121418,14:56:30,746338923,test,2,prime_negative,12,11,45,1,1201,100,100
121418,14:56:30,746338923,test,2,prime_negative,13,8,61,1,1277,100,100
121418,14:56:30,746338923,test,2,prime_positive,14,8,60,1,688,100,100
121418,14:56:30,746338923,test,2,prime_negative,15,4,37,1,585,100,100
121418,14:56:30,746338923,test,2,prime_negative,16,1,55,1,741,100,100
121418,14:56:30,746338923,test,2,prime_negative,17,5,9,1,1376,100,100
121418,14:56:30,746338923,test,2,prime_positive,18,3,64,1,1032,100,100
121418,14:56:30,746338923,test,2,prime_negative,19,10,41,1,754,100,100
121418,14:56:30,746338923,test,2,prime_negative,20,6,49,1,762,100,100
121418,14:56:30,746338923,test,2,prime_positive,21,12,5,1,1173,100,100
121418,14:56:30,746338923,test,2,prime_positive,22,3,57,1,688,100,100
121418,14:56:30,746338923,test,2,prime_negative,23,9,29,1,1613,100,100
121418,14:56:30,746338923,test,2,prime_positive,24,4,24,1,1409,100,100
121418,14:56:30,746338923,test,2,prime_positive,25,11,13,1,841,100,100
121418,14:56:30,746338923,test,2,prime_positive,26,5,36,1,1557,100,100
121418,14:56:30,746338923,test,2,prime_negative,27,2,11,1,660,100,100
121418,14:56:30,746338923,test,2,prime_positive,28,8,68,1,3508,100,100
121418,14:56:30,746338923,test,2,prime_negative,29,11,4,1,676,100,100
121418,14:56:30,746338923,test,2,prime_negative,30,7,3,1,869,100,100
121418,14:56:30,746338923,test,2,prime_positive,31,10,56,1,1232,100,100
121418,14:56:30,746338923,test,2,prime_positive,32,2,31,1,527,100,100
121418,14:56:30,746338923,test,2,prime_positive,33,6,30,1,1010,100,100
121418,14:56:30,746338923,test,2,prime_negative,34,3,21,1,1481,100,100
121418,14:56:30,746338923,test,2,prime_positive,35,1,71,1,1621,100,100
121418,14:56:30,746338923,test,2,prime_negative,36,8,52,1,930,100,100
121418,14:56:30,746338923,test,2,prime_negative,37,12,62,1,1231,100,100
121418,14:56:30,746338923,test,2,prime_negative,38,7,40,1,1395,100,100
121418,14:56:30,746338923,test,2,prime_positive,39,7,27,1,1455,100,100
121418,14:56:30,746338923,test,2,prime_negative,40,8,28,1,1406,100,100
121418,14:56:30,746338923,test,2,prime_negative,41,10,8,1,1508,100,100
121418,14:56:30,746338923,test,2,prime_positive,42,9,32,1,1547,100,100
121418,14:56:30,746338923,test,2,prime_negative,43,6,7,1,959,100,100
121418,14:56:30,746338923,test,2,prime_positive,44,2,63,1,685,100,100
121418,14:56:30,746338923,test,2,prime_negative,45,2,23,1,772,100,100
121418,14:56:30,746338923,test,2,prime_positive,46,6,53,1,562,100,100
121418,14:56:30,746338923,test,2,prime_positive,47,4,14,1,594,100,100
121418,14:56:30,746338923,test,2,prime_positive,48,7,47,1,859,100,100
121418,14:56:30,746338923,test,2,prime_positive,49,1,34,1,1042,100,100
121418,14:56:30,746338923,test,2,prime_positive,50,3,67,1,2092,100,100
121418,14:56:30,746338923,test,2,prime_negative,51,1,51,1,939,100,100
121418,14:56:30,746338923,test,2,prime_positive,52,12,15,1,685,100,100
121418,14:56:30,746338923,test,2,prime_negative,53,3,39,1,932,100,100
121418,14:56:30,746338923,test,2,prime_positive,54,8,72,1,672,100,100
121418,14:56:30,746338923,test,2,prime_negative,55,5,6,1,1078,100,100
121418,14:56:30,746338923,test,2,prime_negative,56,12,50,1,1148,100,100
121418,14:56:30,746338923,test,2,prime_positive,57,10,46,1,1405,100,100
121418,14:56:30,746338923,test,2,prime_positive,58,5,44,1,1377,100,100
121418,14:56:30,746338923,test,2,prime_negative,59,4,33,1,1445,100,100
121418,14:56:30,746338923,test,2,prime_negative,60,9,10,1,1781,100,100
121418,14:56:30,746338923,test,2,prime_negative,61,11,65,1,1208,100,100
121418,14:56:30,746338923,test,2,prime_positive,62,11,54,1,1603,100,100
121418,14:56:30,746338923,test,2,prime_positive,63,9,66,1,1627,100,100
121418,14:56:30,746338923,test,2,prime_positive,64,12,43,1,15277,100,100
121418,14:56:30,746338923,test,2,prime_positive,65,10,67,1,1363,100,100
121418,14:56:30,746338923,test,2,prime_positive,66,9,57,1,1268,100,100
121418,14:56:30,746338923,test,2,prime_negative,67,9,7,1,748,100,100
121418,14:56:30,746338923,test,2,prime_negative,68,3,42,1,935,100,100
121418,14:56:30,746338923,test,2,prime_negative,69,5,61,1,824,100,100
121418,14:56:30,746338923,test,2,prime_positive,70,11,13,1,1384,100,100
121418,14:56:30,746338923,test,2,prime_negative,71,12,66,1,754,100,100
121418,14:56:30,746338923,test,2,prime_positive,72,4,68,1,2075,100,100
121418,14:56:30,746338923,test,2,prime_negative,73,10,23,1,1732,100,100
121418,10:06:33,101262426,practice,1,prime_positive_practice,4,0,0,1,1265,0,0
121418,10:06:33,101262426,practice,1,prime_negative_practice,5,0,0,0,649,0,0
121418,10:06:33,101262426,practice,1,prime_positive_practice,6,0,0,1,442,0,0
121418,10:06:33,101262426,practice,1,prime_negative_practice,7,0,0,0,468,0,0
121418,10:06:33,101262426,practice,1,prime_positive_practice,8,0,0,1,413,0,0
121418,10:06:33,101262426,practice,1,prime_positive_practice,9,0,0,1,2411,0,0
121418,10:06:33,101262426,practice,1,prime_negative_practice,10,0,0,0,485,0,0
121418,10:06:33,101262426,practice,1,prime_positive_practice,11,0,0,1,763,0,0
121418,10:06:33,101262426,practice,1,prime_negative_practice,12,0,0,0,637,0,0
121418,10:06:33,101262426,practice,1,prime_negative_practice,13,0,0,1,1325,0,0
121418,10:06:33,101262426,test,2,prime_positive,2,2,32,1,1201,100,0
121418,10:06:33,101262426,test,2,prime_negative,3,7,61,1,1631,100,100
121418,10:06:33,101262426,test,2,prime_negative,4,3,8,0,536,100,50
121418,10:06:33,101262426,test,2,prime_positive,5,3,38,1,643,100,50
121418,10:06:33,101262426,test,2,prime_negative,6,2,6,0,1100,100,33
121418,10:06:33,101262426,test,2,prime_negative,7,11,39,0,1300,100,25
121418,10:06:33,101262426,test,2,prime_negative,8,12,3,0,736,100,20
121418,10:06:33,101262426,test,2,prime_positive,9,7,67,1,867,100,20
121418,10:06:33,101262426,test,2,prime_negative,10,8,20,0,600,100,16
121418,10:06:33,101262426,test,2,prime_negative,11,9,21,1,1848,100,28
121418,10:06:33,101262426,test,2,prime_negative,12,3,65,0,595,100,25
121418,10:06:33,101262426,test,2,prime_positive,13,12,47,1,843,100,25
121418,10:06:33,101262426,test,2,prime_negative,14,9,40,1,789,100,33
121418,10:06:33,101262426,test,2,prime_negative,15,11,62,0,578,100,30
121418,10:06:33,101262426,test,2,prime_positive,16,6,53,1,573,100,30
121418,10:06:33,101262426,test,2,prime_positive,17,5,49,0,1855,83,30
121418,10:06:33,101262426,test,2,prime_negative,18,12,64,1,95,83,36
121418,10:06:33,101262426,test,2,prime_negative,19,4,5,0,432,83,33
121418,10:06:33,101262426,test,2,prime_positive,20,1,43,1,437,85,33
121418,10:06:33,101262426,test,2,prime_negative,21,2,17,0,315,85,30
121418,10:06:33,101262426,test,2,prime_negative,22,10,54,0,530,85,28
121418,10:06:33,101262426,test,2,prime_negative,23,1,16,0,359,85,26
121418,10:06:33,101262426,test,2,prime_negative,24,8,18,0,590,85,25
121418,10:06:33,101262426,test,2,prime_negative,25,5,22,1,1135,85,29
121418,10:06:33,101262426,test,2,prime_positive,26,12,24,0,299,75,29
121418,10:06:33,101262426,test,2,prime_positive,27,9,42,1,257,77,29
121418,10:06:33,101262426,test,2,prime_positive,28,2,50,1,274,80,29
121418,10:06:33,101262426,test,2,prime_positive,29,11,31,1,834,81,29
121418,10:06:33,101262426,test,2,prime_positive,30,3,72,1,995,83,29
121418,10:06:33,101262426,test,2,prime_positive,31,4,23,1,1469,84,29
121418,10:06:33,101262426,test,2,prime_positive,32,8,57,1,585,85,29
121418,10:06:33,101262426,test,2,prime_positive,33,7,55,1,430,86,29
121418,10:06:33,101262426,test,2,prime_negative,34,7,41,0,589,86,27
121418,10:06:33,101262426,test,2,prime_positive,35,5,13,1,1646,87,27
121418,10:06:33,101262426,test,2,prime_negative,36,6,56,0,682,87,26
121418,10:06:33,101262426,test,2,prime_positive,37,10,26,1,804,88,26
121418,10:06:33,101262426,test,2,prime_positive,38,6,1,1,692,88,26
121418,10:06:33,101262426,test,2,prime_negative,39,9,33,1,1327,88,30
121418,10:06:33,101262426,test,2,prime_positive,40,1,9,1,340,89,30
121418,10:06:33,101262426,test,2,prime_negative,41,11,46,0,592,89,28
121418,10:06:33,101262426,test,2,prime_positive,42,9,25,1,337,90,28
121418,10:06:33,101262426,test,2,prime_positive,43,7,15,1,641,90,28
121418,10:06:33,101262426,test,2,prime_negative,44,5,44,1,1911,90,31
121418,10:06:33,101262426,test,2,prime_negative,45,10,58,0,735,90,30
121418,10:06:33,101262426,test,2,prime_positive,46,10,70,1,447,90,30
121418,10:06:33,101262426,test,2,prime_positive,47,3,51,1,520,91,30
121418,10:06:33,101262426,test,2,prime_positive,48,5,12,1,573,91,30
121418,10:06:33,101262426,test,2,prime_negative,49,2,37,0,496,91,29
121418,10:06:33,101262426,test,2,prime_negative,50,3,4,0,447,91,28
121418,10:06:33,101262426,test,2,prime_positive,51,2,52,1,541,92,28
121418,10:06:33,101262426,test,2,prime_negative,52,7,10,0,1283,92,26
121418,10:06:33,101262426,test,2,prime_positive,53,4,30,1,695,92,26
121418,10:06:33,101262426,test,2,prime_positive,54,1,14,1,388,92,26
121418,10:06:33,101262426,test,2,prime_positive,55,11,36,1,842,92,26
121418,10:06:33,101262426,test,2,prime_negative,56,6,68,0,1040,92,25
121418,10:06:33,101262426,test,2,prime_negative,57,8,59,0,526,92,25
121418,10:06:33,101262426,test,2,prime_negative,58,1,2,0,507,92,24
121418,10:06:33,101262426,test,2,prime_negative,59,4,66,0,1321,92,23
121418,10:06:33,101262426,test,2,prime_negative,60,12,45,0,754,92,22
121418,10:06:33,101262426,test,2,prime_positive,61,6,34,1,337,93,22
121418,10:06:33,101262426,test,2,prime_positive,62,12,19,0,641,90,22
121418,10:06:33,101262426,test,2,prime_positive,63,8,11,1,305,90,22
121418,10:06:33,101262426,test,2,prime_positive,64,7,55,1,286,90,22
121418,10:06:33,101262426,test,2,prime_positive,65,2,27,1,380,90,22
121418,10:06:33,101262426,test,2,prime_positive,66,8,47,0,785,88,22
121418,10:06:33,101262426,test,2,prime_positive,67,11,45,1,364,88,22
121418,10:06:33,101262426,test,2,prime_negative,68,11,42,0,420,88,21
121418,10:06:33,101262426,test,2,prime_negative,69,3,39,0,288,88,21
121418,10:06:33,101262426,test,2,prime_negative,70,2,58,1,990,88,23
121418,10:06:33,101262426,test,2,prime_positive,71,4,7,1,326,88,23
121418,10:06:33,101262426,test,2,prime_negative,72,12,61,0,1002,88,22
121418,10:06:33,101262426,test,2,prime_negative,73,5,72,1,440,88,25
121418,15:10:08,948175176,practice,1,prime_negative_practice,4,0,0,0,9632,0,0
121418,15:10:08,948175176,practice,1,prime_positive_practice,5,0,0,0,3064,0,0
121418,15:10:08,948175176,practice,1,prime_negative_practice,6,0,0,1,2368,0,0
121418,15:10:08,948175176,practice,1,prime_negative_practice,7,0,0,1,1630,0,0
121418,15:10:08,948175176,practice,1,prime_negative_practice,8,0,0,1,1384,0,0
121418,15:10:08,948175176,practice,1,prime_negative_practice,9,0,0,1,3267,0,0
121418,15:10:08,948175176,practice,1,prime_positive_practice,10,0,0,1,1112,0,0
121418,15:10:08,948175176,practice,1,prime_positive_practice,11,0,0,1,970,0,0
121418,15:10:08,948175176,practice,1,prime_positive_practice,12,0,0,1,606,0,0
121418,15:10:08,948175176,practice,1,prime_positive_practice,13,0,0,1,642,0,0
121418,15:10:08,948175176,test,2,prime_negative,2,9,66,1,1497,0,100
121418,15:10:08,948175176,test,2,prime_negative,3,10,14,1,497,0,100
121418,15:10:08,948175176,test,2,prime_positive,4,1,19,1,615,100,100
121418,15:10:08,948175176,test,2,prime_positive,5,5,11,1,426,100,100
121418,15:10:08,948175176,test,2,prime_positive,6,4,30,1,551,100,100
121418,15:10:08,948175176,test,2,prime_positive,7,8,20,1,606,100,100
121418,15:10:08,948175176,test,2,prime_negative,8,6,12,1,657,100,100
121418,15:10:08,948175176,test,2,prime_positive,9,9,39,1,768,100,100
121418,15:10:08,948175176,test,2,prime_negative,10,8,38,1,1187,100,100
121418,15:10:08,948175176,test,2,prime_negative,11,12,3,1,1007,100,100
121418,15:10:08,948175176,test,2,prime_positive,12,11,69,1,588,100,100
121418,15:10:08,948175176,test,2,prime_negative,13,2,15,1,536,100,100
121418,15:10:08,948175176,test,2,prime_positive,14,12,25,1,628,100,100
121418,15:10:08,948175176,test,2,prime_negative,15,5,43,0,663,100,85
121418,15:10:08,948175176,test,2,prime_negative,16,7,10,0,603,100,75
121418,15:10:08,948175176,test,2,prime_negative,17,2,53,0,1113,100,66
121418,15:10:08,948175176,test,2,prime_positive,18,6,60,1,988,100,66
121418,15:10:08,948175176,test,2,prime_positive,19,1,44,1,858,100,66
121418,15:10:08,948175176,test,2,prime_negative,20,11,52,1,971,100,70
121418,15:10:08,948175176,test,2,prime_negative,21,4,42,1,583,100,72
121418,15:10:08,948175176,test,2,prime_negative,22,1,13,0,622,100,66
121418,15:10:08,948175176,test,2,prime_negative,23,10,8,1,1049,100,69
121418,15:10:08,948175176,test,2,prime_positive,24,11,23,0,1220,90,69
121418,15:10:08,948175176,test,2,prime_positive,25,8,26,1,857,90,69
121418,15:10:08,948175176,test,2,prime_negative,26,9,31,0,1011,90,64
121418,15:10:08,948175176,test,2,prime_negative,27,5,72,0,674,90,60
121418,15:10:08,948175176,test,2,prime_positive,28,3,2,1,752,91,60
121418,15:10:08,948175176,test,2,prime_negative,29,12,55,0,1081,91,56
121418,15:10:08,948175176,test,2,prime_positive,30,7,22,1,629,92,56
121418,15:10:08,948175176,test,2,prime_negative,31,6,64,0,882,92,52
121418,15:10:08,948175176,test,2,prime_positive,32,10,54,1,634,92,52
121418,15:10:08,948175176,test,2,prime_positive,33,5,24,1,2316,93,52
121418,15:10:08,948175176,test,2,prime_positive,34,12,35,1,619,93,52
121418,15:10:08,948175176,test,2,prime_positive,35,9,18,1,1003,94,52
121418,15:10:08,948175176,test,2,prime_negative,36,3,51,0,557,94,50
121418,15:10:08,948175176,test,2,prime_negative,37,8,1,0,458,94,47
121418,15:10:08,948175176,test,2,prime_negative,38,8,6,0,631,94,45
121418,15:10:08,948175176,test,2,prime_positive,39,4,58,1,639,94,45
121418,15:10:08,948175176,test,2,prime_positive,40,2,37,1,492,94,45
121418,15:10:08,948175176,test,2,prime_negative,41,4,40,1,643,94,47
121418,15:10:08,948175176,test,2,prime_negative,42,7,70,0,688,94,45
121418,15:10:08,948175176,test,2,prime_negative,43,2,16,0,480,94,43
121418,15:10:08,948175176,test,2,prime_positive,44,9,4,1,1719,95,43
121418,15:10:08,948175176,test,2,prime_positive,45,4,33,0,901,90,43
121418,15:10:08,948175176,test,2,prime_positive,46,1,71,1,581,90,43
121418,15:10:08,948175176,test,2,prime_positive,47,5,21,1,776,91,43
121418,15:10:08,948175176,test,2,prime_negative,48,5,49,0,562,91,41
121418,15:10:08,948175176,test,2,prime_positive,49,7,56,1,1461,91,41
121418,15:10:08,948175176,test,2,prime_negative,50,6,46,0,573,91,40
121418,15:10:08,948175176,test,2,prime_positive,51,8,59,1,1410,92,40
121418,15:10:08,948175176,test,2,prime_positive,52,11,62,1,1829,92,40
121418,15:10:08,948175176,test,2,prime_positive,53,6,61,1,574,92,40
121418,15:10:08,948175176,test,2,prime_positive,54,12,41,1,1235,92,40
121418,15:10:08,948175176,test,2,prime_positive,55,2,28,1,669,93,40
121418,15:10:08,948175176,test,2,prime_negative,56,9,5,0,1204,93,38
121418,15:10:08,948175176,test,2,prime_negative,57,10,48,1,927,93,40
121418,15:10:08,948175176,test,2,prime_negative,58,3,27,0,723,93,39
121418,15:10:08,948175176,test,2,prime_positive,59,3,9,0,1280,90,39
121418,15:10:08,948175176,test,2,prime_negative,60,11,57,1,751,90,41
121418,15:10:08,948175176,test,2,prime_positive,61,10,65,1,764,90,41
121418,15:10:08,948175176,test,2,prime_positive,62,9,63,1,705,90,41
121418,15:10:08,948175176,test,2,prime_negative,63,12,50,1,2788,90,43
121418,15:10:08,948175176,test,2,prime_positive,64,5,54,1,935,90,43
121418,15:10:08,948175176,test,2,prime_negative,65,1,18,0,586,90,41
121418,15:10:08,948175176,test,2,prime_positive,66,2,66,1,1246,91,41
121418,15:10:08,948175176,test,2,prime_negative,67,2,56,0,492,91,40
121418,15:10:08,948175176,test,2,prime_negative,68,3,45,0,1244,91,39
121418,15:10:08,948175176,test,2,prime_positive,69,10,63,1,1450,91,39
121418,15:10:08,948175176,test,2,prime_positive,70,7,68,0,1106,88,39
121418,15:10:08,948175176,test,2,prime_negative,71,7,23,0,821,88,38
121418,15:10:08,948175176,test,2,prime_negative,72,11,31,0,1116,88,37
121418,15:10:08,948175176,test,2,prime_negative,73,12,27,0,1116,88,36
121418,15:12:54,262081425,practice,1,prime_negative_practice,4,0,0,1,1876,0,0
121418,15:12:54,262081425,practice,1,prime_negative_practice,5,0,0,1,877,0,0
121418,15:12:54,262081425,practice,1,prime_negative_practice,6,0,0,0,2081,0,0
121418,15:12:54,262081425,practice,1,prime_positive_practice,7,0,0,0,1144,0,0
121418,15:12:54,262081425,practice,1,prime_negative_practice,8,0,0,0,1132,0,0
121418,15:12:54,262081425,practice,1,prime_positive_practice,9,0,0,0,759,0,0
121418,15:12:54,262081425,practice,1,prime_positive_practice,10,0,0,0,643,0,0
121418,15:12:54,262081425,practice,1,prime_negative_practice,11,0,0,0,677,0,0
121418,15:12:54,262081425,practice,1,prime_positive_practice,12,0,0,1,830,0,0
121418,15:12:54,262081425,practice,1,prime_positive_practice,13,0,0,1,819,0,0
121418,15:12:54,262081425,test,2,prime_negative,2,12,69,1,1162,0,100
121418,15:12:54,262081425,test,2,prime_positive,3,6,33,0,1250,0,100
121418,15:12:54,262081425,test,2,prime_positive,4,7,63,0,659,0,100
121418,15:12:54,262081425,test,2,prime_positive,5,3,44,0,704,0,100
121418,15:12:54,262081425,test,2,prime_negative,6,6,51,1,619,0,100
121418,15:12:54,262081425,test,2,prime_negative,7,7,40,1,639,0,100
121418,15:12:54,262081425,test,2,prime_positive,8,4,57,1,699,25,100
121418,15:12:54,262081425,test,2,prime_positive,9,12,43,0,656,20,100
121418,15:12:54,262081425,test,2,prime_positive,10,8,48,0,795,16,100
121418,15:12:54,262081425,test,2,prime_positive,11,10,50,0,732,14,100
121418,15:12:54,262081425,test,2,prime_positive,12,8,64,0,519,12,100
121418,15:12:54,262081425,test,2,prime_positive,13,5,71,1,571,22,100
121418,15:12:54,262081425,test,2,prime_positive,14,4,26,0,467,20,100
121418,15:12:54,262081425,test,2,prime_positive,15,11,23,0,887,18,100
121418,15:12:54,262081425,test,2,prime_negative,16,5,59,0,761,18,75
121418,15:12:54,262081425,test,2,prime_positive,17,6,55,1,663,25,75
121418,15:12:54,262081425,test,2,prime_negative,18,3,29,0,459,25,60
121418,15:12:54,262081425,test,2,prime_negative,19,9,53,0,733,25,50
121418,15:12:54,262081425,test,2,prime_positive,20,3,18,0,805,23,50
121418,15:12:54,262081425,test,2,prime_positive,21,7,66,0,634,21,50
121418,15:12:54,262081425,test,2,prime_negative,22,2,6,0,459,21,42
121418,15:12:54,262081425,test,2,prime_positive,23,9,70,0,647,20,42
121418,15:12:54,262081425,test,2,prime_positive,24,1,32,0,575,18,42
121418,15:12:54,262081425,test,2,prime_positive,25,2,7,0,487,17,42
121418,15:12:54,262081425,test,2,prime_positive,26,10,12,1,577,22,42
121418,15:12:54,262081425,test,2,prime_negative,27,6,68,1,643,22,50
121418,15:12:54,262081425,test,2,prime_positive,28,12,4,0,525,21,50
121418,15:12:54,262081425,test,2,prime_positive,29,7,11,0,557,20,50
121418,15:12:54,262081425,test,2,prime_negative,30,7,3,1,684,20,55
121418,15:12:54,262081425,test,2,prime_negative,31,1,28,0,528,20,50
121418,15:12:54,262081425,test,2,prime_positive,32,10,42,0,765,19,50
121418,15:12:54,262081425,test,2,prime_positive,33,6,39,1,779,22,50
121418,15:12:54,262081425,test,2,prime_positive,34,11,24,1,609,26,50
121418,15:12:54,262081425,test,2,prime_negative,35,5,65,0,517,26,45
121418,15:12:54,262081425,test,2,prime_positive,36,3,17,0,719,25,45
121418,15:12:54,262081425,test,2,prime_negative,37,11,25,0,547,25,41
121418,15:12:54,262081425,test,2,prime_negative,38,12,34,0,615,25,38
121418,15:12:54,262081425,test,2,prime_negative,39,2,46,1,968,25,42
121418,15:12:54,262081425,test,2,prime_positive,40,9,36,0,682,24,42
121418,15:12:54,262081425,test,2,prime_negative,41,10,37,0,672,24,40
121418,15:12:54,262081425,test,2,prime_negative,42,8,41,1,647,24,43
121418,15:12:54,262081425,test,2,prime_negative,43,4,72,1,867,24,47
121418,15:12:54,262081425,test,2,prime_negative,44,9,49,1,852,24,50
121418,15:12:54,262081425,test,2,prime_negative,45,3,13,0,613,24,47
121418,15:12:54,262081425,test,2,prime_positive,46,4,60,0,630,23,47
121418,15:12:54,262081425,test,2,prime_positive,47,1,19,0,441,22,47
121418,15:12:54,262081425,test,2,prime_negative,48,5,38,0,451,22,45
121418,15:12:54,262081425,test,2,prime_negative,49,4,54,0,604,22,42
121418,15:12:54,262081425,test,2,prime_positive,50,5,45,0,517,21,42
121418,15:12:54,262081425,test,2,prime_negative,51,3,62,0,509,21,40
121418,15:12:54,262081425,test,2,prime_positive,52,2,22,0,490,20,40
121418,15:12:54,262081425,test,2,prime_negative,53,1,47,0,617,20,39
121418,15:12:54,262081425,test,2,prime_negative,54,12,21,1,513,20,41
121418,15:12:54,262081425,test,2,prime_negative,55,6,9,0,466,20,40
121418,15:12:54,262081425,test,2,prime_positive,56,8,16,0,780,20,40
121418,15:12:54,262081425,test,2,prime_negative,57,7,2,1,701,20,42
121418,15:12:54,262081425,test,2,prime_positive,58,12,56,0,532,19,42
121418,15:12:54,262081425,test,2,prime_negative,59,10,8,0,535,19,40
121418,15:12:54,262081425,test,2,prime_positive,60,7,20,0,688,18,40
121418,15:12:54,262081425,test,2,prime_negative,61,8,27,0,492,18,39
121418,15:12:54,262081425,test,2,prime_positive,62,5,30,0,448,18,39
121418,15:12:54,262081425,test,2,prime_negative,63,9,61,1,640,18,41
121418,15:12:54,262081425,test,2,prime_negative,64,2,7,0,428,18,40
121418,15:12:54,262081425,test,2,prime_negative,65,11,49,0,545,18,38
121418,15:12:54,262081425,test,2,prime_positive,66,2,20,0,421,17,38
121418,15:12:54,262081425,test,2,prime_positive,67,1,72,0,468,17,38
121418,15:12:54,262081425,test,2,prime_negative,68,9,13,1,653,17,40
121418,15:12:54,262081425,test,2,prime_negative,69,2,12,0,554,17,39
121418,15:12:54,262081425,test,2,prime_negative,70,6,52,1,623,17,41
121418,15:12:54,262081425,test,2,prime_negative,71,1,66,1,651,17,42
121418,15:12:54,262081425,test,2,prime_negative,72,3,58,0,530,17,41
121418,15:12:54,262081425,test,2,prime_positive,73,4,14,0,546,16,41
121418,15:15:41,698612986,practice,1,prime_negative_practice,4,0,0,1,4370,0,0
121418,15:15:41,698612986,practice,1,prime_negative_practice,5,0,0,0,1337,0,0
121418,15:15:41,698612986,practice,1,prime_negative_practice,6,0,0,1,870,0,0
121418,15:15:41,698612986,practice,1,prime_positive_practice,7,0,0,1,1658,0,0
121418,15:15:41,698612986,practice,1,prime_positive_practice,8,0,0,0,921,0,0
121418,15:15:41,698612986,practice,1,prime_positive_practice,9,0,0,0,787,0,0
121418,15:15:41,698612986,practice,1,prime_positive_practice,10,0,0,1,1165,0,0
121418,15:15:41,698612986,practice,1,prime_positive_practice,11,0,0,1,1279,0,0
121418,15:15:41,698612986,practice,1,prime_negative_practice,12,0,0,0,1308,0,0
121418,15:15:41,698612986,practice,1,prime_negative_practice,13,0,0,1,857,0,0
121418,15:15:41,698612986,test,2,prime_negative,2,2,14,0,1045,0,0
121418,15:15:41,698612986,test,2,prime_negative,3,5,51,1,908,0,50
121418,15:15:41,698612986,test,2,prime_positive,4,11,35,1,783,100,50
121418,15:15:41,698612986,test,2,prime_negative,5,3,22,1,1240,100,66
121418,15:15:41,698612986,test,2,prime_positive,6,8,50,0,670,50,66
121418,15:15:41,698612986,test,2,prime_positive,7,10,38,1,1084,66,66
121418,15:15:41,698612986,test,2,prime_positive,8,5,37,0,760,50,66
121418,15:15:41,698612986,test,2,prime_negative,9,10,4,1,881,50,75
121418,15:15:41,698612986,test,2,prime_positive,10,1,12,0,1000,40,75
121418,15:15:41,698612986,test,2,prime_negative,11,4,21,0,822,40,60
121418,15:15:41,698612986,test,2,prime_positive,12,3,57,0,855,33,60
121418,15:15:41,698612986,test,2,prime_negative,13,8,30,1,620,33,66
121418,15:15:41,698612986,test,2,prime_negative,14,6,66,1,650,33,71
121418,15:15:41,698612986,test,2,prime_negative,15,9,23,1,793,33,75
121418,15:15:41,698612986,test,2,prime_negative,16,2,47,0,938,33,66
121418,15:15:41,698612986,test,2,prime_positive,17,12,10,0,1317,28,66
121418,15:15:41,698612986,test,2,prime_positive,18,5,29,1,689,37,66
121418,15:15:41,698612986,test,2,prime_negative,19,6,44,1,896,37,70
121418,15:15:41,698612986,test,2,prime_positive,20,6,71,0,910,33,70
121418,15:15:41,698612986,test,2,prime_positive,21,8,8,0,891,30,70
121418,15:15:41,698612986,test,2,prime_negative,22,5,33,1,969,30,72
121418,15:15:41,698612986,test,2,prime_negative,23,7,58,1,996,30,75
121418,15:15:41,698612986,test,2,prime_positive,24,10,27,1,709,36,75
121418,15:15:41,698612986,test,2,prime_negative,25,10,43,0,587,36,69
121418,15:15:41,698612986,test,2,prime_positive,26,4,19,0,636,33,69
121418,15:15:41,698612986,test,2,prime_negative,27,4,48,1,948,33,71
121418,15:15:41,698612986,test,2,prime_negative,28,3,72,1,680,33,73
121418,15:15:41,698612986,test,2,prime_negative,29,12,2,1,597,33,75
121418,15:15:41,698612986,test,2,prime_positive,30,3,36,1,656,38,75
121418,15:15:41,698612986,test,2,prime_negative,31,1,17,1,583,38,76
121418,15:15:41,698612986,test,2,prime_positive,32,1,11,0,1057,35,76
121418,15:15:41,698612986,test,2,prime_positive,33,7,31,0,512,33,76
121418,15:15:41,698612986,test,2,prime_positive,34,11,45,0,564,31,76
121418,15:15:41,698612986,test,2,prime_positive,35,2,54,0,1223,29,76
121418,15:15:41,698612986,test,2,prime_negative,36,8,49,0,672,29,72
121418,15:15:41,698612986,test,2,prime_positive,37,9,25,1,935,33,72
121418,15:15:41,698612986,test,2,prime_negative,38,11,18,1,858,33,73
121418,15:15:41,698612986,test,2,prime_negative,39,6,9,1,474,33,75
121418,15:15:41,698612986,test,2,prime_negative,40,3,15,0,639,33,71
121418,15:15:41,698612986,test,2,prime_negative,41,1,53,0,880,33,68
121418,15:15:41,698612986,test,2,prime_negative,42,9,26,0,742,33,65
121418,15:15:41,698612986,test,2,prime_positive,43,12,68,1,570,36,65
121418,15:15:41,698612986,test,2,prime_negative,44,10,69,0,741,36,62
121418,15:15:41,698612986,test,2,prime_positive,45,5,13,1,600,40,62
121418,15:15:41,698612986,test,2,prime_positive,46,3,41,0,745,38,62
121418,15:15:41,698612986,test,2,prime_negative,47,5,56,0,597,38,60
121418,15:15:41,698612986,test,2,prime_positive,48,8,59,0,485,36,60
121418,15:15:41,698612986,test,2,prime_negative,49,7,42,0,764,36,57
121418,15:15:41,698612986,test,2,prime_positive,50,6,20,0,960,34,57
121418,15:15:41,698612986,test,2,prime_negative,51,4,34,0,867,34,55
121418,15:15:41,698612986,test,2,prime_positive,52,9,52,0,639,33,55
121418,15:15:41,698612986,test,2,prime_positive,53,1,5,1,624,36,55
121418,15:15:41,698612986,test,2,prime_positive,54,4,63,1,680,38,55
121418,15:15:41,698612986,test,2,prime_negative,55,8,65,0,758,38,53
121418,15:15:41,698612986,test,2,prime_negative,56,11,1,0,617,38,51
121418,15:15:41,698612986,test,2,prime_negative,57,12,32,1,641,38,53
121418,15:15:41,698612986,test,2,prime_negative,58,2,67,1,689,38,54
121418,15:15:41,698612986,test,2,prime_positive,59,7,40,1,719,40,54
121418,15:15:41,698612986,test,2,prime_positive,60,12,61,1,635,42,54
121418,15:15:41,698612986,test,2,prime_negative,61,8,39,1,499,42,56
121418,15:15:41,698612986,test,2,prime_positive,62,10,7,1,792,44,56
121418,15:15:41,698612986,test,2,prime_positive,63,2,70,1,546,46,56
121418,15:15:41,698612986,test,2,prime_positive,64,11,6,1,524,48,56
121418,15:15:41,698612986,test,2,prime_positive,65,3,59,0,657,46,56
121418,15:15:41,698612986,test,2,prime_positive,66,11,18,0,505,45,56
121418,15:15:41,698612986,test,2,prime_negative,67,1,50,0,589,45,54
121418,15:15:41,698612986,test,2,prime_negative,68,5,36,1,609,45,55
121418,15:15:41,698612986,test,2,prime_positive,69,9,5,0,584,44,55
121418,15:15:41,698612986,test,2,prime_negative,70,3,52,0,700,44,54
121418,15:15:41,698612986,test,2,prime_positive,71,8,13,1,558,45,54
121418,15:15:41,698612986,test,2,prime_positive,72,6,26,0,715,44,54
121418,15:15:41,698612986,test,2,prime_negative,73,9,42,0,767,44,52
121418,15:17:16,320805322,practice,1,prime_negative_practice,4,0,0,1,5189,0,0
121418,15:17:16,320805322,practice,1,prime_positive_practice,5,0,0,1,4671,0,0
121418,15:17:16,320805322,practice,1,prime_negative_practice,6,0,0,0,1316,0,0
121418,15:17:16,320805322,practice,1,prime_positive_practice,7,0,0,1,473,0,0
121418,15:17:16,320805322,practice,1,prime_positive_practice,8,0,0,1,2700,0,0
121418,15:17:16,320805322,practice,1,prime_positive_practice,9,0,0,1,748,0,0
121418,15:17:16,320805322,practice,1,prime_positive_practice,10,0,0,1,914,0,0
121418,15:17:16,320805322,practice,1,prime_negative_practice,11,0,0,0,458,0,0
121418,15:17:16,320805322,practice,1,prime_negative_practice,12,0,0,0,648,0,0
121418,15:17:16,320805322,practice,1,prime_negative_practice,13,0,0,0,421,0,0
121418,15:17:16,320805322,test,2,prime_negative,2,3,22,0,643,0,0
121418,15:17:16,320805322,test,2,prime_positive,3,7,5,1,395,100,0
121418,15:17:16,320805322,test,2,prime_negative,4,11,11,0,1070,100,0
121418,15:17:16,320805322,test,2,prime_positive,5,3,34,1,401,100,0
121418,15:17:16,320805322,test,2,prime_negative,6,6,61,0,571,100,0
121418,15:17:16,320805322,test,2,prime_negative,7,8,48,0,517,100,0
121418,15:17:16,320805322,test,2,prime_positive,8,6,37,1,263,100,0
121418,15:17:16,320805322,test,2,prime_negative,9,12,58,0,599,100,0
121418,15:17:16,320805322,test,2,prime_positive,10,1,1,1,465,100,0
121418,15:17:16,320805322,test,2,prime_positive,11,11,6,1,354,100,0
121418,15:17:16,320805322,test,2,prime_positive,12,4,15,0,646,83,0
121418,15:17:16,320805322,test,2,prime_negative,13,7,63,0,685,83,0
121418,15:17:16,320805322,test,2,prime_positive,14,5,53,1,283,85,0
121418,15:17:16,320805322,test,2,prime_negative,15,10,42,0,839,85,0
121418,15:17:16,320805322,test,2,prime_positive,16,6,50,1,432,87,0
121418,15:17:16,320805322,test,2,prime_negative,17,4,38,0,605,87,0
121418,15:17:16,320805322,test,2,prime_positive,18,1,24,1,554,88,0
121418,15:17:16,320805322,test,2,prime_positive,19,11,19,1,881,90,0
121418,15:17:16,320805322,test,2,prime_negative,20,2,30,0,529,90,0
121418,15:17:16,320805322,test,2,prime_positive,21,3,47,1,582,90,0
121418,15:17:16,320805322,test,2,prime_positive,22,9,10,1,487,91,0
121418,15:17:16,320805322,test,2,prime_positive,23,2,3,1,520,92,0
121418,15:17:16,320805322,test,2,prime_negative,24,3,60,0,445,92,0
121418,15:17:16,320805322,test,2,prime_negative,25,11,71,0,1768,92,0
121418,15:17:16,320805322,test,2,prime_positive,26,4,44,0,648,85,0
121418,15:17:16,320805322,test,2,prime_negative,27,8,69,0,829,85,0
121418,15:17:16,320805322,test,2,prime_positive,28,8,26,1,531,86,0
121418,15:17:16,320805322,test,2,prime_negative,29,1,31,0,602,86,0
121418,15:17:16,320805322,test,2,prime_positive,30,7,16,1,348,87,0
121418,15:17:16,320805322,test,2,prime_positive,31,12,54,1,998,88,0
121418,15:17:16,320805322,test,2,prime_negative,32,9,51,0,1790,88,0
121418,15:17:16,320805322,test,2,prime_positive,33,10,45,1,689,88,0
121418,15:17:16,320805322,test,2,prime_negative,34,7,59,0,1595,88,0
121418,15:17:16,320805322,test,2,prime_negative,35,6,65,1,2280,88,6
121418,15:17:16,320805322,test,2,prime_positive,36,5,17,1,422,89,6
121418,15:17:16,320805322,test,2,prime_positive,37,6,66,1,411,90,6
121418,15:17:16,320805322,test,2,prime_negative,38,5,68,0,365,90,5
121418,15:17:16,320805322,test,2,prime_positive,39,12,13,1,1291,90,5
121418,15:17:16,320805322,test,2,prime_negative,40,10,39,0,475,90,5
121418,15:17:16,320805322,test,2,prime_positive,41,1,32,1,371,90,5
121418,15:17:16,320805322,test,2,prime_negative,42,12,20,0,682,90,5
121418,15:17:16,320805322,test,2,prime_positive,43,2,21,1,432,91,5
121418,15:17:16,320805322,test,2,prime_negative,44,10,57,0,411,91,5
121418,15:17:16,320805322,test,2,prime_positive,45,4,70,1,672,91,5
121418,15:17:16,320805322,test,2,prime_negative,46,3,46,0,346,91,4
121418,15:17:16,320805322,test,2,prime_negative,47,8,40,0,507,91,4
121418,15:17:16,320805322,test,2,prime_positive,48,10,14,1,348,92,4
121418,15:17:16,320805322,test,2,prime_negative,49,11,52,0,274,92,4
121418,15:17:16,320805322,test,2,prime_negative,50,6,7,1,657,92,8
121418,15:17:16,320805322,test,2,prime_negative,51,9,62,0,331,92,8
121418,15:17:16,320805322,test,2,prime_positive,52,7,56,1,223,92,8
121418,15:17:16,320805322,test,2,prime_positive,53,5,9,1,327,92,8
121418,15:17:16,320805322,test,2,prime_negative,54,12,12,0,727,92,7
121418,15:17:16,320805322,test,2,prime_positive,55,3,23,1,343,92,7
121418,15:17:16,320805322,test,2,prime_positive,56,11,67,1,359,93,7
121418,15:17:16,320805322,test,2,prime_positive,57,9,25,1,542,93,7
121418,15:17:16,320805322,test,2,prime_negative,58,7,41,0,337,93,7
121418,15:17:16,320805322,test,2,prime_negative,59,4,4,0,416,93,7
121418,15:17:16,320805322,test,2,prime_positive,60,8,33,1,348,93,7
121418,15:17:16,320805322,test,2,prime_positive,61,11,36,0,882,90,7
121418,15:17:16,320805322,test,2,prime_negative,62,5,72,0,1878,90,6
121418,15:17:16,320805322,test,2,prime_positive,63,5,49,1,293,90,6
121418,15:17:16,320805322,test,2,prime_negative,64,1,18,0,515,90,6
121418,15:17:16,320805322,test,2,prime_negative,65,2,58,0,433,90,6
121418,15:17:16,320805322,test,2,prime_positive,66,3,37,1,1070,91,6
121418,15:17:16,320805322,test,2,prime_negative,67,6,43,1,611,91,9
121418,15:17:16,320805322,test,2,prime_negative,68,11,55,0,433,91,9
121418,15:17:16,320805322,test,2,prime_negative,69,9,66,1,1413,91,11
121418,15:17:16,320805322,test,2,prime_positive,70,7,6,1,251,91,11
121418,15:17:16,320805322,test,2,prime_negative,71,10,38,0,202,91,11
121418,15:17:16,320805322,test,2,prime_positive,72,1,46,1,420,91,11
121418,15:17:16,320805322,test,2,prime_negative,73,12,39,1,610,91,13
121418,15:18:58,822831156,practice,1,prime_positive_practice,4,0,0,1,1471,0,0
121418,15:18:58,822831156,practice,1,prime_positive_practice,5,0,0,0,1084,0,0
121418,15:18:58,822831156,practice,1,prime_negative_practice,6,0,0,0,1221,0,0
121418,15:18:58,822831156,practice,1,prime_positive_practice,7,0,0,1,891,0,0
121418,15:18:58,822831156,practice,1,prime_positive_practice,8,0,0,0,1219,0,0
121418,15:18:58,822831156,practice,1,prime_positive_practice,9,0,0,1,1298,0,0
121418,15:18:58,822831156,practice,1,prime_negative_practice,10,0,0,0,1152,0,0
121418,15:18:58,822831156,practice,1,prime_negative_practice,11,0,0,0,909,0,0
121418,15:18:58,822831156,practice,1,prime_negative_practice,12,0,0,1,880,0,0
121418,15:18:58,822831156,practice,1,prime_negative_practice,13,0,0,1,1161,0,0
121418,15:18:58,822831156,test,2,prime_positive,2,1,52,1,1455,100,0
121418,15:18:58,822831156,test,2,prime_negative,3,9,66,1,634,100,100
121418,15:18:58,822831156,test,2,prime_negative,4,10,59,0,691,100,50
121418,15:18:58,822831156,test,2,prime_positive,5,3,12,1,797,100,50
121418,15:18:58,822831156,test,2,prime_negative,6,6,61,1,1028,100,66
121418,15:18:58,822831156,test,2,prime_negative,7,12,41,0,1201,100,50
121418,15:18:58,822831156,test,2,prime_negative,8,1,16,0,1029,100,40
121418,15:18:58,822831156,test,2,prime_negative,9,2,62,0,1226,100,33
121418,15:18:58,822831156,test,2,prime_positive,10,8,42,0,1324,66,33
121418,15:18:58,822831156,test,2,prime_negative,11,5,5,1,487,66,42
121418,15:18:58,822831156,test,2,prime_positive,12,5,44,1,1159,75,42
121418,15:18:58,822831156,test,2,prime_negative,13,4,57,0,1922,75,37
121418,15:18:58,822831156,test,2,prime_positive,14,10,47,1,753,80,37
121418,15:18:58,822831156,test,2,prime_positive,15,11,45,0,735,66,37
121418,15:18:58,822831156,test,2,prime_positive,16,9,18,1,1391,71,37
121418,15:18:58,822831156,test,2,prime_negative,17,1,36,1,519,71,44
121418,15:18:58,822831156,test,2,prime_positive,18,7,53,0,546,62,44
121418,15:18:58,822831156,test,2,prime_positive,19,10,46,1,572,66,44
121418,15:18:58,822831156,test,2,prime_positive,20,2,54,1,876,70,44
121418,15:18:58,822831156,test,2,prime_negative,21,2,26,0,1066,70,40
121418,15:18:58,822831156,test,2,prime_positive,22,11,29,1,664,72,40
121418,15:18:58,822831156,test,2,prime_positive,23,6,30,1,1008,75,40
121418,15:18:58,822831156,test,2,prime_negative,24,12,58,0,565,75,36
121418,15:18:58,822831156,test,2,prime_positive,25,9,35,0,560,69,36
121418,15:18:58,822831156,test,2,prime_negative,26,11,60,1,539,69,41
121418,15:18:58,822831156,test,2,prime_negative,27,5,28,0,1054,69,38
121418,15:18:58,822831156,test,2,prime_positive,28,8,25,1,843,71,38
121418,15:18:58,822831156,test,2,prime_positive,29,3,2,1,854,73,38
121418,15:18:58,822831156,test,2,prime_positive,30,12,71,0,921,68,38
121418,15:18:58,822831156,test,2,prime_negative,31,3,8,0,1139,68,35
121418,15:18:58,822831156,test,2,prime_negative,32,6,11,0,809,68,33
121418,15:18:58,822831156,test,2,prime_negative,33,9,23,1,617,68,37
121418,15:18:58,822831156,test,2,prime_negative,34,7,9,1,798,68,41
121418,15:18:58,822831156,test,2,prime_negative,35,10,20,0,725,68,38
121418,15:18:58,822831156,test,2,prime_positive,36,4,24,1,772,70,38
121418,15:18:58,822831156,test,2,prime_negative,37,8,39,1,838,70,42
121418,15:18:58,822831156,test,2,prime_negative,38,5,40,0,780,70,40
121418,15:18:58,822831156,test,2,prime_negative,39,3,32,1,2802,70,42
121418,15:18:58,822831156,test,2,prime_negative,40,11,14,0,776,70,40
121418,15:18:58,822831156,test,2,prime_positive,41,1,65,1,2787,72,40
121418,15:18:58,822831156,test,2,prime_negative,42,10,67,0,747,72,39
121418,15:18:58,822831156,test,2,prime_positive,43,5,68,1,1355,73,39
121418,15:18:58,822831156,test,2,prime_positive,44,5,50,0,643,70,39
121418,15:18:58,822831156,test,2,prime_negative,45,4,3,0,677,70,37
121418,15:18:58,822831156,test,2,prime_positive,46,11,37,1,754,71,37
121418,15:18:58,822831156,test,2,prime_positive,47,10,21,0,796,68,37
121418,15:18:58,822831156,test,2,prime_positive,48,4,33,0,713,65,37
121418,15:18:58,822831156,test,2,prime_negative,49,1,70,0,1541,65,36
121418,15:18:58,822831156,test,2,prime_negative,50,7,27,1,1173,65,38
121418,15:18:58,822831156,test,2,prime_positive,51,2,72,0,898,62,38
121418,15:18:58,822831156,test,2,prime_negative,52,8,63,0,703,62,37
121418,15:18:58,822831156,test,2,prime_positive,53,9,17,1,502,64,37
121418,15:18:58,822831156,test,2,prime_positive,54,8,19,0,1264,61,37
121418,15:18:58,822831156,test,2,prime_positive,55,6,4,0,1463,59,37
121418,15:18:58,822831156,test,2,prime_positive,56,1,43,0,690,57,37
121418,15:18:58,822831156,test,2,prime_negative,57,9,56,0,786,57,35
121418,15:18:58,822831156,test,2,prime_positive,58,7,55,0,593,55,35
121418,15:18:58,822831156,test,2,prime_positive,59,12,1,0,624,53,35
121418,15:18:58,822831156,test,2,prime_negative,60,6,6,1,1291,53,37
121418,15:18:58,822831156,test,2,prime_positive,61,3,7,0,537,51,37
121418,15:18:58,822831156,test,2,prime_positive,62,3,34,0,816,50,37
121418,15:18:58,822831156,test,2,prime_negative,63,12,15,0,1031,50,36
121418,15:18:58,822831156,test,2,prime_negative,64,2,24,1,668,50,38
121418,15:18:58,822831156,test,2,prime_negative,65,11,14,0,541,50,37
121418,15:18:58,822831156,test,2,prime_negative,66,10,17,1,609,50,39
121418,15:18:58,822831156,test,2,prime_positive,67,10,34,0,555,48,39
121418,15:18:58,822831156,test,2,prime_negative,68,1,31,0,549,48,38
121418,15:18:58,822831156,test,2,prime_negative,69,2,2,1,496,48,40
121418,15:18:58,822831156,test,2,prime_negative,70,5,13,0,636,48,38
121418,15:18:58,822831156,test,2,prime_positive,71,9,60,0,557,47,38
121418,15:18:58,822831156,test,2,prime_positive,72,8,69,0,573,45,38
121418,15:18:58,822831156,test,2,prime_positive,73,1,10,1,612,47,38
121418,15:20:03,736176140,practice,1,prime_negative_practice,4,0,0,1,1024,0,0
121418,15:20:03,736176140,practice,1,prime_negative_practice,5,0,0,1,1195,0,0
121418,15:20:03,736176140,practice,1,prime_positive_practice,6,0,0,1,810,0,0
121418,15:20:03,736176140,practice,1,prime_positive_practice,7,0,0,1,602,0,0
121418,15:20:03,736176140,practice,1,prime_negative_practice,8,0,0,0,268,0,0
121418,15:20:03,736176140,practice,1,prime_negative_practice,9,0,0,0,442,0,0
121418,15:20:03,736176140,practice,1,prime_positive_practice,10,0,0,1,342,0,0
121418,15:20:03,736176140,practice,1,prime_negative_practice,11,0,0,0,468,0,0
121418,15:20:03,736176140,practice,1,prime_positive_practice,12,0,0,1,416,0,0
121418,15:20:03,736176140,practice,1,prime_positive_practice,13,0,0,1,249,0,0
121418,15:20:03,736176140,test,2,prime_negative,2,6,71,1,520,0,100
121418,15:20:03,736176140,test,2,prime_positive,3,6,53,1,292,100,100
121418,15:20:03,736176140,test,2,prime_positive,4,8,16,1,159,100,100
121418,15:20:03,736176140,test,2,prime_positive,5,10,41,1,211,100,100
121418,15:20:03,736176140,test,2,prime_negative,6,12,24,1,129,100,100
121418,15:20:03,736176140,test,2,prime_positive,7,1,54,1,258,100,100
121418,15:20:03,736176140,test,2,prime_negative,8,10,32,0,345,100,66
121418,15:20:03,736176140,test,2,prime_negative,9,5,56,0,200,100,50
121418,15:20:03,736176140,test,2,prime_negative,10,7,44,0,176,100,40
121418,15:20:03,736176140,test,2,prime_negative,11,2,4,0,253,100,33
121418,15:20:03,736176140,test,2,prime_negative,12,1,20,0,193,100,28
121418,15:20:03,736176140,test,2,prime_negative,13,5,29,0,174,100,25
121418,15:20:03,736176140,test,2,prime_negative,14,12,34,0,254,100,22
121418,15:20:03,736176140,test,2,prime_negative,15,6,52,0,235,100,20
121418,15:20:03,736176140,test,2,prime_negative,16,3,39,0,150,100,18
121418,15:20:03,736176140,test,2,prime_positive,17,12,1,1,354,100,18
121418,15:20:03,736176140,test,2,prime_positive,18,3,40,1,231,100,18
121418,15:20:03,736176140,test,2,prime_negative,19,8,19,0,290,100,16
121418,15:20:03,736176140,test,2,prime_negative,20,4,31,0,262,100,15
121418,15:20:03,736176140,test,2,prime_negative,21,11,48,0,291,100,14
121418,15:20:03,736176140,test,2,prime_positive,22,5,8,1,214,100,14
121418,15:20:03,736176140,test,2,prime_negative,23,7,21,0,209,100,13
121418,15:20:03,736176140,test,2,prime_positive,24,1,15,1,191,100,13
121418,15:20:03,736176140,test,2,prime_positive,25,6,43,1,202,100,13
121418,15:20:03,736176140,test,2,prime_negative,26,9,14,0,742,100,12
121418,15:20:03,736176140,test,2,prime_negative,27,2,3,0,268,100,11
121418,15:20:03,736176140,test,2,prime_negative,28,1,51,0,241,100,11
121418,15:20:03,736176140,test,2,prime_positive,29,12,69,1,821,100,11
121418,15:20:03,736176140,test,2,prime_negative,30,10,12,0,314,100,10
121418,15:20:03,736176140,test,2,prime_positive,31,9,2,1,267,100,10
121418,15:20:03,736176140,test,2,prime_positive,32,7,30,1,245,100,10
121418,15:20:03,736176140,test,2,prime_negative,33,11,55,0,314,100,10
121418,15:20:03,736176140,test,2,prime_negative,34,6,13,0,378,100,9
121418,15:20:03,736176140,test,2,prime_positive,35,4,27,1,248,100,9
121418,15:20:03,736176140,test,2,prime_negative,36,4,57,0,218,100,9
121418,15:20:03,736176140,test,2,prime_positive,37,8,38,1,193,100,9
121418,15:20:03,736176140,test,2,prime_positive,38,5,26,1,272,100,9
121418,15:20:03,736176140,test,2,prime_negative,39,12,67,0,585,100,8
121418,15:20:03,736176140,test,2,prime_negative,40,3,11,0,248,100,8
121418,15:20:03,736176140,test,2,prime_positive,41,2,5,1,214,100,8
121418,15:20:03,736176140,test,2,prime_positive,42,3,72,1,177,100,8
121418,15:20:03,736176140,test,2,prime_positive,43,11,18,1,206,100,8
121418,15:20:03,736176140,test,2,prime_negative,44,8,63,0,211,100,8
121418,15:20:03,736176140,test,2,prime_negative,45,10,10,0,285,100,7
121418,15:20:03,736176140,test,2,prime_positive,46,10,36,0,454,94,7
121418,15:20:03,736176140,test,2,prime_positive,47,1,35,1,181,95,7
121418,15:20:03,736176140,test,2,prime_positive,48,8,50,1,187,95,7
121418,15:20:03,736176140,test,2,prime_positive,49,7,65,1,195,95,7
121418,15:20:03,736176140,test,2,prime_negative,50,1,9,0,189,95,7
121418,15:20:03,736176140,test,2,prime_positive,51,10,42,1,466,95,7
121418,15:20:03,736176140,test,2,prime_positive,52,4,23,1,138,95,7
121418,15:20:03,736176140,test,2,prime_positive,53,11,22,1,228,96,7
121418,15:20:03,736176140,test,2,prime_negative,54,2,25,0,222,96,7
121418,15:20:03,736176140,test,2,prime_negative,55,7,68,0,218,96,6
121418,15:20:03,736176140,test,2,prime_negative,56,9,70,0,761,96,6
121418,15:20:03,736176140,test,2,prime_negative,57,5,17,0,199,96,6
121418,15:20:03,736176140,test,2,prime_negative,58,1,64,0,162,96,6
121418,15:20:03,736176140,test,2,prime_positive,59,2,45,1,169,96,6
121418,15:20:03,736176140,test,2,prime_positive,60,5,59,1,108,96,6
121418,15:20:03,736176140,test,2,prime_positive,61,6,47,1,346,96,6
121418,15:20:03,736176140,test,2,prime_positive,62,12,33,1,274,96,6
121418,15:20:03,736176140,test,2,prime_positive,63,9,62,1,237,96,6
121418,15:20:03,736176140,test,2,prime_negative,64,4,37,0,249,96,6
121418,15:20:03,736176140,test,2,prime_negative,65,12,49,0,152,96,5
121418,15:20:03,736176140,test,2,prime_positive,66,3,27,0,191,93,5
121418,15:20:03,736176140,test,2,prime_negative,67,6,14,0,302,93,5
121418,15:20:03,736176140,test,2,prime_positive,68,4,16,1,582,93,5
121418,15:20:03,736176140,test,2,prime_positive,69,9,68,1,125,93,5
121418,15:20:03,736176140,test,2,prime_positive,70,7,47,1,280,94,5
121418,15:20:03,736176140,test,2,prime_negative,71,2,34,0,186,94,5
121418,15:20:03,736176140,test,2,prime_positive,72,12,61,1,228,94,5
121418,15:20:03,736176140,test,2,prime_positive,73,10,4,1,769,94,5
121418,15:21:17,710850498,practice,1,prime_positive_practice,4,0,0,0,2303,0,0
121418,15:21:17,710850498,practice,1,prime_negative_practice,5,0,0,1,1910,0,0
121418,15:21:17,710850498,practice,1,prime_positive_practice,6,0,0,1,3410,0,0
121418,15:21:17,710850498,practice,1,prime_positive_practice,7,0,0,0,1205,0,0
121418,15:21:17,710850498,practice,1,prime_negative_practice,8,0,0,1,672,0,0
121418,15:21:17,710850498,practice,1,prime_positive_practice,9,0,0,1,655,0,0
121418,15:21:17,710850498,practice,1,prime_negative_practice,10,0,0,1,580,0,0
121418,15:21:17,710850498,practice,1,prime_negative_practice,11,0,0,1,1189,0,0
121418,15:21:17,710850498,practice,1,prime_negative_practice,12,0,0,0,2257,0,0
121418,15:21:17,710850498,practice,1,prime_positive_practice,13,0,0,1,651,0,0
121418,15:21:17,710850498,test,2,prime_positive,2,5,66,1,2498,100,0
121418,15:21:17,710850498,test,2,prime_negative,3,3,7,1,864,100,100
121418,15:21:17,710850498,test,2,prime_positive,4,11,50,0,309,50,100
121418,15:21:17,710850498,test,2,prime_negative,5,12,52,0,346,50,50
121418,15:21:17,710850498,test,2,prime_positive,6,10,43,1,132,66,50
121418,15:21:17,710850498,test,2,prime_negative,7,6,51,1,581,66,66
121418,15:21:17,710850498,test,2,prime_negative,8,8,32,0,258,66,50
121418,15:21:17,710850498,test,2,prime_negative,9,1,18,1,176,66,60
121418,15:21:17,710850498,test,2,prime_negative,10,2,48,0,236,66,50
121418,15:21:17,710850498,test,2,prime_negative,11,4,6,0,410,66,42
121418,15:21:17,710850498,test,2,prime_negative,12,8,9,1,351,66,50
121418,15:21:17,710850498,test,2,prime_positive,13,9,1,0,377,50,50
121418,15:21:17,710850498,test,2,prime_positive,14,7,33,1,278,60,50
121418,15:21:17,710850498,test,2,prime_negative,15,1,54,0,270,60,44
121418,15:21:17,710850498,test,2,prime_positive,16,3,22,1,848,66,44
121418,15:21:17,710850498,test,2,prime_positive,17,1,72,1,360,71,44
121418,15:21:17,710850498,test,2,prime_negative,18,3,20,1,291,71,50
121418,15:21:17,710850498,test,2,prime_negative,19,9,16,1,386,71,54
121418,15:21:17,710850498,test,2,prime_positive,20,10,35,0,339,62,54
121418,15:21:17,710850498,test,2,prime_positive,21,12,47,1,263,66,54
121418,15:21:17,710850498,test,2,prime_negative,22,11,68,0,302,66,50
121418,15:21:17,710850498,test,2,prime_negative,23,2,19,1,306,66,53
121418,15:21:17,710850498,test,2,prime_positive,24,6,60,0,307,60,53
121418,15:21:17,710850498,test,2,prime_positive,25,11,62,1,237,63,53
121418,15:21:17,710850498,test,2,prime_positive,26,1,55,0,246,58,53
121418,15:21:17,710850498,test,2,prime_negative,27,6,58,1,371,58,57
121418,15:21:17,710850498,test,2,prime_positive,28,3,63,0,415,53,57
121418,15:21:17,710850498,test,2,prime_positive,29,5,70,1,250,57,57
121418,15:21:17,710850498,test,2,prime_positive,30,9,29,1,1283,60,57
121418,15:21:17,710850498,test,2,prime_positive,31,4,10,1,338,62,57
121418,15:21:17,710850498,test,2,prime_positive,32,7,12,0,311,58,57
121418,15:21:17,710850498,test,2,prime_positive,33,8,5,1,338,61,57
121418,15:21:17,710850498,test,2,prime_negative,34,5,34,0,460,61,53
121418,15:21:17,710850498,test,2,prime_positive,35,2,45,0,170,57,53
121418,15:21:17,710850498,test,2,prime_positive,36,3,69,1,208,60,53
121418,15:21:17,710850498,test,2,prime_negative,37,10,27,1,296,60,56
121418,15:21:17,710850498,test,2,prime_negative,38,12,64,0,461,60,52
121418,15:21:17,710850498,test,2,prime_negative,39,4,40,1,416,60,55
121418,15:21:17,710850498,test,2,prime_negative,40,7,11,0,278,60,52
121418,15:21:17,710850498,test,2,prime_positive,41,12,26,1,215,61,52
121418,15:21:17,710850498,test,2,prime_negative,42,12,13,1,263,61,55
121418,15:21:17,710850498,test,2,prime_negative,43,8,59,1,116,61,57
121418,15:21:17,710850498,test,2,prime_positive,44,6,21,1,184,63,57
121418,15:21:17,710850498,test,2,prime_negative,45,10,36,1,342,63,59
121418,15:21:17,710850498,test,2,prime_negative,46,2,30,1,360,63,60
121418,15:21:17,710850498,test,2,prime_negative,47,3,67,1,649,63,62
121418,15:21:17,710850498,test,2,prime_negative,48,9,42,1,1994,63,64
121418,15:21:17,710850498,test,2,prime_negative,49,6,46,0,494,63,61
121418,15:21:17,710850498,test,2,prime_positive,50,9,8,1,289,65,61
121418,15:21:17,710850498,test,2,prime_positive,51,2,23,0,483,62,61
121418,15:21:17,710850498,test,2,prime_positive,52,5,49,1,702,64,61
121418,15:21:17,710850498,test,2,prime_negative,53,7,61,0,352,64,59
121418,15:21:17,710850498,test,2,prime_positive,54,7,3,1,197,65,59
121418,15:21:17,710850498,test,2,prime_negative,55,1,24,1,176,65,60
121418,15:21:17,710850498,test,2,prime_positive,56,11,14,1,508,66,60
121418,15:21:17,710850498,test,2,prime_negative,57,11,2,1,213,66,62
121418,15:21:17,710850498,test,2,prime_positive,58,10,4,1,333,67,62
121418,15:21:17,710850498,test,2,prime_positive,59,4,71,1,217,68,62
121418,15:21:17,710850498,test,2,prime_negative,60,5,56,1,262,68,63
121418,15:21:17,710850498,test,2,prime_positive,61,1,28,1,212,70,63
121418,15:21:17,710850498,test,2,prime_positive,62,8,17,0,351,67,63
121418,15:21:17,710850498,test,2,prime_negative,63,4,44,1,333,67,64
121418,15:21:17,710850498,test,2,prime_negative,64,6,33,1,354,67,65
121418,15:21:17,710850498,test,2,prime_negative,65,10,1,1,222,67,66
121418,15:21:17,710850498,test,2,prime_positive,66,7,22,1,367,68,66
121418,15:21:17,710850498,test,2,prime_positive,67,12,68,1,238,69,66
121418,15:21:17,710850498,test,2,prime_negative,68,12,25,0,125,69,64
121418,15:21:17,710850498,test,2,prime_negative,69,9,21,0,316,69,62
121418,15:21:17,710850498,test,2,prime_positive,70,8,64,1,200,70,62
121418,15:21:17,710850498,test,2,prime_positive,71,9,57,0,447,68,62
121418,15:21:17,710850498,test,2,prime_positive,72,10,32,1,258,69,62
121418,15:21:17,710850498,test,2,prime_negative,73,7,40,1,801,69,63
121418,15:20:17,662593661,practice,1,prime_positive_practice,4,0,0,0,8898,0,0
121418,15:20:17,662593661,practice,1,prime_negative_practice,5,0,0,0,4946,0,0
121418,15:20:17,662593661,practice,1,prime_positive_practice,6,0,0,1,3764,0,0
121418,15:20:17,662593661,practice,1,prime_positive_practice,7,0,0,1,2809,0,0
121418,15:20:17,662593661,practice,1,prime_negative_practice,8,0,0,1,2837,0,0
121418,15:20:17,662593661,practice,1,prime_positive_practice,9,0,0,0,3265,0,0
121418,15:20:17,662593661,practice,1,prime_negative_practice,10,0,0,1,1878,0,0
121418,15:20:17,662593661,practice,1,prime_negative_practice,11,0,0,1,8058,0,0
121418,15:20:17,662593661,practice,1,prime_negative_practice,12,0,0,1,1709,0,0
121418,15:20:17,662593661,practice,1,prime_positive_practice,13,0,0,0,2610,0,0
121418,15:20:17,662593661,test,2,prime_positive,2,10,7,1,2181,100,0
121418,15:20:17,662593661,test,2,prime_negative,3,11,11,1,2491,100,100
121418,15:20:17,662593661,test,2,prime_positive,4,9,65,0,2527,50,100
121418,15:20:17,662593661,test,2,prime_negative,5,12,41,1,1402,50,100
121418,15:20:17,662593661,test,2,prime_positive,6,8,67,0,1204,33,100
121418,15:20:17,662593661,test,2,prime_negative,7,7,38,0,1580,33,66
121418,15:20:17,662593661,test,2,prime_negative,8,5,1,1,959,33,75
121418,15:20:17,662593661,test,2,prime_positive,9,2,26,1,1060,50,75
121418,15:20:17,662593661,test,2,prime_positive,10,12,36,1,875,60,75
121418,15:20:17,662593661,test,2,prime_negative,11,10,5,1,982,60,80
121418,15:20:17,662593661,test,2,prime_positive,12,3,18,0,2174,50,80
121418,15:20:17,662593661,test,2,prime_positive,13,11,61,0,1480,42,80
121418,15:20:17,662593661,test,2,prime_positive,14,2,19,0,1261,37,80
121418,15:20:17,662593661,test,2,prime_positive,15,6,48,1,982,44,80
121418,15:20:17,662593661,test,2,prime_negative,16,8,14,1,1230,44,83
121418,15:20:17,662593661,test,2,prime_positive,17,9,69,1,1670,50,83
121418,15:20:17,662593661,test,2,prime_negative,18,9,43,1,2046,50,85
121418,15:20:17,662593661,test,2,prime_positive,19,11,12,0,1528,45,85
121418,15:20:17,662593661,test,2,prime_negative,20,5,52,1,3617,45,87
121418,15:20:17,662593661,test,2,prime_positive,21,7,49,1,1434,50,87
121418,15:20:17,662593661,test,2,prime_negative,22,8,63,1,1723,50,88
121418,15:20:17,662593661,test,2,prime_positive,23,10,2,0,1326,46,88
121418,15:20:17,662593661,test,2,prime_positive,24,12,32,1,959,50,88
121418,15:20:17,662593661,test,2,prime_positive,25,4,24,1,1325,53,88
121418,15:20:17,662593661,test,2,prime_negative,26,10,68,0,778,53,80
121418,15:20:17,662593661,test,2,prime_negative,27,2,45,1,850,53,81
121418,15:20:17,662593661,test,2,prime_positive,28,1,64,0,883,50,81
121418,15:20:17,662593661,test,2,prime_negative,29,3,66,1,917,50,83
121418,15:20:17,662593661,test,2,prime_positive,30,3,53,1,1022,52,83
121418,15:20:17,662593661,test,2,prime_negative,31,11,44,1,924,52,84
121418,15:20:17,662593661,test,2,prime_positive,32,5,62,0,1477,50,84
121418,15:20:17,662593661,test,2,prime_negative,33,1,13,1,932,50,85
121418,15:20:17,662593661,test,2,prime_positive,34,8,27,0,1335,47,85
121418,15:20:17,662593661,test,2,prime_positive,35,8,72,0,1829,45,85
121418,15:20:17,662593661,test,2,prime_positive,36,2,70,0,1176,42,85
121418,15:20:17,662593661,test,2,prime_positive,37,9,60,0,1794,40,85
121418,15:20:17,662593661,test,2,prime_positive,38,3,57,1,603,43,85
121418,15:20:17,662593661,test,2,prime_negative,39,6,17,0,1016,43,80
121418,15:20:17,662593661,test,2,prime_positive,40,4,51,1,723,45,80
121418,15:20:17,662593661,test,2,prime_positive,41,5,42,1,1295,48,80
121418,15:20:17,662593661,test,2,prime_positive,42,11,6,1,757,50,80
121418,15:20:17,662593661,test,2,prime_positive,43,6,46,1,793,51,80
121418,15:20:17,662593661,test,2,prime_negative,44,12,28,1,1205,51,81
121418,15:20:17,662593661,test,2,prime_negative,45,4,23,0,817,51,76
121418,15:20:17,662593661,test,2,prime_negative,46,9,20,1,903,51,77
121418,15:20:17,662593661,test,2,prime_positive,47,1,31,1,691,53,77
121418,15:20:17,662593661,test,2,prime_negative,48,7,54,0,1337,53,73
121418,15:20:17,662593661,test,2,prime_positive,49,10,47,1,1569,55,73
121418,15:20:17,662593661,test,2,prime_negative,50,4,22,0,1940,55,70
121418,15:20:17,662593661,test,2,prime_negative,51,2,25,1,2711,55,71
121418,15:20:17,662593661,test,2,prime_negative,52,11,15,0,1865,55,68
121418,15:20:17,662593661,test,2,prime_negative,53,7,58,0,686,55,65
121418,15:20:17,662593661,test,2,prime_negative,54,10,56,1,734,55,66
121418,15:20:17,662593661,test,2,prime_positive,55,7,37,1,1149,56,66
121418,15:20:17,662593661,test,2,prime_negative,56,8,71,1,852,56,68
121418,15:20:17,662593661,test,2,prime_negative,57,1,16,1,578,56,69
121418,15:20:17,662593661,test,2,prime_positive,58,12,35,0,515,54,69
121418,15:20:17,662593661,test,2,prime_positive,59,4,3,1,927,56,69
121418,15:20:17,662593661,test,2,prime_negative,60,6,29,0,1249,56,66
121418,15:20:17,662593661,test,2,prime_negative,61,3,30,0,644,56,64
121418,15:20:17,662593661,test,2,prime_negative,62,5,39,1,892,56,65
121418,15:20:17,662593661,test,2,prime_positive,63,2,21,0,1401,54,65
121418,15:20:17,662593661,test,2,prime_negative,64,9,40,1,967,54,66
121418,15:20:17,662593661,test,2,prime_negative,65,12,4,1,703,54,67
121418,15:20:17,662593661,test,2,prime_negative,66,3,30,1,708,54,68
121418,15:20:17,662593661,test,2,prime_positive,67,5,63,1,991,55,68
121418,15:20:17,662593661,test,2,prime_negative,68,1,37,0,867,55,66
121418,15:20:17,662593661,test,2,prime_positive,69,10,15,1,931,57,66
121418,15:20:17,662593661,test,2,prime_negative,70,11,6,0,961,57,64
121418,15:20:17,662593661,test,2,prime_negative,71,4,31,0,1609,57,62
121418,15:20:17,662593661,test,2,prime_negative,72,7,18,0,1445,57,61
121418,15:20:17,662593661,test,2,prime_positive,73,9,47,1,461,58,61
121418,15:23:44,223027094,practice,1,prime_positive_practice,4,0,0,1,1853,0,0
121418,15:23:44,223027094,practice,1,prime_negative_practice,5,0,0,1,1072,0,0
121418,15:23:44,223027094,practice,1,prime_negative_practice,6,0,0,1,700,0,0
121418,15:23:44,223027094,practice,1,prime_negative_practice,7,0,0,1,581,0,0
121418,15:23:44,223027094,practice,1,prime_positive_practice,8,0,0,0,708,0,0
121418,15:23:44,223027094,practice,1,prime_positive_practice,9,0,0,1,710,0,0
121418,15:23:44,223027094,practice,1,prime_positive_practice,10,0,0,1,423,0,0
121418,15:23:44,223027094,practice,1,prime_positive_practice,11,0,0,1,517,0,0
121418,15:23:44,223027094,practice,1,prime_negative_practice,12,0,0,1,566,0,0
121418,15:23:44,223027094,practice,1,prime_negative_practice,13,0,0,1,582,0,0
121418,15:23:44,223027094,test,2,prime_negative,2,7,50,1,439,0,100
121418,15:23:44,223027094,test,2,prime_negative,3,9,70,1,427,0,100
121418,15:23:44,223027094,test,2,prime_positive,4,5,32,1,457,100,100
121418,15:23:44,223027094,test,2,prime_positive,5,11,22,1,436,100,100
121418,15:23:44,223027094,test,2,prime_negative,6,6,24,1,433,100,100
121418,15:23:44,223027094,test,2,prime_positive,7,2,9,1,405,100,100
121418,15:23:44,223027094,test,2,prime_negative,8,12,37,1,459,100,100
121418,15:23:44,223027094,test,2,prime_positive,9,12,39,0,495,75,100
121418,15:23:44,223027094,test,2,prime_negative,10,3,40,1,457,75,100
121418,15:23:44,223027094,test,2,prime_negative,11,4,63,1,493,75,100
121418,15:23:44,223027094,test,2,prime_positive,12,10,45,1,647,80,100
121418,15:23:44,223027094,test,2,prime_positive,13,9,8,1,532,83,100
121418,15:23:44,223027094,test,2,prime_negative,14,11,23,0,524,83,85
121418,15:23:44,223027094,test,2,prime_negative,15,7,43,1,413,83,87
121418,15:23:44,223027094,test,2,prime_negative,16,11,52,1,627,83,88
121418,15:23:44,223027094,test,2,prime_negative,17,6,56,1,504,83,90
121418,15:23:44,223027094,test,2,prime_positive,18,4,59,1,523,85,90
121418,15:23:44,223027094,test,2,prime_negative,19,9,42,1,387,85,90
121418,15:23:44,223027094,test,2,prime_positive,20,7,14,1,497,87,90
121418,15:23:44,223027094,test,2,prime_positive,21,5,33,1,636,88,90
121418,15:23:44,223027094,test,2,prime_negative,22,8,72,1,616,88,91
121418,15:23:44,223027094,test,2,prime_negative,23,1,44,1,605,88,92
121418,15:23:44,223027094,test,2,prime_positive,24,4,35,1,555,90,92
121418,15:23:44,223027094,test,2,prime_negative,25,10,31,1,556,90,92
121418,15:23:44,223027094,test,2,prime_negative,26,5,34,1,492,90,93
121418,15:23:44,223027094,test,2,prime_negative,27,3,51,1,485,90,93
121418,15:23:44,223027094,test,2,prime_positive,28,8,3,1,472,90,93
121418,15:23:44,223027094,test,2,prime_positive,29,9,11,1,394,91,93
121418,15:23:44,223027094,test,2,prime_positive,30,2,71,1,497,92,93
121418,15:23:44,223027094,test,2,prime_positive,31,10,60,1,372,92,93
121418,15:23:44,223027094,test,2,prime_positive,32,3,18,1,427,93,93
121418,15:23:44,223027094,test,2,prime_positive,33,11,58,1,480,93,93
121418,15:23:44,223027094,test,2,prime_positive,34,6,20,1,371,94,93
121418,15:23:44,223027094,test,2,prime_positive,35,1,69,1,474,94,93
121418,15:23:44,223027094,test,2,prime_negative,36,12,30,1,485,94,94
121418,15:23:44,223027094,test,2,prime_positive,37,12,36,1,488,94,94
121418,15:23:44,223027094,test,2,prime_negative,38,2,16,1,491,94,94
121418,15:23:44,223027094,test,2,prime_negative,39,4,27,1,501,94,94
121418,15:23:44,223027094,test,2,prime_positive,40,3,12,1,462,95,94
121418,15:23:44,223027094,test,2,prime_negative,41,7,15,1,362,95,95
121418,15:23:44,223027094,test,2,prime_positive,42,12,46,1,530,95,95
121418,15:23:44,223027094,test,2,prime_positive,43,8,21,1,468,95,95
121418,15:23:44,223027094,test,2,prime_negative,44,12,66,1,366,95,95
121418,15:23:44,223027094,test,2,prime_negative,45,8,61,1,349,95,95
121418,15:23:44,223027094,test,2,prime_negative,46,4,62,1,413,95,95
121418,15:23:44,223027094,test,2,prime_negative,47,11,28,1,387,95,95
121418,15:23:44,223027094,test,2,prime_positive,48,6,48,1,329,95,95
121418,15:23:44,223027094,test,2,prime_negative,49,3,2,1,715,95,96
121418,15:23:44,223027094,test,2,prime_negative,50,2,25,1,413,95,96
121418,15:23:44,223027094,test,2,prime_positive,51,10,53,1,306,95,96
121418,15:23:44,223027094,test,2,prime_positive,52,5,49,1,348,96,96
121418,15:23:44,223027094,test,2,prime_negative,53,5,7,1,300,96,96
121418,15:23:44,223027094,test,2,prime_positive,54,11,67,1,502,96,96
121418,15:23:44,223027094,test,2,prime_positive,55,7,1,1,448,96,96
121418,15:23:44,223027094,test,2,prime_negative,56,6,47,1,396,96,96
121418,15:23:44,223027094,test,2,prime_negative,57,9,68,1,499,96,96
121418,15:23:44,223027094,test,2,prime_negative,58,10,4,1,477,96,96
121418,15:23:44,223027094,test,2,prime_negative,59,1,10,1,424,96,96
121418,15:23:44,223027094,test,2,prime_positive,60,9,64,1,341,96,96
121418,15:23:44,223027094,test,2,prime_positive,61,4,19,1,421,96,96
121418,15:23:44,223027094,test,2,prime_negative,62,11,5,1,339,96,96
121418,15:23:44,223027094,test,2,prime_negative,63,9,55,1,467,96,96
121418,15:23:44,223027094,test,2,prime_positive,64,2,55,1,527,96,96
121418,15:23:44,223027094,test,2,prime_positive,65,1,13,1,415,96,96
121418,15:23:44,223027094,test,2,prime_negative,66,6,46,1,605,96,97
121418,15:23:44,223027094,test,2,prime_positive,67,11,37,1,403,96,97
121418,15:23:44,223027094,test,2,prime_negative,68,7,68,1,497,96,97
121418,15:23:44,223027094,test,2,prime_positive,69,6,35,1,347,96,97
121418,15:23:44,223027094,test,2,prime_negative,70,12,54,1,379,96,97
121418,15:23:44,223027094,test,2,prime_positive,71,1,20,1,386,97,97
121418,15:23:44,223027094,test,2,prime_positive,72,3,63,1,377,97,97
121418,15:23:44,223027094,test,2,prime_positive,73,4,49,1,416,97,97
121418,15:23:52,859570573,practice,1,prime_positive_practice,4,0,0,1,2047,0,0
121418,15:23:52,859570573,practice,1,prime_positive_practice,5,0,0,1,1062,0,0
121418,15:23:52,859570573,practice,1,prime_positive_practice,6,0,0,1,959,0,0
121418,15:23:52,859570573,practice,1,prime_negative_practice,7,0,0,1,694,0,0
121418,15:23:52,859570573,practice,1,prime_negative_practice,8,0,0,1,705,0,0
121418,15:23:52,859570573,practice,1,prime_positive_practice,9,0,0,1,740,0,0
121418,15:23:52,859570573,practice,1,prime_negative_practice,10,0,0,1,757,0,0
121418,15:23:52,859570573,practice,1,prime_negative_practice,11,0,0,1,652,0,0
121418,15:23:52,859570573,practice,1,prime_positive_practice,12,0,0,1,538,0,0
121418,15:23:52,859570573,practice,1,prime_negative_practice,13,0,0,0,868,0,0
121418,15:23:52,859570573,test,2,prime_positive,2,4,71,0,1480,0,0
121418,15:23:52,859570573,test,2,prime_positive,3,8,63,1,583,50,0
121418,15:23:52,859570573,test,2,prime_positive,4,11,47,0,1119,33,0
121418,15:23:52,859570573,test,2,prime_positive,5,9,18,0,1023,25,0
121418,15:23:52,859570573,test,2,prime_negative,6,2,7,1,523,25,100
121418,15:23:52,859570573,test,2,prime_negative,7,3,5,0,789,25,50
121418,15:23:52,859570573,test,2,prime_positive,8,5,41,1,437,40,50
121418,15:23:52,859570573,test,2,prime_positive,9,7,24,1,468,50,50
121418,15:23:52,859570573,test,2,prime_negative,10,1,43,0,921,50,33
121418,15:23:52,859570573,test,2,prime_positive,11,3,35,1,659,57,33
121418,15:23:52,859570573,test,2,prime_negative,12,8,28,0,696,57,25
121418,15:23:52,859570573,test,2,prime_positive,13,8,61,0,659,50,25
121418,15:23:52,859570573,test,2,prime_negative,14,6,37,1,432,50,40
121418,15:23:52,859570573,test,2,prime_negative,15,5,52,0,728,50,33
121418,15:23:52,859570573,test,2,prime_positive,16,5,33,1,497,55,33
121418,15:23:52,859570573,test,2,prime_positive,17,4,42,1,485,60,33
121418,15:23:52,859570573,test,2,prime_positive,18,9,68,1,473,63,33
121418,15:23:52,859570573,test,2,prime_positive,19,6,57,0,486,58,33
121418,15:23:52,859570573,test,2,prime_negative,20,4,44,1,531,58,42
121418,15:23:52,859570573,test,2,prime_negative,21,12,31,1,461,58,50
121418,15:23:52,859570573,test,2,prime_positive,22,10,6,1,555,61,50
121418,15:23:52,859570573,test,2,prime_negative,23,9,58,1,460,61,55
121418,15:23:52,859570573,test,2,prime_negative,24,8,45,1,442,61,60
121418,15:23:52,859570573,test,2,prime_negative,25,1,19,1,537,61,63
121418,15:23:52,859570573,test,2,prime_negative,26,4,21,1,555,61,66
121418,15:23:52,859570573,test,2,prime_positive,27,2,20,1,556,64,66
121418,15:23:52,859570573,test,2,prime_positive,28,12,25,1,581,66,66
121418,15:23:52,859570573,test,2,prime_positive,29,7,29,1,405,68,66
121418,15:23:52,859570573,test,2,prime_negative,30,11,32,1,540,68,69
121418,15:23:52,859570573,test,2,prime_negative,31,2,11,1,414,68,71
121418,15:23:52,859570573,test,2,prime_negative,32,3,14,1,398,68,73
121418,15:23:52,859570573,test,2,prime_negative,33,6,17,1,447,68,75
121418,15:23:52,859570573,test,2,prime_positive,34,1,48,1,597,70,75
121418,15:23:52,859570573,test,2,prime_positive,35,3,62,1,468,72,75
121418,15:23:52,859570573,test,2,prime_negative,36,10,65,1,618,72,76
121418,15:23:52,859570573,test,2,prime_negative,37,7,59,0,512,72,72
121418,15:23:52,859570573,test,2,prime_positive,38,11,49,1,459,73,72
121418,15:23:52,859570573,test,2,prime_positive,39,7,70,1,409,75,72
121418,15:23:52,859570573,test,2,prime_negative,40,5,8,0,449,75,68
121418,15:23:52,859570573,test,2,prime_positive,41,11,4,1,424,76,68
121418,15:23:52,859570573,test,2,prime_positive,42,10,12,1,463,77,68
121418,15:23:52,859570573,test,2,prime_positive,43,8,66,1,517,78,68
121418,15:23:52,859570573,test,2,prime_positive,44,5,22,1,392,79,68
121418,15:23:52,859570573,test,2,prime_negative,45,2,69,0,584,79,65
121418,15:23:52,859570573,test,2,prime_negative,46,9,1,0,641,79,61
121418,15:23:52,859570573,test,2,prime_negative,47,6,34,0,455,79,59
121418,15:23:52,859570573,test,2,prime_negative,48,3,16,0,540,79,56
121418,15:23:52,859570573,test,2,prime_positive,49,9,72,1,406,80,56
121418,15:23:52,859570573,test,2,prime_positive,50,2,38,1,398,80,56
121418,15:23:52,859570573,test,2,prime_negative,51,1,50,1,407,80,58
121418,15:23:52,859570573,test,2,prime_positive,52,4,51,1,392,81,58
121418,15:23:52,859570573,test,2,prime_negative,53,10,2,1,383,81,60
121418,15:23:52,859570573,test,2,prime_positive,54,3,23,1,385,82,60
121418,15:23:52,859570573,test,2,prime_negative,55,4,39,0,530,82,57
121418,15:23:52,859570573,test,2,prime_positive,56,6,54,1,389,82,57
121418,15:23:52,859570573,test,2,prime_negative,57,7,36,0,469,82,55
121418,15:23:52,859570573,test,2,prime_negative,58,8,27,0,531,82,53
121418,15:23:52,859570573,test,2,prime_negative,59,12,40,1,446,82,55
121418,15:23:52,859570573,test,2,prime_positive,60,12,15,1,332,83,55
121418,15:23:52,859570573,test,2,prime_negative,61,5,9,0,400,83,53
121418,15:23:52,859570573,test,2,prime_negative,62,11,46,1,377,83,54
121418,15:23:52,859570573,test,2,prime_negative,63,5,10,1,347,83,56
121418,15:23:52,859570573,test,2,prime_positive,64,1,10,1,437,83,56
121418,15:23:52,859570573,test,2,prime_positive,65,11,58,1,324,84,56
121418,15:23:52,859570573,test,2,prime_negative,66,7,72,1,448,84,57
121418,15:23:52,859570573,test,2,prime_positive,67,3,6,1,486,84,57
121418,15:23:52,859570573,test,2,prime_negative,68,8,50,0,595,84,55
121418,15:23:52,859570573,test,2,prime_negative,69,12,12,1,555,84,57
121418,15:23:52,859570573,test,2,prime_positive,70,10,26,0,661,82,57
121418,15:23:52,859570573,test,2,prime_negative,71,3,65,0,338,82,55
121418,15:23:52,859570573,test,2,prime_positive,72,2,36,1,564,82,55
121418,15:23:52,859570573,test,2,prime_positive,73,6,25,1,342,83,55
121418,15:26:53,4760432,practice,1,prime_negative_practice,4,0,0,0,2248,0,0
121418,15:26:53,4760432,practice,1,prime_positive_practice,5,0,0,0,1104,0,0
121418,15:26:53,4760432,practice,1,prime_negative_practice,6,0,0,1,721,0,0
121418,15:26:53,4760432,practice,1,prime_negative_practice,7,0,0,0,761,0,0
121418,15:26:53,4760432,practice,1,prime_positive_practice,8,0,0,1,387,0,0
121418,15:26:53,4760432,practice,1,prime_negative_practice,9,0,0,1,1216,0,0
121418,15:26:53,4760432,practice,1,prime_positive_practice,10,0,0,1,1140,0,0
121418,15:26:53,4760432,practice,1,prime_positive_practice,11,0,0,1,150,0,0
121418,15:26:53,4760432,practice,1,prime_negative_practice,12,0,0,0,457,0,0
121418,15:26:53,4760432,practice,1,prime_positive_practice,13,0,0,0,879,0,0
121418,15:26:53,4760432,test,2,prime_negative,2,9,24,0,1144,0,0
121418,15:26:53,4760432,test,2,prime_positive,3,3,3,1,295,100,0
121418,15:26:53,4760432,test,2,prime_positive,4,8,18,1,414,100,0
121418,15:26:53,4760432,test,2,prime_negative,5,1,6,1,413,100,50
121418,15:26:53,4760432,test,2,prime_negative,6,2,38,1,602,100,66
121418,15:26:53,4760432,test,2,prime_positive,7,6,7,1,485,100,66
121418,15:26:53,4760432,test,2,prime_negative,8,3,60,0,391,100,50
121418,15:26:53,4760432,test,2,prime_positive,9,12,55,0,452,75,50
121418,15:26:53,4760432,test,2,prime_negative,10,12,11,1,481,75,60
121418,15:26:53,4760432,test,2,prime_negative,11,6,51,0,456,75,50
121418,15:26:53,4760432,test,2,prime_negative,12,4,12,0,490,75,42
121418,15:26:53,4760432,test,2,prime_negative,13,2,8,0,429,75,37
121418,15:26:53,4760432,test,2,prime_negative,14,12,50,0,429,75,33
121418,15:26:53,4760432,test,2,prime_positive,15,9,41,0,389,60,33
121418,15:26:53,4760432,test,2,prime_positive,16,1,42,0,264,50,33
121418,15:26:53,4760432,test,2,prime_negative,17,7,9,0,313,50,30
121418,15:26:53,4760432,test,2,prime_negative,18,8,10,1,496,50,36
121418,15:26:53,4760432,test,2,prime_negative,19,3,26,1,586,50,41
121418,15:26:53,4760432,test,2,prime_positive,20,11,25,0,334,42,41
121418,15:26:53,4760432,test,2,prime_positive,21,5,67,0,322,37,41
121418,15:26:53,4760432,test,2,prime_positive,22,10,56,0,435,33,41
121418,15:26:53,4760432,test,2,prime_positive,23,1,65,0,463,30,41
121418,15:26:53,4760432,test,2,prime_negative,24,1,13,0,287,30,38
121418,15:26:53,4760432,test,2,prime_negative,25,9,69,0,323,30,35
121418,15:26:53,4760432,test,2,prime_positive,26,11,32,1,331,36,35
121418,15:26:53,4760432,test,2,prime_positive,27,4,63,0,444,33,35
121418,15:26:53,4760432,test,2,prime_positive,28,3,5,1,149,38,35
121418,15:26:53,4760432,test,2,prime_negative,29,11,16,1,644,38,40
121418,15:26:53,4760432,test,2,prime_negative,30,4,62,0,369,38,37
121418,15:26:53,4760432,test,2,prime_negative,31,10,29,0,361,38,35
121418,15:26:53,4760432,test,2,prime_negative,32,6,30,0,464,38,33
121418,15:26:53,4760432,test,2,prime_positive,33,6,2,1,339,42,33
121418,15:26:53,4760432,test,2,prime_positive,34,7,4,1,252,46,33
121418,15:26:53,4760432,test,2,prime_positive,35,8,36,1,356,50,33
121418,15:26:53,4760432,test,2,prime_negative,36,5,58,1,247,50,36
121418,15:26:53,4760432,test,2,prime_positive,37,12,72,0,383,47,36
121418,15:26:53,4760432,test,2,prime_positive,38,2,43,0,629,44,36
121418,15:26:53,4760432,test,2,prime_negative,39,3,1,0,387,44,35
121418,15:26:53,4760432,test,2,prime_positive,40,9,21,0,523,42,35
121418,15:26:53,4760432,test,2,prime_positive,41,9,40,0,387,40,35
121418,15:26:53,4760432,test,2,prime_negative,42,7,34,1,234,40,38
121418,15:26:53,4760432,test,2,prime_positive,43,11,53,1,773,42,38
121418,15:26:53,4760432,test,2,prime_positive,44,3,66,1,374,45,38
121418,15:26:53,4760432,test,2,prime_negative,45,4,33,0,486,45,36
121418,15:26:53,4760432,test,2,prime_negative,46,10,27,0,1063,45,34
121418,15:26:53,4760432,test,2,prime_negative,47,12,31,0,451,45,33
121418,15:26:53,4760432,test,2,prime_positive,48,2,64,1,700,47,33
121418,15:26:53,4760432,test,2,prime_positive,49,8,39,1,347,50,33
121418,15:26:53,4760432,test,2,prime_negative,50,1,61,0,365,50,32
121418,15:26:53,4760432,test,2,prime_positive,51,5,47,0,402,48,32
121418,15:26:53,4760432,test,2,prime_positive,52,4,57,0,396,46,32
121418,15:26:53,4760432,test,2,prime_negative,53,2,49,0,247,46,30
121418,15:26:53,4760432,test,2,prime_negative,54,8,15,0,374,46,29
121418,15:26:53,4760432,test,2,prime_positive,55,7,54,1,524,48,29
121418,15:26:53,4760432,test,2,prime_positive,56,12,19,0,193,46,29
121418,15:26:53,4760432,test,2,prime_positive,57,6,20,1,18,48,29
121418,15:26:53,4760432,test,2,prime_positive,58,1,44,1,20,50,29
121418,15:26:53,4760432,test,2,prime_negative,59,5,22,1,3,50,32
121418,15:26:53,4760432,test,2,prime_negative,60,9,45,0,955,50,31
121418,15:26:53,4760432,test,2,prime_negative,61,6,17,0,301,50,30
121418,15:26:53,4760432,test,2,prime_positive,62,10,14,0,19,48,30
121418,15:26:53,4760432,test,2,prime_negative,63,11,70,0,321,48,29
121418,15:26:53,4760432,test,2,prime_negative,64,8,28,0,225,48,28
121418,15:26:53,4760432,test,2,prime_positive,65,2,43,0,177,46,28
121418,15:26:53,4760432,test,2,prime_negative,66,6,53,0,452,46,27
121418,15:26:53,4760432,test,2,prime_positive,67,10,62,1,1219,48,27
121418,15:26:53,4760432,test,2,prime_negative,68,5,40,0,264,48,26
121418,15:26:53,4760432,test,2,prime_negative,69,7,4,0,1906,48,25
121418,15:26:53,4760432,test,2,prime_negative,70,10,3,0,559,48,25
121418,15:26:53,4760432,test,2,prime_positive,71,9,15,0,160,47,25
121418,15:26:53,4760432,test,2,prime_positive,72,1,46,1,310,48,25
121418,15:26:53,4760432,test,2,prime_positive,73,6,65,1,147,50,25
121418,15:30:07,307860280,practice,1,prime_positive_practice,4,0,0,0,1097,0,0
121418,15:30:07,307860280,practice,1,prime_positive_practice,5,0,0,0,621,0,0
121418,15:30:07,307860280,practice,1,prime_positive_practice,6,0,0,1,864,0,0
121418,15:30:07,307860280,practice,1,prime_negative_practice,7,0,0,0,403,0,0
121418,15:30:07,307860280,practice,1,prime_negative_practice,8,0,0,0,787,0,0
121418,15:30:07,307860280,practice,1,prime_positive_practice,9,0,0,1,574,0,0
121418,15:30:07,307860280,practice,1,prime_negative_practice,10,0,0,0,495,0,0
121418,15:30:07,307860280,practice,1,prime_negative_practice,11,0,0,0,336,0,0
121418,15:30:07,307860280,practice,1,prime_negative_practice,12,0,0,0,414,0,0
121418,15:30:07,307860280,practice,1,prime_positive_practice,13,0,0,1,453,0,0
121418,15:30:07,307860280,test,2,prime_negative,2,12,20,0,458,0,0
121418,15:30:07,307860280,test,2,prime_negative,3,2,18,0,387,0,0
121418,15:30:07,307860280,test,2,prime_positive,4,4,30,0,319,0,0
121418,15:30:07,307860280,test,2,prime_negative,5,11,59,1,339,0,33
121418,15:30:07,307860280,test,2,prime_negative,6,10,43,0,435,0,25
121418,15:30:07,307860280,test,2,prime_negative,7,7,27,1,315,0,40
121418,15:30:07,307860280,test,2,prime_negative,8,6,62,0,374,0,33
121418,15:30:07,307860280,test,2,prime_negative,9,4,6,0,338,0,28
121418,15:30:07,307860280,test,2,prime_positive,10,12,36,1,336,50,28
121418,15:30:07,307860280,test,2,prime_negative,11,11,7,1,510,50,37
121418,15:30:07,307860280,test,2,prime_positive,12,6,40,1,285,66,37
121418,15:30:07,307860280,test,2,prime_negative,13,5,60,0,460,66,33
121418,15:30:07,307860280,test,2,prime_positive,14,10,8,1,426,75,33
121418,15:30:07,307860280,test,2,prime_positive,15,8,50,1,504,80,33
121418,15:30:07,307860280,test,2,prime_negative,16,6,67,0,337,80,30
121418,15:30:07,307860280,test,2,prime_negative,17,8,12,0,298,80,27
121418,15:30:07,307860280,test,2,prime_positive,18,2,22,1,301,83,27
121418,15:30:07,307860280,test,2,prime_positive,19,11,34,1,339,85,27
121418,15:30:07,307860280,test,2,prime_negative,20,7,64,0,250,85,25
121418,15:30:07,307860280,test,2,prime_positive,21,9,69,1,374,87,25
121418,15:30:07,307860280,test,2,prime_positive,22,7,71,1,401,88,25
121418,15:30:07,307860280,test,2,prime_negative,23,12,17,0,652,88,23
121418,15:30:07,307860280,test,2,prime_positive,24,10,24,1,218,90,23
121418,15:30:07,307860280,test,2,prime_negative,25,10,15,0,390,90,21
121418,15:30:07,307860280,test,2,prime_positive,26,1,13,1,236,90,21
121418,15:30:07,307860280,test,2,prime_positive,27,12,14,1,228,91,21
121418,15:30:07,307860280,test,2,prime_positive,28,2,1,1,242,92,21
121418,15:30:07,307860280,test,2,prime_positive,29,5,66,1,160,92,21
121418,15:30:07,307860280,test,2,prime_positive,30,11,31,1,160,93,21
121418,15:30:07,307860280,test,2,prime_negative,31,3,61,0,176,93,20
121418,15:30:07,307860280,test,2,prime_positive,32,4,26,0,159,87,20
121418,15:30:07,307860280,test,2,prime_negative,33,1,47,0,136,87,18
121418,15:30:07,307860280,test,2,prime_positive,34,6,48,1,276,88,18
121418,15:30:07,307860280,test,2,prime_negative,35,4,41,0,285,88,17
121418,15:30:07,307860280,test,2,prime_negative,36,9,72,0,286,88,16
121418,15:30:07,307860280,test,2,prime_positive,37,8,39,1,215,88,16
121418,15:30:07,307860280,test,2,prime_positive,38,3,52,0,210,84,16
121418,15:30:07,307860280,test,2,prime_positive,39,7,65,0,189,80,16
121418,15:30:07,307860280,test,2,prime_negative,40,2,70,0,207,80,15
121418,15:30:07,307860280,test,2,prime_negative,41,10,2,0,236,80,15
121418,15:30:07,307860280,test,2,prime_negative,42,3,63,0,147,80,14
121418,15:30:07,307860280,test,2,prime_positive,43,3,49,1,340,80,14
121418,15:30:07,307860280,test,2,prime_positive,44,9,16,1,203,81,14
121418,15:30:07,307860280,test,2,prime_positive,45,12,35,1,112,82,14
121418,15:30:07,307860280,test,2,prime_positive,46,8,68,1,118,83,14
121418,15:30:07,307860280,test,2,prime_positive,47,10,33,1,113,84,14
121418,15:30:07,307860280,test,2,prime_positive,48,6,4,1,121,84,14
121418,15:30:07,307860280,test,2,prime_negative,49,9,21,0,197,84,13
121418,15:30:07,307860280,test,2,prime_positive,50,11,38,1,193,85,13
121418,15:30:07,307860280,test,2,prime_positive,51,1,9,1,171,85,13
121418,15:30:07,307860280,test,2,prime_positive,52,2,11,0,105,82,13
121418,15:30:07,307860280,test,2,prime_negative,53,4,5,0,283,82,13
121418,15:30:07,307860280,test,2,prime_negative,54,8,25,0,567,82,12
121418,15:30:07,307860280,test,2,prime_negative,55,5,29,0,225,82,12
121418,15:30:07,307860280,test,2,prime_negative,56,2,42,0,110,82,11
121418,15:30:07,307860280,test,2,prime_negative,57,6,53,0,180,82,11
121418,15:30:07,307860280,test,2,prime_negative,58,12,3,0,165,82,10
121418,15:30:07,307860280,test,2,prime_negative,59,7,45,0,239,82,10
121418,15:30:07,307860280,test,2,prime_negative,60,11,58,1,277,82,13
121418,15:30:07,307860280,test,2,prime_negative,61,1,10,0,168,82,12
121418,15:30:07,307860280,test,2,prime_positive,62,5,19,1,180,83,12
121418,15:30:07,307860280,test,2,prime_negative,63,8,37,0,256,83,12
121418,15:30:07,307860280,test,2,prime_negative,64,1,70,0,119,83,12
121418,15:30:07,307860280,test,2,prime_positive,65,4,13,0,186,80,12
121418,15:30:07,307860280,test,2,prime_positive,66,9,72,1,252,81,12
121418,15:30:07,307860280,test,2,prime_positive,67,6,11,1,128,81,12
121418,15:30:07,307860280,test,2,prime_positive,68,8,59,0,123,79,12
121418,15:30:07,307860280,test,2,prime_negative,69,6,20,1,168,79,14
121418,15:30:07,307860280,test,2,prime_positive,70,10,25,0,162,77,14
121418,15:30:07,307860280,test,2,prime_positive,71,4,56,0,475,75,14
121418,15:30:07,307860280,test,2,prime_negative,72,2,32,0,242,75,14
121418,15:30:07,307860280,test,2,prime_negative,73,3,4,0,147,75,13
121418,15:30:40,675958720,practice,1,prime_positive_practice,4,0,0,1,1915,0,0
121418,15:30:40,675958720,practice,1,prime_positive_practice,5,0,0,0,1173,0,0
121418,15:30:40,675958720,practice,1,prime_negative_practice,6,0,0,1,2580,0,0
121418,15:30:40,675958720,practice,1,prime_positive_practice,7,0,0,0,1404,0,0
121418,15:30:40,675958720,practice,1,prime_positive_practice,8,0,0,0,780,0,0
121418,15:30:40,675958720,practice,1,prime_negative_practice,9,0,0,1,839,0,0
121418,15:30:40,675958720,practice,1,prime_positive_practice,10,0,0,1,975,0,0
121418,15:30:40,675958720,practice,1,prime_negative_practice,11,0,0,1,590,0,0
121418,15:30:40,675958720,practice,1,prime_negative_practice,12,0,0,0,1185,0,0
121418,15:30:40,675958720,practice,1,prime_negative_practice,13,0,0,0,598,0,0
121418,15:30:40,675958720,test,2,prime_positive,2,2,51,1,825,100,0
121418,15:30:40,675958720,test,2,prime_negative,3,4,24,1,488,100,100
121418,15:30:40,675958720,test,2,prime_negative,4,7,11,0,394,100,50
121418,15:30:40,675958720,test,2,prime_negative,5,3,1,0,694,100,33
121418,15:30:40,675958720,test,2,prime_negative,6,10,12,0,801,100,25
121418,15:30:40,675958720,test,2,prime_negative,7,5,68,1,442,100,40
121418,15:30:40,675958720,test,2,prime_positive,8,6,59,0,909,50,40
121418,15:30:40,675958720,test,2,prime_positive,9,5,58,0,450,33,40
121418,15:30:40,675958720,test,2,prime_negative,10,1,35,1,411,33,50
121418,15:30:40,675958720,test,2,prime_negative,11,9,69,1,668,33,57
121418,15:30:40,675958720,test,2,prime_negative,12,2,44,1,631,33,62
121418,15:30:40,675958720,test,2,prime_negative,13,10,66,1,1221,33,66
121418,15:30:40,675958720,test,2,prime_positive,14,3,5,1,2227,50,66
121418,15:30:40,675958720,test,2,prime_positive,15,1,41,0,985,40,66
121418,15:30:40,675958720,test,2,prime_negative,16,9,32,0,855,40,60
121418,15:30:40,675958720,test,2,prime_positive,17,7,60,0,573,33,60
121418,15:30:40,675958720,test,2,prime_negative,18,3,4,1,1385,33,63
121418,15:30:40,675958720,test,2,prime_positive,19,4,67,1,1923,42,63
121418,15:30:40,675958720,test,2,prime_positive,20,9,71,0,720,37,63
121418,15:30:40,675958720,test,2,prime_negative,21,5,54,0,753,37,58
121418,15:30:40,675958720,test,2,prime_positive,22,8,57,1,553,44,58
121418,15:30:40,675958720,test,2,prime_negative,23,8,52,1,1676,44,61
121418,15:30:40,675958720,test,2,prime_positive,24,3,7,1,565,50,61
121418,15:30:40,675958720,test,2,prime_negative,25,6,17,1,519,50,64
121418,15:30:40,675958720,test,2,prime_positive,26,6,3,0,489,45,64
121418,15:30:40,675958720,test,2,prime_positive,27,10,46,1,842,50,64
121418,15:30:40,675958720,test,2,prime_negative,28,4,48,1,1668,50,66
121418,15:30:40,675958720,test,2,prime_positive,29,2,55,0,655,46,66
121418,15:30:40,675958720,test,2,prime_positive,30,12,9,1,486,50,66
121418,15:30:40,675958720,test,2,prime_positive,31,4,8,0,518,46,66
121418,15:30:40,675958720,test,2,prime_negative,32,7,65,0,648,46,62
121418,15:30:40,675958720,test,2,prime_positive,33,5,33,1,1105,50,62
121418,15:30:40,675958720,test,2,prime_positive,34,11,20,1,693,52,62
121418,15:30:40,675958720,test,2,prime_negative,35,11,2,1,699,52,64
121418,15:30:40,675958720,test,2,prime_negative,36,1,31,0,604,52,61
121418,15:30:40,675958720,test,2,prime_negative,37,12,23,1,551,52,63
121418,15:30:40,675958720,test,2,prime_negative,38,5,53,0,459,52,60
121418,15:30:40,675958720,test,2,prime_negative,39,8,40,0,523,52,57
121418,15:30:40,675958720,test,2,prime_positive,40,1,26,0,490,50,57
121418,15:30:40,675958720,test,2,prime_positive,41,7,25,1,417,52,57
121418,15:30:40,675958720,test,2,prime_negative,42,7,37,1,630,52,59
121418,15:30:40,675958720,test,2,prime_positive,43,4,64,0,563,50,59
121418,15:30:40,675958720,test,2,prime_positive,44,11,30,1,604,52,59
121418,15:30:40,675958720,test,2,prime_negative,45,2,50,1,584,52,60
121418,15:30:40,675958720,test,2,prime_positive,46,6,15,0,1168,50,60
121418,15:30:40,675958720,test,2,prime_positive,47,7,47,0,564,47,60
121418,15:30:40,675958720,test,2,prime_negative,48,6,28,0,881,47,58
121418,15:30:40,675958720,test,2,prime_negative,49,4,70,1,480,47,60
121418,15:30:40,675958720,test,2,prime_negative,50,11,27,0,1844,47,57
121418,15:30:40,675958720,test,2,prime_negative,51,10,42,1,540,47,59
121418,15:30:40,675958720,test,2,prime_negative,52,1,72,0,852,47,57
121418,15:30:40,675958720,test,2,prime_positive,53,5,63,1,1615,50,57
121418,15:30:40,675958720,test,2,prime_positive,54,1,13,1,575,52,57
121418,15:30:40,675958720,test,2,prime_positive,55,12,19,0,642,50,57
121418,15:30:40,675958720,test,2,prime_positive,56,2,21,0,626,48,57
121418,15:30:40,675958720,test,2,prime_positive,57,3,38,1,443,50,57
121418,15:30:40,675958720,test,2,prime_negative,58,9,14,0,559,50,55
121418,15:30:40,675958720,test,2,prime_positive,59,10,16,0,474,48,55
121418,15:30:40,675958720,test,2,prime_positive,60,8,22,0,792,46,55
121418,15:30:40,675958720,test,2,prime_positive,61,9,36,1,344,48,55
121418,15:30:40,675958720,test,2,prime_positive,62,4,39,1,498,50,55
121418,15:30:40,675958720,test,2,prime_positive,63,1,6,1,339,51,55
121418,15:30:40,675958720,test,2,prime_negative,64,12,72,0,405,51,53
121418,15:30:40,675958720,test,2,prime_negative,65,3,19,0,489,51,51
121418,15:30:40,675958720,test,2,prime_negative,66,12,53,0,489,51,50
121418,15:30:40,675958720,test,2,prime_negative,67,5,40,0,507,51,48
121418,15:30:40,675958720,test,2,prime_negative,68,4,62,0,395,51,47
121418,15:30:40,675958720,test,2,prime_positive,69,5,48,0,371,50,47
121418,15:30:40,675958720,test,2,prime_negative,70,1,29,1,511,50,48
121418,15:30:40,675958720,test,2,prime_positive,71,9,18,1,1066,51,48
121418,15:30:40,675958720,test,2,prime_positive,72,7,32,0,346,50,48
121418,15:30:40,675958720,test,2,prime_negative,73,9,49,1,776,50,50
121418,15:30:07,364261625,practice,1,prime_negative_practice,4,0,0,1,1253,0,0
121418,15:30:07,364261625,practice,1,prime_positive_practice,5,0,0,1,855,0,0
121418,15:30:07,364261625,practice,1,prime_positive_practice,6,0,0,1,537,0,0
121418,15:30:07,364261625,practice,1,prime_positive_practice,7,0,0,1,739,0,0
121418,15:30:07,364261625,practice,1,prime_negative_practice,8,0,0,0,655,0,0
121418,15:30:07,364261625,practice,1,prime_positive_practice,9,0,0,0,551,0,0
121418,15:30:07,364261625,practice,1,prime_negative_practice,10,0,0,0,585,0,0
121418,15:30:07,364261625,practice,1,prime_positive_practice,11,0,0,1,769,0,0
121418,15:30:07,364261625,practice,1,prime_negative_practice,12,0,0,1,985,0,0
121418,15:30:07,364261625,practice,1,prime_negative_practice,13,0,0,0,730,0,0
121418,15:30:07,364261625,test,2,prime_positive,2,2,64,1,761,100,0
121418,15:30:07,364261625,test,2,prime_negative,3,8,17,1,526,100,100
121418,15:30:07,364261625,test,2,prime_negative,4,10,36,1,505,100,100
121418,15:30:07,364261625,test,2,prime_negative,5,7,23,1,658,100,100
121418,15:30:07,364261625,test,2,prime_positive,6,3,57,1,655,100,100
121418,15:30:07,364261625,test,2,prime_positive,7,5,4,0,611,66,100
121418,15:30:07,364261625,test,2,prime_positive,8,7,62,0,474,50,100
121418,15:30:07,364261625,test,2,prime_positive,9,1,60,0,526,40,100
121418,15:30:07,364261625,test,2,prime_negative,10,9,1,0,470,40,75
121418,15:30:07,364261625,test,2,prime_positive,11,6,21,0,565,33,75
121418,15:30:07,364261625,test,2,prime_positive,12,12,13,1,668,42,75
121418,15:30:07,364261625,test,2,prime_negative,13,5,66,1,536,42,80
121418,15:30:07,364261625,test,2,prime_negative,14,6,37,1,543,42,83
121418,15:30:07,364261625,test,2,prime_negative,15,11,35,1,393,42,85
121418,15:30:07,364261625,test,2,prime_negative,16,6,65,0,506,42,75
121418,15:30:07,364261625,test,2,prime_negative,17,12,67,1,632,42,77
121418,15:30:07,364261625,test,2,prime_positive,18,6,20,0,497,37,77
121418,15:30:07,364261625,test,2,prime_negative,19,4,44,0,507,37,70
121418,15:30:07,364261625,test,2,prime_positive,20,2,25,1,514,44,70
121418,15:30:07,364261625,test,2,prime_negative,21,1,56,0,538,44,63
121418,15:30:07,364261625,test,2,prime_positive,22,9,6,1,562,50,63
121418,15:30:07,364261625,test,2,prime_negative,23,3,10,1,507,50,66
121418,15:30:07,364261625,test,2,prime_negative,24,2,38,1,795,50,69
121418,15:30:07,364261625,test,2,prime_positive,25,3,2,1,456,54,69
121418,15:30:07,364261625,test,2,prime_positive,26,4,7,0,414,50,69
121418,15:30:07,364261625,test,2,prime_negative,27,9,33,1,466,50,71
