date,time,subject,blockcode,blocknum,prime_type,trialnum,values.primestim,values.targetstim,correct,latency,trial.prime_positive.totalpercentcorrect,trial.prime_negative.totalpercentcorrect,influenced
71618,13:33:40,387783740,test,2,-0.5,2,4,35,0,1161,0,0,0.5
71618,13:33:40,387783740,test,2,0.5,4,8,42,1,1457,100,0,0.5
71618,13:33:40,387783740,test,2,0.5,6,11,44,1,1021,100,0,-0.5
71618,13:33:40,387783740,test,2,0.5,8,4,3,0,575,66,0,0.5
71618,13:33:40,387783740,test,2,0.5,10,7,22,1,842,75,0,0.5
71618,13:33:40,387783740,test,2,0.5,12,1,70,1,510,80,0,0.5
71618,13:33:40,387783740,test,2,0.5,14,6,10,1,614,83,0,0.5
71618,13:33:40,387783740,test,2,0.5,16,2,67,1,324,85,0,0.5
71618,13:33:40,387783740,test,2,0.5,18,1,28,1,291,87,0,0.5
71618,13:33:40,387783740,test,2,-0.5,20,7,72,0,433,87,0,0.5
71618,13:33:40,387783740,test,2,0.5,22,3,14,1,738,88,0,-0.5
71618,13:33:40,387783740,test,2,0.5,24,9,6,1,393,90,0,-0.5
71618,13:33:40,387783740,test,2,-0.5,26,2,52,1,882,90,33,-0.5
71618,13:33:40,387783740,test,2,-0.5,28,5,38,0,528,90,25,-0.5
71618,13:33:40,387783740,test,2,0.5,30,8,55,1,437,90,25,0.5
71618,13:33:40,387783740,test,2,-0.5,32,8,5,0,412,90,20,0.5
71618,13:33:40,387783740,test,2,0.5,34,2,31,1,864,91,20,-0.5
71618,13:33:40,387783740,test,2,-0.5,36,11,56,1,355,91,33,-0.5
71618,13:33:40,387783740,test,2,0.5,38,6,29,1,169,92,33,-0.5
71618,13:33:40,387783740,test,2,0.5,40,5,19,1,471,92,33,-0.5
71618,13:33:40,387783740,test,2,-0.5,42,12,13,0,668,92,28,0.5
71618,13:33:40,387783740,test,2,-0.5,44,9,21,0,952,92,25,0.5
71618,13:33:40,387783740,test,2,0.5,46,4,36,0,493,86,25,0.5
71618,13:33:40,387783740,test,2,-0.5,48,8,50,0,418,86,22,0.5
71618,13:33:40,387783740,test,2,0.5,50,12,11,1,1068,87,22,-0.5
71618,13:33:40,387783740,test,2,0.5,52,7,63,1,359,88,22,0.5
71618,13:33:40,387783740,test,2,-0.5,54,10,61,0,794,88,20,-0.5
71618,13:33:40,387783740,test,2,-0.5,56,1,53,0,557,88,18,-0.5
71618,13:33:40,387783740,test,2,0.5,58,11,68,1,318,88,18,-0.5
71618,13:33:40,387783740,test,2,0.5,60,10,8,1,451,89,18,-0.5
71618,13:33:40,387783740,test,2,0.5,62,10,25,1,672,90,18,-0.5
71618,13:33:40,387783740,test,2,0.5,64,9,51,1,474,90,18,-0.5
71618,13:33:40,387783740,test,2,-0.5,66,7,58,0,424,90,16,0.5
71618,13:33:40,387783740,test,2,0.5,68,3,17,1,251,90,16,-0.5
71618,13:33:40,387783740,test,2,0.5,70,12,34,1,481,91,16,-0.5
71618,13:33:40,387783740,test,2,-0.5,72,3,37,0,459,91,15,-0.5
71618,13:33:40,387783740,test,2,-0.5,74,12,15,0,970,91,14,-0.5
71618,13:33:40,387783740,test,2,-0.5,76,4,49,0,644,91,13,-0.5
71618,13:33:40,387783740,test,2,-0.5,78,5,7,1,1441,91,18,0.5
71618,13:33:40,387783740,test,2,-0.5,80,11,20,1,1375,91,23,0.5
71618,13:33:40,387783740,test,2,0.5,82,5,30,1,331,91,23,0.5
71618,13:33:40,387783740,test,2,-0.5,84,2,59,0,418,91,22,-0.5
71618,13:33:40,387783740,test,2,-0.5,86,6,41,0,318,91,21,-0.5
71618,13:33:40,387783740,test,2,0.5,88,6,69,1,188,92,21,-0.5
71618,13:33:40,387783740,test,2,0.5,90,11,64,1,289,92,21,-0.5
71618,13:33:40,387783740,test,2,0.5,92,8,27,1,304,92,21,-0.5
71618,13:33:40,387783740,test,2,-0.5,94,11,39,1,212,92,25,-0.5
71618,13:33:40,387783740,test,2,-0.5,96,5,18,0,384,92,23,-0.5
71618,13:33:40,387783740,test,2,-0.5,98,3,1,0,447,92,22,-0.5
71618,13:33:40,387783740,test,2,0.5,100,1,40,1,348,92,22,-0.5
71618,13:33:40,387783740,test,2,-0.5,102,10,57,0,492,92,21,-0.5
71618,13:33:40,387783740,test,2,-0.5,104,9,2,0,1735,92,20,-0.5
71618,13:33:40,387783740,test,2,0.5,106,2,32,1,338,93,20,-0.5
71618,13:33:40,387783740,test,2,-0.5,108,12,48,1,943,93,24,-0.5
71618,13:33:40,387783740,test,2,-0.5,110,6,46,0,799,93,23,-0.5
71618,13:33:40,387783740,test,2,0.5,112,7,71,1,338,93,23,0.5
71618,13:33:40,387783740,test,2,-0.5,114,2,9,0,844,93,22,-0.5
71618,13:33:40,387783740,test,2,0.5,116,4,33,0,427,90,22,-0.5
71618,13:33:40,387783740,test,2,0.5,118,3,60,1,229,90,22,-0.5
71618,13:33:40,387783740,test,2,-0.5,120,8,43,0,415,90,21,-0.5
71618,13:33:40,387783740,test,2,0.5,122,6,45,1,236,90,21,-0.5
71618,13:33:40,387783740,test,2,0.5,124,2,65,1,319,91,21,-0.5
71618,13:33:40,387783740,test,2,-0.5,126,7,40,0,503,91,20,-0.5
71618,13:33:40,387783740,test,2,-0.5,128,1,65,0,608,91,20,-0.5
71618,13:33:40,387783740,test,2,-0.5,130,4,70,0,453,91,19,-0.5
71618,13:33:40,387783740,test,2,-0.5,132,10,50,0,626,91,18,-0.5
71618,13:33:40,387783740,test,2,-0.5,134,2,1,0,1192,91,18,0.5
71618,13:33:40,387783740,test,2,-0.5,136,3,53,0,1474,91,17,0.5
71618,13:33:40,387783740,test,2,0.5,138,10,8,1,751,91,17,-0.5
71618,13:33:40,387783740,test,2,0.5,140,12,17,1,602,91,17,-0.5
71618,13:33:40,387783740,test,2,-0.5,142,11,24,1,1021,91,20,-0.5
71618,13:33:40,387783740,test,2,-0.5,144,9,10,0,514,91,19,0.5
71618,07:34:33,608526962,test,2,0.5,2,8,59,0,547,0,0,-0.5
71618,07:34:33,608526962,test,2,0.5,4,6,48,0,465,0,0,-0.5
71618,07:34:33,608526962,test,2,0.5,6,5,64,0,577,0,0,-0.5
71618,07:34:33,608526962,test,2,-0.5,8,10,1,0,613,0,0,-0.5
71618,07:34:33,608526962,test,2,0.5,10,12,49,1,528,25,0,-0.5
71618,07:34:33,608526962,test,2,0.5,12,4,7,1,414,40,0,-0.5
71618,07:34:33,608526962,test,2,0.5,14,9,68,1,497,50,0,-0.5
71618,07:34:33,608526962,test,2,0.5,16,11,25,1,402,57,0,-0.5
71618,07:34:33,608526962,test,2,-0.5,18,5,71,0,474,57,0,-0.5
71618,07:34:33,608526962,test,2,0.5,20,2,60,0,690,50,0,-0.5
71618,07:34:33,608526962,test,2,0.5,22,8,33,1,521,55,0,-0.5
71618,07:34:33,608526962,test,2,0.5,24,12,44,1,609,60,0,-0.5
71618,07:34:33,608526962,test,2,0.5,26,11,61,1,531,63,0,-0.5
71618,07:34:33,608526962,test,2,0.5,28,7,8,0,512,58,0,-0.5
71618,07:34:33,608526962,test,2,-0.5,30,12,42,0,671,58,0,-0.5
71618,07:34:33,608526962,test,2,0.5,32,5,55,0,616,53,0,-0.5
71618,07:34:33,608526962,test,2,-0.5,34,7,18,0,594,53,0,-0.5
71618,07:34:33,608526962,test,2,0.5,36,10,14,0,565,50,0,-0.5
71618,07:34:33,608526962,test,2,0.5,38,6,11,0,426,46,0,-0.5
71618,07:34:33,608526962,test,2,-0.5,40,8,22,1,788,46,20,-0.5
71618,07:34:33,608526962,test,2,-0.5,42,11,35,1,472,46,33,-0.5
71618,07:34:33,608526962,test,2,-0.5,44,4,19,1,800,46,42,-0.5
71618,07:34:33,608526962,test,2,0.5,46,1,34,0,2075,43,42,-0.5
71618,07:34:33,608526962,test,2,0.5,48,9,31,0,435,41,42,-0.5
71618,07:34:33,608526962,test,2,-0.5,50,8,45,0,549,41,37,-0.5
71618,07:34:33,608526962,test,2,0.5,52,3,29,1,529,44,37,-0.5
71618,07:34:33,608526962,test,2,-0.5,54,9,2,1,416,44,44,-0.5
71618,07:34:33,608526962,test,2,-0.5,56,1,52,1,538,44,50,-0.5
71618,07:34:33,608526962,test,2,-0.5,58,2,23,1,407,44,54,-0.5
71618,07:34:33,608526962,test,2,0.5,60,4,46,1,458,47,54,-0.5
71618,07:34:33,608526962,test,2,-0.5,62,7,27,1,538,47,58,-0.5
71618,07:34:33,608526962,test,2,-0.5,64,4,9,1,392,47,61,-0.5
71618,07:34:33,608526962,test,2,-0.5,66,12,72,1,524,47,64,-0.5
71618,07:34:33,608526962,test,2,-0.5,68,3,32,1,649,47,66,-0.5
71618,07:34:33,608526962,test,2,0.5,70,9,57,1,578,50,66,-0.5
71618,07:34:33,608526962,test,2,0.5,72,7,21,1,616,52,66,-0.5
71618,07:34:33,608526962,test,2,-0.5,74,5,17,1,457,52,68,-0.5
71618,07:34:33,608526962,test,2,-0.5,76,10,66,1,506,52,70,-0.5
71618,07:34:33,608526962,test,2,0.5,78,6,56,0,641,50,70,-0.5
71618,07:34:33,608526962,test,2,-0.5,80,11,26,0,474,50,66,-0.5
71618,07:34:33,608526962,test,2,-0.5,82,6,69,0,586,50,63,-0.5
71618,07:34:33,608526962,test,2,0.5,84,12,41,1,661,52,63,-0.5
71618,07:34:33,608526962,test,2,0.5,86,4,39,1,438,54,63,-0.5
71618,07:34:33,608526962,test,2,0.5,88,3,63,0,519,52,63,-0.5
71618,07:34:33,608526962,test,2,-0.5,90,4,36,1,486,52,65,-0.5
71618,07:34:33,608526962,test,2,0.5,92,1,37,0,597,50,65,-0.5
71618,07:34:33,608526962,test,2,-0.5,94,7,30,0,536,50,61,-0.5
71618,07:34:33,608526962,test,2,-0.5,96,2,65,0,422,50,59,-0.5
71618,07:34:33,608526962,test,2,-0.5,98,10,6,1,513,50,60,-0.5
71618,07:34:33,608526962,test,2,0.5,100,5,62,1,551,51,60,-0.5
71618,07:34:33,608526962,test,2,0.5,102,11,58,1,460,53,60,-0.5
71618,07:34:33,608526962,test,2,0.5,104,2,20,0,1604,51,60,-0.5
71618,07:34:33,608526962,test,2,-0.5,106,6,40,1,472,51,62,-0.5
71618,07:34:33,608526962,test,2,0.5,108,10,24,1,591,53,62,-0.5
71618,07:34:33,608526962,test,2,-0.5,110,1,15,1,571,53,64,-0.5
71618,07:34:33,608526962,test,2,0.5,112,8,51,1,616,54,64,-0.5
71618,07:34:33,608526962,test,2,-0.5,114,11,13,1,490,54,65,-0.5
71618,07:34:33,608526962,test,2,-0.5,116,3,70,1,393,54,66,-0.5
71618,07:34:33,608526962,test,2,-0.5,118,5,12,0,469,54,64,-0.5
71618,07:34:33,608526962,test,2,-0.5,120,9,5,0,508,54,62,-0.5
71618,07:34:33,608526962,test,2,-0.5,122,8,43,1,419,54,63,-0.5
71618,07:34:33,608526962,test,2,-0.5,124,12,67,1,677,54,64,-0.5
71618,07:34:33,608526962,test,2,-0.5,126,9,4,1,466,54,65,-0.5
71618,07:34:33,608526962,test,2,-0.5,128,10,10,1,445,54,66,-0.5
71618,07:34:33,608526962,test,2,0.5,130,10,31,0,535,53,66,-0.5
71618,07:34:33,608526962,test,2,0.5,132,4,58,0,540,51,66,-0.5
71618,07:34:33,608526962,test,2,-0.5,134,12,72,1,538,51,67,-0.5
71618,07:34:33,608526962,test,2,-0.5,136,7,40,1,399,51,68,-0.5
71618,07:34:33,608526962,test,2,0.5,138,11,12,0,722,50,68,-0.5
71618,07:34:33,608526962,test,2,0.5,140,8,71,0,672,48,68,-0.5
71618,07:34:33,608526962,test,2,0.5,142,5,69,0,712,47,68,-0.5
71618,07:34:33,608526962,test,2,-0.5,144,6,50,0,431,47,66,-0.5
71618,22:33:10,187488134,test,2,-0.5,2,10,57,1,1174,0,100,0.5
71618,22:33:10,187488134,test,2,0.5,4,11,35,1,4369,100,100,0.5
71618,22:33:10,187488134,test,2,0.5,6,3,21,1,563,100,100,-0.5
71618,22:33:10,187488134,test,2,0.5,8,5,51,1,406,100,100,-0.5
71618,22:33:10,187488134,test,2,-0.5,10,9,71,1,79,100,100,0.5
71618,22:33:10,187488134,test,2,0.5,12,6,53,1,405,100,100,0.5
71618,22:33:10,187488134,test,2,-0.5,14,1,59,0,255,100,66,0.5
71618,22:33:10,187488134,test,2,-0.5,16,5,45,0,350,100,50,0.5
71618,22:33:10,187488134,test,2,-0.5,18,2,43,0,545,100,40,0.5
71618,22:33:10,187488134,test,2,-0.5,20,7,9,0,19269,100,33,0.5
71618,22:33:10,187488134,test,2,0.5,22,1,70,0,604,80,33,-0.5
71618,22:33:10,187488134,test,2,-0.5,24,11,54,0,468,80,28,-0.5
71618,22:33:10,187488134,test,2,0.5,26,2,32,0,91,66,28,-0.5
71618,22:33:10,187488134,test,2,0.5,28,9,17,0,7864,57,28,-0.5
71618,22:33:10,187488134,test,2,0.5,30,8,37,1,3014,62,28,-0.5
71618,22:33:10,187488134,test,2,-0.5,32,4,6,0,23,62,25,-0.5
71618,22:33:10,187488134,test,2,-0.5,34,7,22,0,2543,62,22,-0.5
71618,22:33:10,187488134,test,2,0.5,36,9,29,0,2210,55,22,-0.5
71618,22:33:10,187488134,test,2,0.5,38,2,11,1,195,60,22,-0.5
71618,22:33:10,187488134,test,2,0.5,40,3,44,1,92,63,22,-0.5
71618,22:33:10,187488134,test,2,-0.5,42,12,2,1,89,63,30,-0.5
71618,22:33:10,187488134,test,2,-0.5,44,6,50,1,79,63,36,-0.5
71618,22:33:10,187488134,test,2,-0.5,46,3,28,0,4861,63,33,-0.5
71618,22:33:10,187488134,test,2,0.5,48,5,14,0,3019,58,33,-0.5
71618,22:33:10,187488134,test,2,-0.5,50,8,58,0,3899,58,30,0.5
71618,22:33:10,187488134,test,2,0.5,52,11,4,0,408,53,30,0.5
71618,22:33:10,187488134,test,2,-0.5,54,11,40,0,458,53,28,0.5
71618,22:33:10,187488134,test,2,-0.5,56,9,69,0,513,53,26,0.5
71618,22:33:10,187488134,test,2,-0.5,58,2,20,0,4518,53,25,-0.5
71618,22:33:10,187488134,test,2,-0.5,60,10,36,1,970,53,29,-0.5
71618,22:33:10,187488134,test,2,-0.5,62,1,47,0,180,53,27,0.5
71618,22:33:10,187488134,test,2,-0.5,64,5,65,0,207,53,26,0.5
71618,22:33:10,187488134,test,2,-0.5,66,3,42,0,312,53,25,0.5
71618,22:33:10,187488134,test,2,-0.5,68,11,61,0,326,53,23,0.5
71618,22:33:10,187488134,test,2,0.5,70,7,23,1,290,57,23,0.5
71618,22:33:10,187488134,test,2,-0.5,72,10,12,0,368,57,22,0.5
71618,22:33:10,187488134,test,2,-0.5,74,6,8,0,675,57,21,0.5
71618,22:33:10,187488134,test,2,0.5,76,6,18,1,305,60,21,0.5
71618,22:33:10,187488134,test,2,0.5,78,1,1,0,607,56,21,0.5
71618,22:33:10,187488134,test,2,0.5,80,4,27,0,80,52,21,0.5
71618,22:33:10,187488134,test,2,-0.5,82,4,3,0,951,52,20,0.5
71618,22:33:10,187488134,test,2,0.5,84,12,33,0,418,50,20,0.5
71618,22:33:10,187488134,test,2,0.5,86,10,39,1,451,52,20,0.5
71618,22:33:10,187488134,test,2,-0.5,88,5,48,0,370,52,20,0.5
71618,22:33:10,187488134,test,2,-0.5,90,8,16,0,357,52,19,0.5
71618,22:33:10,187488134,test,2,-0.5,92,12,41,0,416,52,18,0.5
71618,22:33:10,187488134,test,2,0.5,94,8,56,1,617,55,18,0.5
71618,22:33:10,187488134,test,2,0.5,96,1,25,1,737,57,18,0.5
71618,22:33:10,187488134,test,2,0.5,98,12,38,1,4285,59,18,0.5
71618,22:33:10,187488134,test,2,0.5,100,9,26,0,1539,56,18,-0.5
71618,22:33:10,187488134,test,2,-0.5,102,2,46,1,1430,56,21,-0.5
71618,22:33:10,187488134,test,2,-0.5,104,9,64,0,2494,56,20,-0.5
71618,22:33:10,187488134,test,2,0.5,106,7,52,1,260,58,20,-0.5
71618,22:33:10,187488134,test,2,-0.5,108,1,55,0,186,58,20,0.5
71618,22:33:10,187488134,test,2,0.5,110,3,24,0,548,56,20,0.5
71618,22:33:10,187488134,test,2,0.5,112,10,7,0,784,53,20,0.5
71618,22:33:10,187488134,test,2,0.5,114,4,31,1,442,55,20,0.5
71618,22:33:10,187488134,test,2,-0.5,116,7,72,0,450,55,19,0.5
71618,22:33:10,187488134,test,2,0.5,118,6,60,0,466,53,19,0.5
71618,22:33:10,187488134,test,2,0.5,120,5,5,0,696,51,19,0.5
71618,22:33:10,187488134,test,2,-0.5,122,11,30,1,1582,51,21,-0.5
71618,22:33:10,187488134,test,2,0.5,124,11,49,1,584,53,21,0.5
71618,22:33:10,187488134,test,2,0.5,126,2,24,1,426,54,21,-0.5
71618,22:33:10,187488134,test,2,-0.5,128,7,17,0,258,54,21,0.5
71618,22:33:10,187488134,test,2,-0.5,130,1,56,0,545,54,20,0.5
71618,22:33:10,187488134,test,2,-0.5,132,2,16,0,5901,54,20,-0.5
71618,22:33:10,187488134,test,2,0.5,134,12,18,0,1626,53,20,-0.5
71618,22:33:10,187488134,test,2,0.5,136,7,15,1,1282,54,20,-0.5
71618,22:33:10,187488134,test,2,0.5,138,4,35,1,272,55,20,0.5
71618,22:33:10,187488134,test,2,0.5,140,6,44,1,758,57,20,-0.5
71618,22:33:10,187488134,test,2,-0.5,142,10,47,0,913,57,19,-0.5
71618,22:33:10,187488134,test,2,0.5,144,11,60,1,246,58,19,0.5
71618,05:36:06,3545965,test,2,0.5,2,1,53,1,412,100,0,0.5
71618,05:36:06,3545965,test,2,0.5,4,4,15,0,662,50,0,0.5
71618,05:36:06,3545965,test,2,0.5,6,5,3,1,369,66,0,0.5
71618,05:36:06,3545965,test,2,-0.5,8,10,19,0,780,66,0,0.5
71618,05:36:06,3545965,test,2,0.5,10,12,52,1,421,75,0,0.5
71618,05:36:06,3545965,test,2,0.5,12,11,39,1,335,80,0,0.5
71618,05:36:06,3545965,test,2,-0.5,14,8,65,0,551,80,0,0.5
71618,05:36:06,3545965,test,2,0.5,16,2,14,1,390,83,0,0.5
71618,05:36:06,3545965,test,2,0.5,18,10,28,1,361,85,0,0.5
71618,05:36:06,3545965,test,2,0.5,20,5,57,1,511,87,0,0.5
71618,05:36:06,3545965,test,2,-0.5,22,11,63,0,470,87,0,0.5
71618,05:36:06,3545965,test,2,-0.5,24,12,41,0,658,87,0,0.5
71618,05:36:06,3545965,test,2,0.5,26,11,5,1,425,88,0,0.5
71618,05:36:06,3545965,test,2,-0.5,28,5,64,0,327,88,0,0.5
71618,05:36:06,3545965,test,2,-0.5,30,6,10,0,422,88,0,0.5
71618,05:36:06,3545965,test,2,0.5,32,6,35,1,382,90,0,0.5
71618,05:36:06,3545965,test,2,0.5,34,9,17,1,390,90,0,0.5
71618,05:36:06,3545965,test,2,-0.5,36,3,1,0,369,90,0,0.5
71618,05:36:06,3545965,test,2,-0.5,38,1,70,0,323,90,0,0.5
71618,05:36:06,3545965,test,2,-0.5,40,7,4,0,387,90,0,0.5
71618,05:36:06,3545965,test,2,-0.5,42,5,36,0,326,90,0,0.5
71618,05:36:06,3545965,test,2,-0.5,44,11,61,0,434,90,0,0.5
71618,05:36:06,3545965,test,2,0.5,46,4,34,0,438,83,0,0.5
71618,05:36:06,3545965,test,2,0.5,48,7,56,1,399,84,0,0.5
71618,05:36:06,3545965,test,2,0.5,50,2,26,1,624,85,0,0.5
71618,05:36:06,3545965,test,2,-0.5,52,8,49,0,314,85,0,0.5
71618,05:36:06,3545965,test,2,0.5,54,8,60,1,506,86,0,0.5
71618,05:36:06,3545965,test,2,0.5,56,3,38,1,347,87,0,0.5
71618,05:36:06,3545965,test,2,-0.5,58,9,8,0,366,87,0,0.5
71618,05:36:06,3545965,test,2,0.5,60,12,45,1,347,88,0,0.5
71618,05:36:06,3545965,test,2,-0.5,62,12,25,0,498,88,0,0.5
71618,05:36:06,3545965,test,2,0.5,64,1,32,1,343,88,0,0.5
71618,05:36:06,3545965,test,2,-0.5,66,2,40,0,342,88,0,0.5
71618,05:36:06,3545965,test,2,0.5,68,10,29,1,244,89,0,0.5
71618,05:36:06,3545965,test,2,-0.5,70,3,23,0,287,89,0,0.5
71618,05:36:06,3545965,test,2,-0.5,72,6,59,0,385,89,0,0.5
71618,05:36:06,3545965,test,2,-0.5,74,4,50,0,373,89,0,0.5
71618,05:36:06,3545965,test,2,-0.5,76,10,18,0,349,89,0,0.5
71618,05:36:06,3545965,test,2,-0.5,78,5,24,0,259,89,0,0.5
71618,05:36:06,3545965,test,2,0.5,80,3,37,1,343,90,0,0.5
71618,05:36:06,3545965,test,2,0.5,82,12,68,1,342,90,0,0.5
71618,05:36:06,3545965,test,2,-0.5,84,1,42,0,271,90,0,0.5
71618,05:36:06,3545965,test,2,-0.5,86,3,21,0,315,90,0,0.5
71618,05:36:06,3545965,test,2,-0.5,88,10,67,0,314,90,0,0.5
71618,05:36:06,3545965,test,2,-0.5,90,6,47,0,373,90,0,0.5
71618,05:36:06,3545965,test,2,-0.5,92,11,31,0,338,90,0,0.5
71618,05:36:06,3545965,test,2,0.5,94,8,43,1,366,90,0,0.5
71618,05:36:06,3545965,test,2,0.5,96,1,16,1,281,91,0,0.5
71618,05:36:06,3545965,test,2,-0.5,98,8,11,0,267,91,0,0.5
71618,05:36:06,3545965,test,2,0.5,100,4,33,0,383,87,0,0.5
71618,05:36:06,3545965,test,2,-0.5,102,7,30,0,353,87,0,0.5
71618,05:36:06,3545965,test,2,0.5,104,11,44,1,270,88,0,0.5
71618,05:36:06,3545965,test,2,0.5,106,2,20,1,336,88,0,0.5
71618,05:36:06,3545965,test,2,0.5,108,6,9,1,389,88,0,0.5
71618,05:36:06,3545965,test,2,0.5,110,9,22,1,281,89,0,0.5
71618,05:36:06,3545965,test,2,0.5,112,10,58,1,320,89,0,0.5
71618,05:36:06,3545965,test,2,-0.5,114,4,13,0,380,89,0,0.5
71618,05:36:06,3545965,test,2,0.5,116,5,62,1,338,90,0,0.5
71618,05:36:06,3545965,test,2,0.5,118,7,66,1,336,90,0,0.5
71618,05:36:06,3545965,test,2,0.5,120,4,48,0,363,87,0,0.5
71618,05:36:06,3545965,test,2,0.5,122,10,71,1,374,87,0,0.5
71618,05:36:06,3545965,test,2,0.5,124,12,55,1,375,88,0,0.5
71618,05:36:06,3545965,test,2,0.5,126,5,11,1,349,88,0,0.5
71618,05:36:06,3545965,test,2,-0.5,128,2,63,0,399,88,0,0.5
71618,05:36:06,3545965,test,2,-0.5,130,9,13,0,397,88,0,0.5
71618,05:36:06,3545965,test,2,-0.5,132,12,29,0,717,88,0,0.5
71618,05:36:06,3545965,test,2,-0.5,134,9,1,0,583,88,0,0.5
71618,05:36:06,3545965,test,2,-0.5,136,12,12,0,443,88,0,0.5
71618,05:36:06,3545965,test,2,-0.5,138,11,23,0,439,88,0,0.5
71618,05:36:06,3545965,test,2,-0.5,140,1,32,0,289,88,0,0.5
71618,05:36:06,3545965,test,2,-0.5,142,10,43,0,260,88,0,0.5
71618,05:36:06,3545965,test,2,0.5,144,6,68,1,404,88,0,0.5
71618,08:50:13,689281609,test,2,0.5,2,6,48,0,1379,0,0,-0.5
71618,08:50:13,689281609,test,2,-0.5,4,9,28,0,502,0,0,-0.5
71618,08:50:13,689281609,test,2,0.5,6,8,49,1,634,50,0,-0.5
71618,08:50:13,689281609,test,2,0.5,8,5,33,0,649,33,0,-0.5
71618,08:50:13,689281609,test,2,-0.5,10,3,61,0,496,33,0,-0.5
71618,08:50:13,689281609,test,2,-0.5,12,8,35,0,894,33,0,-0.5
71618,08:50:13,689281609,test,2,-0.5,14,4,65,0,467,33,0,-0.5
71618,08:50:13,689281609,test,2,-0.5,16,11,2,1,417,33,20,-0.5
71618,08:50:13,689281609,test,2,-0.5,18,10,58,0,490,33,16,-0.5
71618,08:50:13,689281609,test,2,0.5,20,10,19,1,631,50,16,-0.5
71618,08:50:13,689281609,test,2,-0.5,22,7,37,0,951,50,14,-0.5
71618,08:50:13,689281609,test,2,0.5,24,4,34,0,994,40,14,-0.5
71618,08:50:13,689281609,test,2,-0.5,26,10,54,1,1396,40,25,-0.5
71618,08:50:13,689281609,test,2,0.5,28,7,9,1,469,50,25,-0.5
71618,08:50:13,689281609,test,2,-0.5,30,4,64,0,483,50,22,-0.5
71618,08:50:13,689281609,test,2,-0.5,32,12,18,0,744,50,20,-0.5
71618,08:50:13,689281609,test,2,-0.5,34,8,3,0,556,50,18,-0.5
71618,08:50:13,689281609,test,2,0.5,36,12,21,0,455,42,18,-0.5
71618,08:50:13,689281609,test,2,-0.5,38,11,41,0,1006,42,16,-0.5
71618,08:50:13,689281609,test,2,0.5,40,1,70,1,647,50,16,-0.5
71618,08:50:13,689281609,test,2,0.5,42,12,63,0,582,44,16,-0.5
71618,08:50:13,689281609,test,2,0.5,44,10,26,0,560,40,16,-0.5
71618,08:50:13,689281609,test,2,0.5,46,2,27,0,818,36,16,-0.5
71618,08:50:13,689281609,test,2,-0.5,48,1,13,0,675,36,15,-0.5
71618,08:50:13,689281609,test,2,-0.5,50,3,25,0,553,36,14,-0.5
71618,08:50:13,689281609,test,2,-0.5,52,9,11,0,540,36,13,-0.5
71618,08:50:13,689281609,test,2,-0.5,54,5,38,0,871,36,12,-0.5
71618,08:50:13,689281609,test,2,0.5,56,5,4,1,550,41,12,-0.5
71618,08:50:13,689281609,test,2,-0.5,58,7,56,0,528,41,11,-0.5
71618,08:50:13,689281609,test,2,0.5,60,11,6,1,468,46,11,-0.5
71618,08:50:13,689281609,test,2,-0.5,62,2,53,0,451,46,11,-0.5
71618,08:50:13,689281609,test,2,0.5,64,6,47,1,602,50,11,-0.5
71618,08:50:13,689281609,test,2,0.5,66,8,57,0,986,46,11,-0.5
71618,08:50:13,689281609,test,2,0.5,68,7,36,1,452,50,11,-0.5
71618,08:50:13,689281609,test,2,0.5,70,9,22,0,651,47,11,-0.5
71618,08:50:13,689281609,test,2,-0.5,72,6,60,0,761,47,10,-0.5
71618,08:50:13,689281609,test,2,0.5,74,3,50,0,2156,44,10,-0.5
71618,08:50:13,689281609,test,2,-0.5,76,9,10,0,487,44,10,-0.5
71618,08:50:13,689281609,test,2,-0.5,78,7,14,0,613,44,9,-0.5
71618,08:50:13,689281609,test,2,-0.5,80,11,42,0,582,44,9,-0.5
71618,08:50:13,689281609,test,2,0.5,82,4,66,1,704,47,9,-0.5
71618,08:50:13,689281609,test,2,0.5,84,6,1,1,605,50,9,-0.5
71618,08:50:13,689281609,test,2,-0.5,86,12,45,0,862,50,8,-0.5
71618,08:50:13,689281609,test,2,0.5,88,5,55,0,564,47,8,-0.5
71618,08:50:13,689281609,test,2,-0.5,90,10,72,0,687,47,8,-0.5
71618,08:50:13,689281609,test,2,0.5,92,11,23,0,660,45,8,-0.5
71618,08:50:13,689281609,test,2,0.5,94,3,15,0,635,43,8,-0.5
71618,08:50:13,689281609,test,2,0.5,96,9,5,0,626,41,8,-0.5
71618,08:50:13,689281609,test,2,0.5,98,7,20,0,466,40,8,-0.5
71618,08:50:13,689281609,test,2,-0.5,100,6,52,0,369,40,8,-0.5
71618,08:50:13,689281609,test,2,0.5,102,10,16,1,803,42,8,-0.5
71618,08:50:13,689281609,test,2,-0.5,104,5,39,1,492,42,11,-0.5
71618,08:50:13,689281609,test,2,-0.5,106,2,67,0,449,42,11,-0.5
71618,08:50:13,689281609,test,2,0.5,108,1,46,1,528,44,11,-0.5
71618,08:50:13,689281609,test,2,0.5,110,12,30,1,524,46,11,-0.5
71618,08:50:13,689281609,test,2,-0.5,112,1,32,0,384,46,10,-0.5
71618,08:50:13,689281609,test,2,-0.5,114,3,43,0,458,46,10,-0.5
71618,08:50:13,689281609,test,2,-0.5,116,8,68,0,616,46,10,-0.5
71618,08:50:13,689281609,test,2,-0.5,118,4,44,0,489,46,9,-0.5
71618,08:50:13,689281609,test,2,0.5,120,2,12,0,502,44,9,-0.5
71618,08:50:13,689281609,test,2,0.5,122,8,51,1,499,46,9,-0.5
71618,08:50:13,689281609,test,2,-0.5,124,8,31,0,344,46,9,-0.5
71618,08:50:13,689281609,test,2,0.5,126,4,28,0,380,45,9,-0.5
71618,08:50:13,689281609,test,2,-0.5,128,4,11,0,326,45,9,-0.5
71618,08:50:13,689281609,test,2,-0.5,130,6,25,0,498,45,8,-0.5
71618,08:50:13,689281609,test,2,-0.5,132,11,41,0,1191,45,8,-0.5
71618,08:50:13,689281609,test,2,0.5,134,12,33,0,625,43,8,-0.5
71618,08:50:13,689281609,test,2,0.5,136,2,51,0,1721,42,8,-0.5
71618,08:50:13,689281609,test,2,0.5,138,11,34,0,478,41,8,-0.5
71618,08:50:13,689281609,test,2,0.5,140,1,31,0,452,40,8,-0.5
71618,08:50:13,689281609,test,2,0.5,142,7,26,0,435,38,8,-0.5
71618,08:50:13,689281609,test,2,-0.5,144,12,10,1,1018,38,11,-0.5
71618,16:52:47,651077529,test,2,0.5,2,6,55,0,687,0,0,-0.5
71618,16:52:47,651077529,test,2,-0.5,4,5,49,0,1548,0,0,-0.5
71618,16:52:47,651077529,test,2,-0.5,6,7,19,0,773,0,0,-0.5
71618,16:52:47,651077529,test,2,0.5,8,9,31,0,606,0,0,-0.5
71618,16:52:47,651077529,test,2,0.5,10,11,48,0,702,0,0,-0.5
71618,16:52:47,651077529,test,2,-0.5,12,10,44,1,392,0,33,-0.5
71618,16:52:47,651077529,test,2,-0.5,14,12,25,1,416,0,50,-0.5
71618,16:52:47,651077529,test,2,0.5,16,5,10,1,2422,25,50,-0.5
71618,16:52:47,651077529,test,2,-0.5,18,8,2,1,589,25,60,-0.5
71618,16:52:47,651077529,test,2,-0.5,20,3,40,1,948,25,66,-0.5
71618,16:52:47,651077529,test,2,-0.5,22,4,30,1,854,25,71,-0.5
71618,16:52:47,651077529,test,2,0.5,24,12,7,1,506,40,71,-0.5
71618,16:52:47,651077529,test,2,-0.5,26,5,60,0,551,40,62,0.5
71618,16:52:47,651077529,test,2,-0.5,28,10,23,1,561,40,66,-0.5
71618,16:52:47,651077529,test,2,0.5,30,4,22,0,868,33,66,-0.5
71618,16:52:47,651077529,test,2,-0.5,32,2,16,0,585,33,60,-0.5
71618,16:52:47,651077529,test,2,0.5,34,8,18,0,697,28,60,-0.5
71618,16:52:47,651077529,test,2,-0.5,36,6,8,1,1054,28,63,-0.5
71618,16:52:47,651077529,test,2,0.5,38,1,26,0,700,25,63,-0.5
71618,16:52:47,651077529,test,2,0.5,40,5,53,0,785,22,63,-0.5
71618,16:52:47,651077529,test,2,-0.5,42,7,57,1,1619,22,66,-0.5
71618,16:52:47,651077529,test,2,-0.5,44,3,1,0,4291,22,61,-0.5
71618,16:52:47,651077529,test,2,0.5,46,11,20,0,648,20,61,-0.5
71618,16:52:47,651077529,test,2,0.5,48,7,58,0,527,18,61,-0.5
71618,16:52:47,651077529,test,2,0.5,50,10,21,1,1771,25,61,0.5
71618,16:52:47,651077529,test,2,0.5,52,4,64,0,509,23,61,-0.5
71618,16:52:47,651077529,test,2,0.5,54,9,67,0,634,21,61,-0.5
71618,16:52:47,651077529,test,2,0.5,56,3,46,1,321,26,61,-0.5
71618,16:52:47,651077529,test,2,-0.5,58,4,41,1,653,26,64,0.5
71618,16:52:47,651077529,test,2,0.5,60,2,35,1,493,31,64,0.5
71618,16:52:47,651077529,test,2,-0.5,62,11,43,1,675,31,66,-0.5
71618,16:52:47,651077529,test,2,0.5,64,8,36,1,993,35,66,-0.5
71618,16:52:47,651077529,test,2,-0.5,66,1,4,0,1002,35,62,-0.5
71618,16:52:47,651077529,test,2,-0.5,68,8,45,0,1107,35,58,-0.5
71618,16:52:47,651077529,test,2,-0.5,70,12,52,1,1431,35,61,0.5
71618,16:52:47,651077529,test,2,-0.5,72,9,68,1,616,35,63,-0.5
71618,16:52:47,651077529,test,2,0.5,74,6,59,0,496,33,63,-0.5
71618,16:52:47,651077529,test,2,0.5,76,12,12,1,637,36,63,0.5
71618,16:52:47,651077529,test,2,-0.5,78,12,70,1,1141,36,65,0.5
71618,16:52:47,651077529,test,2,-0.5,80,6,69,0,624,36,61,-0.5
71618,16:52:47,651077529,test,2,-0.5,82,7,33,0,481,36,59,-0.5
71618,16:52:47,651077529,test,2,-0.5,84,9,34,0,455,36,56,-0.5
71618,16:52:47,651077529,test,2,0.5,86,5,47,0,766,35,56,-0.5
71618,16:52:47,651077529,test,2,0.5,88,6,37,0,352,33,56,-0.5
71618,16:52:47,651077529,test,2,0.5,90,11,66,1,410,36,56,0.5
71618,16:52:47,651077529,test,2,0.5,92,1,42,0,732,34,56,-0.5
71618,16:52:47,651077529,test,2,0.5,94,2,13,1,375,37,56,-0.5
71618,16:52:47,651077529,test,2,-0.5,96,8,3,1,937,37,58,-0.5
71618,16:52:47,651077529,test,2,-0.5,98,5,9,1,1324,37,60,-0.5
71618,16:52:47,651077529,test,2,0.5,100,12,15,1,384,40,60,0.5
71618,16:52:47,651077529,test,2,-0.5,102,10,29,1,669,40,61,-0.5
71618,16:52:47,651077529,test,2,-0.5,104,3,50,0,472,40,59,0.5
71618,16:52:47,651077529,test,2,-0.5,106,2,61,1,1735,40,60,-0.5
71618,16:52:47,651077529,test,2,-0.5,108,11,28,0,675,40,58,-0.5
71618,16:52:47,651077529,test,2,0.5,110,7,62,0,471,38,58,-0.5
71618,16:52:47,651077529,test,2,-0.5,112,4,27,0,445,38,56,-0.5
71618,16:52:47,651077529,test,2,0.5,114,10,17,1,557,40,56,-0.5
71618,16:52:47,651077529,test,2,0.5,116,4,65,0,303,39,56,-0.5
71618,16:52:47,651077529,test,2,-0.5,118,1,54,0,1315,39,54,0.5
71618,16:52:47,651077529,test,2,-0.5,120,6,71,0,952,39,53,-0.5
71618,16:52:47,651077529,test,2,0.5,122,3,38,1,322,41,53,0.5
71618,16:52:47,651077529,test,2,0.5,124,9,32,0,478,40,53,-0.5
71618,16:52:47,651077529,test,2,-0.5,126,7,16,0,412,40,51,0.5
71618,16:52:47,651077529,test,2,-0.5,128,4,50,0,790,40,50,-0.5
71618,16:52:47,651077529,test,2,-0.5,130,9,52,1,871,40,51,-0.5
71618,16:52:47,651077529,test,2,0.5,132,8,70,0,653,38,51,-0.5
71618,16:52:47,651077529,test,2,0.5,134,4,67,0,396,37,51,-0.5
71618,16:52:47,651077529,test,2,0.5,136,6,40,0,469,36,51,-0.5
71618,16:52:47,651077529,test,2,0.5,138,11,31,0,643,35,51,-0.5
71618,16:52:47,651077529,test,2,0.5,140,7,51,1,722,37,51,-0.5
71618,16:52:47,651077529,test,2,0.5,142,10,20,0,894,36,51,-0.5
71618,16:52:47,651077529,test,2,-0.5,144,2,14,0,595,36,50,-0.5
71618,07:54:16,142189929,test,2,0.5,2,7,11,0,822,0,0,-0.5
71618,07:54:16,142189929,test,2,0.5,4,4,65,0,675,0,0,-0.5
71618,07:54:16,142189929,test,2,-0.5,6,6,35,0,841,0,0,-0.5
71618,07:54:16,142189929,test,2,0.5,8,3,59,0,915,0,0,-0.5
71618,07:54:16,142189929,test,2,0.5,10,8,18,0,916,0,0,-0.5
71618,07:54:16,142189929,test,2,0.5,12,11,29,1,1039,20,0,-0.5
71618,07:54:16,142189929,test,2,-0.5,14,8,38,1,1393,20,50,-0.5
71618,07:54:16,142189929,test,2,0.5,16,9,44,0,706,16,50,-0.5
71618,07:54:16,142189929,test,2,0.5,18,10,72,1,1792,28,50,-0.5
71618,07:54:16,142189929,test,2,0.5,20,12,30,0,733,25,50,-0.5
71618,07:54:16,142189929,test,2,0.5,22,2,3,0,736,22,50,-0.5
71618,07:54:16,142189929,test,2,0.5,24,6,32,0,739,20,50,-0.5
71618,07:54:16,142189929,test,2,-0.5,26,5,54,0,798,20,33,-0.5
71618,07:54:16,142189929,test,2,-0.5,28,12,33,1,1090,20,50,-0.5
71618,07:54:16,142189929,test,2,-0.5,30,1,37,0,878,20,40,-0.5
71618,07:54:16,142189929,test,2,-0.5,32,4,21,0,1894,20,33,0.5
71618,07:54:16,142189929,test,2,-0.5,34,9,69,0,956,20,28,-0.5
71618,07:54:16,142189929,test,2,-0.5,36,1,22,1,877,20,37,-0.5
71618,07:54:16,142189929,test,2,0.5,38,9,41,0,1309,18,37,-0.5
71618,07:54:16,142189929,test,2,-0.5,40,4,1,0,771,18,33,-0.5
71618,07:54:16,142189929,test,2,0.5,42,11,70,0,1141,16,33,-0.5
71618,07:54:16,142189929,test,2,0.5,44,8,64,0,973,15,33,-0.5
71618,07:54:16,142189929,test,2,-0.5,46,2,5,0,703,15,30,-0.5
71618,07:54:16,142189929,test,2,-0.5,48,9,13,1,918,15,36,-0.5
71618,07:54:16,142189929,test,2,0.5,50,3,67,0,683,14,36,0.5
71618,07:54:16,142189929,test,2,0.5,52,10,28,0,1119,13,36,-0.5
71618,07:54:16,142189929,test,2,-0.5,54,10,27,1,791,13,41,-0.5
71618,07:54:16,142189929,test,2,0.5,56,4,20,0,957,12,41,-0.5
71618,07:54:16,142189929,test,2,0.5,58,1,24,1,760,17,41,-0.5
71618,07:54:16,142189929,test,2,0.5,60,5,60,1,1713,22,41,0.5
71618,07:54:16,142189929,test,2,-0.5,62,8,14,0,780,22,38,-0.5
71618,07:54:16,142189929,test,2,-0.5,64,7,62,0,2168,22,35,0.5
71618,07:54:16,142189929,test,2,-0.5,66,6,39,1,1159,22,40,-0.5
71618,07:54:16,142189929,test,2,-0.5,68,3,52,0,727,22,37,-0.5
71618,07:54:16,142189929,test,2,0.5,70,7,40,0,656,21,37,-0.5
71618,07:54:16,142189929,test,2,0.5,72,7,31,0,1120,20,37,-0.5
71618,07:54:16,142189929,test,2,0.5,74,12,12,0,1050,19,37,-0.5
71618,07:54:16,142189929,test,2,0.5,76,4,23,1,777,22,37,-0.5
71618,07:54:16,142189929,test,2,-0.5,78,11,42,0,673,22,35,-0.5
71618,07:54:16,142189929,test,2,0.5,80,10,68,1,1780,26,35,-0.5
71618,07:54:16,142189929,test,2,0.5,82,8,47,0,996,25,35,-0.5
71618,07:54:16,142189929,test,2,-0.5,84,12,15,0,749,25,33,-0.5
71618,07:54:16,142189929,test,2,0.5,86,6,56,0,1036,24,33,-0.5
71618,07:54:16,142189929,test,2,-0.5,88,5,6,1,1843,24,36,-0.5
71618,07:54:16,142189929,test,2,-0.5,90,7,36,1,725,24,40,-0.5
71618,07:54:16,142189929,test,2,-0.5,92,3,17,1,749,24,42,-0.5
71618,07:54:16,142189929,test,2,-0.5,94,8,71,0,636,24,40,-0.5
71618,07:54:16,142189929,test,2,0.5,96,2,4,0,698,23,40,-0.5
71618,07:54:16,142189929,test,2,-0.5,98,12,66,0,1798,23,39,0.5
71618,07:54:16,142189929,test,2,-0.5,100,11,25,0,830,23,37,-0.5
71618,07:54:16,142189929,test,2,-0.5,102,1,53,0,1569,23,36,0.5
71618,07:54:16,142189929,test,2,0.5,104,3,57,0,1720,22,36,0.5
71618,07:54:16,142189929,test,2,-0.5,106,6,51,0,2561,22,34,-0.5
71618,07:54:16,142189929,test,2,0.5,108,1,46,1,1041,25,34,-0.5
71618,07:54:16,142189929,test,2,0.5,110,9,50,0,630,24,34,-0.5
71618,07:54:16,142189929,test,2,-0.5,112,4,26,0,1322,24,33,0.5
71618,07:54:16,142189929,test,2,-0.5,114,5,58,0,731,24,32,-0.5
71618,07:54:16,142189929,test,2,0.5,116,11,55,0,619,23,32,-0.5
71618,07:54:16,142189929,test,2,-0.5,118,10,8,0,874,23,31,-0.5
71618,07:54:16,142189929,test,2,0.5,120,5,10,0,668,22,31,-0.5
71618,07:54:16,142189929,test,2,0.5,122,4,19,0,649,21,31,-0.5
71618,07:54:16,142189929,test,2,-0.5,124,9,7,0,860,21,30,-0.5
71618,07:54:16,142189929,test,2,-0.5,126,2,40,0,570,21,29,-0.5
71618,07:54:16,142189929,test,2,-0.5,128,6,54,1,1261,21,31,-0.5
71618,07:54:16,142189929,test,2,0.5,130,8,34,0,635,21,31,-0.5
71618,07:54:16,142189929,test,2,0.5,132,2,72,0,1405,20,31,0.5
71618,07:54:16,142189929,test,2,0.5,134,1,58,1,2065,22,31,0.5
71618,07:54:16,142189929,test,2,-0.5,136,8,3,1,1745,22,33,-0.5
71618,07:54:16,142189929,test,2,0.5,138,7,38,1,793,25,33,-0.5
71618,07:54:16,142189929,test,2,-0.5,140,12,6,0,991,25,32,-0.5
71618,07:54:16,142189929,test,2,-0.5,142,9,10,0,668,25,31,-0.5
71618,07:54:16,142189929,test,2,-0.5,144,11,62,0,581,25,30,-0.5
71618,13:57:06,745230009,test,2,0.5,2,10,53,1,734,100,0,-0.5
71618,13:57:06,745230009,test,2,-0.5,4,8,7,0,802,100,0,0.5
71618,13:57:06,745230009,test,2,0.5,6,9,24,1,507,100,0,-0.5
71618,13:57:06,745230009,test,2,-0.5,8,12,56,1,624,100,50,-0.5
71618,13:57:06,745230009,test,2,0.5,10,8,72,0,576,66,50,0.5
71618,13:57:06,745230009,test,2,-0.5,12,2,23,0,1186,66,33,-0.5
71618,13:57:06,745230009,test,2,0.5,14,2,26,1,628,75,33,-0.5
71618,13:57:06,745230009,test,2,0.5,16,1,34,1,484,80,33,-0.5
71618,13:57:06,745230009,test,2,-0.5,18,9,48,1,481,80,50,-0.5
71618,13:57:06,745230009,test,2,0.5,20,12,58,1,471,83,50,-0.5
71618,13:57:06,745230009,test,2,0.5,22,7,41,1,1237,85,50,0.5
71618,13:57:06,745230009,test,2,0.5,24,3,8,1,517,87,50,0.5
71618,13:57:06,745230009,test,2,-0.5,26,5,54,1,673,87,60,-0.5
71618,13:57:06,745230009,test,2,0.5,28,11,39,1,368,88,60,-0.5
71618,13:57:06,745230009,test,2,0.5,30,9,20,0,882,80,60,-0.5
71618,13:57:06,745230009,test,2,0.5,32,8,17,1,600,81,60,-0.5
71618,13:57:06,745230009,test,2,0.5,34,6,45,1,480,83,60,-0.5
71618,13:57:06,745230009,test,2,0.5,36,7,30,1,406,84,60,-0.5
71618,13:57:06,745230009,test,2,0.5,38,4,68,0,639,78,60,-0.5
71618,13:57:06,745230009,test,2,-0.5,40,10,46,1,566,78,66,-0.5
71618,13:57:06,745230009,test,2,0.5,42,10,2,0,544,73,66,-0.5
71618,13:57:06,745230009,test,2,0.5,44,2,14,1,540,75,66,0.5
71618,13:57:06,745230009,test,2,0.5,46,12,50,1,848,76,66,0.5
71618,13:57:06,745230009,test,2,-0.5,48,4,47,0,1039,76,57,0.5
71618,13:57:06,745230009,test,2,-0.5,50,7,11,0,791,76,50,0.5
71618,13:57:06,745230009,test,2,-0.5,52,4,69,0,642,76,44,0.5
71618,13:57:06,745230009,test,2,0.5,54,5,18,1,569,77,44,-0.5
71618,13:57:06,745230009,test,2,-0.5,56,6,19,1,691,77,50,-0.5
71618,13:57:06,745230009,test,2,0.5,58,1,27,0,545,73,50,-0.5
71618,13:57:06,745230009,test,2,-0.5,60,9,38,0,620,73,45,0.5
71618,13:57:06,745230009,test,2,0.5,62,5,40,1,437,75,45,0.5
71618,13:57:06,745230009,test,2,0.5,64,6,3,1,525,76,45,-0.5
71618,13:57:06,745230009,test,2,-0.5,66,12,43,1,473,76,50,-0.5
71618,13:57:06,745230009,test,2,-0.5,68,5,67,1,487,76,53,-0.5
71618,13:57:06,745230009,test,2,-0.5,70,11,35,1,524,76,57,-0.5
71618,13:57:06,745230009,test,2,-0.5,72,8,1,0,592,76,53,0.5
71618,13:57:06,745230009,test,2,-0.5,74,10,28,1,594,76,56,-0.5
71618,13:57:06,745230009,test,2,0.5,76,2,22,0,1187,72,56,-0.5
71618,13:57:06,745230009,test,2,-0.5,78,1,31,1,573,72,58,-0.5
71618,13:57:06,745230009,test,2,0.5,80,4,9,1,527,73,58,-0.5
71618,13:57:06,745230009,test,2,-0.5,82,3,4,1,483,73,61,-0.5
71618,13:57:06,745230009,test,2,0.5,84,3,59,1,432,75,61,-0.5
71618,13:57:06,745230009,test,2,0.5,86,1,36,1,456,76,61,-0.5
71618,13:57:06,745230009,test,2,-0.5,88,2,29,1,471,76,63,-0.5
71618,13:57:06,745230009,test,2,-0.5,90,4,60,0,901,76,60,0.5
71618,13:57:06,745230009,test,2,0.5,92,7,52,1,554,76,60,-0.5
71618,13:57:06,745230009,test,2,-0.5,94,5,62,1,773,76,61,-0.5
71618,13:57:06,745230009,test,2,0.5,96,10,44,1,1047,77,61,0.5
71618,13:57:06,745230009,test,2,-0.5,98,9,51,1,535,77,63,-0.5
71618,13:57:06,745230009,test,2,0.5,100,11,71,0,1170,75,63,0.5
71618,13:57:06,745230009,test,2,-0.5,102,3,15,0,773,75,60,0.5
71618,13:57:06,745230009,test,2,-0.5,104,1,21,0,719,75,58,0.5
71618,13:57:06,745230009,test,2,0.5,106,9,42,1,620,75,58,-0.5
71618,13:57:06,745230009,test,2,-0.5,108,10,6,1,1164,75,60,-0.5
71618,13:57:06,745230009,test,2,-0.5,110,7,25,0,574,75,57,0.5
71618,13:57:06,745230009,test,2,-0.5,112,8,65,0,809,75,55,0.5
71618,13:57:06,745230009,test,2,0.5,114,8,70,1,594,76,55,-0.5
71618,13:57:06,745230009,test,2,0.5,116,12,33,0,572,74,55,-0.5
71618,13:57:06,745230009,test,2,0.5,118,6,13,1,926,75,55,-0.5
71618,13:57:06,745230009,test,2,0.5,120,12,37,1,810,75,55,0.5
71618,13:57:06,745230009,test,2,-0.5,122,11,64,0,515,75,53,-0.5
71618,13:57:06,745230009,test,2,0.5,124,10,32,1,760,76,53,0.5
71618,13:57:06,745230009,test,2,-0.5,126,6,16,0,859,76,51,0.5
71618,13:57:06,745230009,test,2,-0.5,128,2,27,0,682,76,50,0.5
71618,13:57:06,745230009,test,2,-0.5,130,12,29,1,616,76,51,-0.5
71618,13:57:06,745230009,test,2,-0.5,132,5,24,1,768,76,53,-0.5
71618,13:57:06,745230009,test,2,-0.5,134,6,58,1,658,76,54,-0.5
71618,13:57:06,745230009,test,2,-0.5,136,10,47,0,617,76,52,0.5
71618,13:57:06,745230009,test,2,0.5,138,7,60,1,474,77,52,0.5
71618,13:57:06,745230009,test,2,0.5,140,3,56,1,1240,77,52,0.5
71618,13:57:06,745230009,test,2,-0.5,142,2,33,0,632,77,51,0.5
71618,13:57:06,745230009,test,2,-0.5,144,1,5,0,1328,77,50,0.5
71618,08:57:24,347479845,test,2,0.5,2,2,72,1,152,100,0,-0.5
71618,08:57:24,347479845,test,2,0.5,4,12,67,1,151,100,0,-0.5
71618,08:57:24,347479845,test,2,-0.5,6,9,35,1,182,100,100,-0.5
71618,08:57:24,347479845,test,2,0.5,8,7,19,1,151,100,100,-0.5
71618,08:57:24,347479845,test,2,-0.5,10,7,31,1,1107,100,100,-0.5
71618,08:57:24,347479845,test,2,0.5,12,9,65,1,973,100,100,-0.5
71618,08:57:24,347479845,test,2,-0.5,14,3,11,1,389,100,100,-0.5
71618,08:57:24,347479845,test,2,0.5,16,3,37,1,1959,100,100,-0.5
71618,08:57:24,347479845,test,2,-0.5,18,6,9,1,178,100,100,-0.5
71618,08:57:24,347479845,test,2,0.5,20,6,48,1,200,100,100,-0.5
71618,08:57:24,347479845,test,2,0.5,22,1,12,1,201,100,100,0.5
71618,08:57:24,347479845,test,2,-0.5,24,10,59,1,215,100,100,0.5
71618,08:57:24,347479845,test,2,-0.5,26,5,6,1,85,100,100,0.5
71618,08:57:24,347479845,test,2,-0.5,28,1,41,1,445,100,100,0.5
71618,08:57:24,347479845,test,2,-0.5,30,12,70,1,842,100,100,0.5
71618,08:57:24,347479845,test,2,-0.5,32,8,40,1,59,100,100,0.5
71618,08:57:24,347479845,test,2,0.5,34,2,57,1,35,100,100,0.5
71618,08:57:24,347479845,test,2,-0.5,36,10,10,1,172,100,100,0.5
71618,08:57:24,347479845,test,2,-0.5,38,6,32,1,240,100,100,0.5
71618,08:57:24,347479845,test,2,0.5,40,1,62,1,78,100,100,0.5
71618,08:57:24,347479845,test,2,0.5,42,9,69,1,154,100,100,0.5
71618,08:57:24,347479845,test,2,-0.5,44,9,56,1,44,100,100,0.5
71618,08:57:24,347479845,test,2,-0.5,46,3,29,1,31,100,100,0.5
71618,08:57:24,347479845,test,2,-0.5,48,2,50,1,54,100,100,0.5
71618,08:57:24,347479845,test,2,-0.5,50,4,44,1,49,100,100,0.5
71618,08:57:24,347479845,test,2,0.5,52,7,4,1,17,100,100,0.5
71618,08:57:24,347479845,test,2,-0.5,54,11,18,1,69,100,100,0.5
71618,08:57:24,347479845,test,2,0.5,56,10,49,1,727,100,100,0.5
71618,08:57:24,347479845,test,2,-0.5,58,5,43,1,125,100,100,0.5
71618,08:57:24,347479845,test,2,-0.5,60,7,36,1,203,100,100,0.5
71618,08:57:24,347479845,test,2,-0.5,62,1,47,1,161,100,100,0.5
71618,08:57:24,347479845,test,2,-0.5,64,12,27,1,352,100,100,0.5
71618,08:57:24,347479845,test,2,-0.5,66,3,25,1,368,100,100,0.5
71618,08:57:24,347479845,test,2,0.5,68,4,13,1,192,100,100,0.5
71618,08:57:24,347479845,test,2,0.5,70,5,66,1,297,100,100,0.5
71618,08:57:24,347479845,test,2,-0.5,72,10,46,1,464,100,100,0.5
71618,08:57:24,347479845,test,2,-0.5,74,9,45,1,332,100,100,0.5
71618,08:57:24,347479845,test,2,-0.5,76,7,21,1,804,100,100,0.5
71618,08:57:24,347479845,test,2,-0.5,78,4,54,1,248,100,100,0.5
71618,08:57:24,347479845,test,2,-0.5,80,8,1,1,128,100,100,0.5
71618,08:57:24,347479845,test,2,0.5,82,12,42,1,429,100,100,0.5
71618,08:57:24,347479845,test,2,0.5,84,3,60,1,347,100,100,0.5
71618,08:57:24,347479845,test,2,0.5,86,6,7,1,501,100,100,0.5
71618,08:57:24,347479845,test,2,0.5,88,11,55,1,174,100,100,0.5
71618,08:57:24,347479845,test,2,-0.5,90,11,63,0,240,100,96,0.5
71618,08:57:24,347479845,test,2,0.5,92,8,3,0,170,94,96,0.5
71618,08:57:24,347479845,test,2,-0.5,94,2,26,1,134,94,96,0.5
71618,08:57:24,347479845,test,2,0.5,96,2,5,0,70,90,96,0.5
71618,08:57:24,347479845,test,2,0.5,98,10,64,1,145,90,96,0.5
71618,08:57:24,347479845,test,2,0.5,100,7,15,0,57,86,96,0.5
71618,08:57:24,347479845,test,2,0.5,102,3,38,0,72,82,96,0.5
71618,08:57:24,347479845,test,2,-0.5,104,1,30,1,128,82,96,0.5
71618,08:57:24,347479845,test,2,0.5,106,4,53,1,167,83,96,-0.5
71618,08:57:24,347479845,test,2,-0.5,108,5,34,1,173,83,96,0.5
71618,08:57:24,347479845,test,2,0.5,110,1,8,1,192,84,96,0.5
71618,08:57:24,347479845,test,2,0.5,112,11,14,1,194,84,96,0.5
71618,08:57:24,347479845,test,2,0.5,114,5,2,1,160,85,96,0.5
71618,08:57:24,347479845,test,2,0.5,116,8,68,0,276,82,96,0.5
71618,08:57:24,347479845,test,2,-0.5,118,6,24,1,300,82,96,0.5
71618,08:57:24,347479845,test,2,0.5,120,9,28,1,78,82,96,0.5
71618,08:57:24,347479845,test,2,-0.5,122,1,16,1,194,82,96,0.5
71618,08:57:24,347479845,test,2,0.5,124,12,33,1,637,83,96,0.5
71618,08:57:24,347479845,test,2,0.5,126,6,72,0,237,80,96,0.5
71618,08:57:24,347479845,test,2,0.5,128,11,23,1,411,81,96,0.5
71618,08:57:24,347479845,test,2,0.5,130,7,15,0,252,78,96,0.5
71618,08:57:24,347479845,test,2,-0.5,132,11,1,1,326,78,96,0.5
71618,08:57:24,347479845,test,2,0.5,134,1,68,1,250,79,96,0.5
71618,08:57:24,347479845,test,2,-0.5,136,3,35,0,303,79,94,0.5
71618,08:57:24,347479845,test,2,0.5,138,10,28,1,389,80,94,0.5
71618,08:57:24,347479845,test,2,-0.5,140,10,57,0,279,80,91,0.5
71618,08:57:24,347479845,test,2,-0.5,142,8,51,1,168,80,91,0.5
71618,08:57:24,347479845,test,2,0.5,144,6,38,0,199,77,91,0.5
71618,14:18:54,601178662,test,2,-0.5,2,11,47,1,339,0,100,-0.5
71618,14:18:54,601178662,test,2,0.5,4,6,14,1,756,100,100,-0.5
71618,14:18:54,601178662,test,2,-0.5,6,5,70,1,347,100,100,-0.5
71618,14:18:54,601178662,test,2,0.5,8,3,57,1,480,100,100,0.5
71618,14:18:54,601178662,test,2,-0.5,10,8,62,1,1408,100,100,-0.5
71618,14:18:54,601178662,test,2,-0.5,12,3,52,1,831,100,100,-0.5
71618,14:18:54,601178662,test,2,-0.5,14,4,36,1,1801,100,100,0.5
71618,14:18:54,601178662,test,2,-0.5,16,7,13,1,929,100,100,-0.5
71618,14:18:54,601178662,test,2,-0.5,18,1,9,1,362,100,100,-0.5
71618,14:18:54,601178662,test,2,-0.5,20,10,54,1,26,100,100,-0.5
71618,14:18:54,601178662,test,2,-0.5,22,11,19,1,41,100,100,-0.5
71618,14:18:54,601178662,test,2,-0.5,24,6,59,1,313,100,100,-0.5
71618,14:18:54,601178662,test,2,-0.5,26,5,63,1,542,100,100,-0.5
71618,14:18:54,601178662,test,2,-0.5,28,4,38,1,317,100,100,-0.5
71618,14:18:54,601178662,test,2,-0.5,30,12,2,1,510,100,100,-0.5
71618,14:18:54,601178662,test,2,0.5,32,9,18,1,491,100,100,-0.5
71618,14:18:54,601178662,test,2,0.5,34,11,60,1,431,100,100,-0.5
71618,14:18:54,601178662,test,2,0.5,36,12,67,1,640,100,100,-0.5
71618,14:18:54,601178662,test,2,-0.5,38,1,45,1,531,100,100,-0.5
71618,14:18:54,601178662,test,2,-0.5,40,9,37,1,513,100,100,-0.5
71618,14:18:54,601178662,test,2,-0.5,42,3,11,1,601,100,100,-0.5
71618,14:18:54,601178662,test,2,-0.5,44,7,4,1,423,100,100,-0.5
71618,14:18:54,601178662,test,2,0.5,46,7,10,1,592,100,100,0.5
71618,14:18:54,601178662,test,2,-0.5,48,2,46,1,556,100,100,-0.5
71618,14:18:54,601178662,test,2,0.5,50,4,43,1,344,100,100,-0.5
71618,14:18:54,601178662,test,2,-0.5,52,8,55,1,357,100,100,-0.5
71618,14:18:54,601178662,test,2,0.5,54,12,49,1,557,100,100,-0.5
71618,14:18:54,601178662,test,2,0.5,56,8,51,1,675,100,100,-0.5
71618,14:18:54,601178662,test,2,0.5,58,11,12,1,436,100,100,-0.5
71618,14:18:54,601178662,test,2,0.5,60,2,68,1,374,100,100,0.5
71618,14:18:54,601178662,test,2,0.5,62,7,48,1,344,100,100,0.5
71618,14:18:54,601178662,test,2,0.5,64,3,50,1,322,100,100,0.5
71618,14:18:54,601178662,test,2,-0.5,66,7,58,1,237,100,100,-0.5
71618,14:18:54,601178662,test,2,0.5,68,1,29,1,141,100,100,0.5
71618,14:18:54,601178662,test,2,0.5,70,5,65,1,546,100,100,-0.5
71618,14:18:54,601178662,test,2,-0.5,72,1,26,1,127,100,100,-0.5
71618,14:18:54,601178662,test,2,0.5,74,4,72,1,87,100,100,-0.5
71618,14:18:54,601178662,test,2,0.5,76,9,8,1,357,100,100,-0.5
71618,14:18:54,601178662,test,2,-0.5,78,5,17,1,256,100,100,-0.5
71618,14:18:54,601178662,test,2,-0.5,80,10,56,1,220,100,100,-0.5
71618,14:18:54,601178662,test,2,-0.5,82,11,35,1,230,100,100,-0.5
71618,14:18:54,601178662,test,2,0.5,84,6,15,1,694,100,100,0.5
71618,14:18:54,601178662,test,2,-0.5,86,9,44,1,343,100,100,-0.5
71618,14:18:54,601178662,test,2,0.5,88,10,27,1,273,100,100,-0.5
71618,14:18:54,601178662,test,2,0.5,90,1,41,1,324,100,100,0.5
71618,14:18:54,601178662,test,2,0.5,92,12,21,1,463,100,100,-0.5
71618,14:18:54,601178662,test,2,0.5,94,4,64,1,194,100,100,-0.5
71618,14:18:54,601178662,test,2,0.5,96,9,31,1,262,100,100,-0.5
71618,14:18:54,601178662,test,2,0.5,98,11,16,1,440,100,100,-0.5
71618,14:18:54,601178662,test,2,-0.5,100,4,40,1,196,100,100,-0.5
71618,14:18:54,601178662,test,2,0.5,102,6,5,1,422,100,100,0.5
71618,14:18:54,601178662,test,2,0.5,104,10,66,1,307,100,100,-0.5
71618,14:18:54,601178662,test,2,0.5,106,5,33,1,337,100,100,-0.5
71618,14:18:54,601178662,test,2,-0.5,108,3,23,1,602,100,100,-0.5
71618,14:18:54,601178662,test,2,0.5,110,2,42,1,356,100,100,0.5
71618,14:18:54,601178662,test,2,0.5,112,3,61,1,273,100,100,0.5
71618,14:18:54,601178662,test,2,-0.5,114,12,28,1,357,100,100,-0.5
71618,14:18:54,601178662,test,2,-0.5,116,2,32,1,186,100,100,-0.5
71618,14:18:54,601178662,test,2,0.5,118,7,39,1,269,100,100,0.5
71618,14:18:54,601178662,test,2,-0.5,120,6,3,1,259,100,100,-0.5
71618,14:18:54,601178662,test,2,0.5,122,8,53,1,302,100,100,-0.5
71618,14:18:54,601178662,test,2,-0.5,124,8,24,1,227,100,100,-0.5
71618,14:18:54,601178662,test,2,-0.5,126,1,27,1,80,100,100,-0.5
71618,14:18:54,601178662,test,2,-0.5,128,8,49,1,221,100,100,-0.5
71618,14:18:54,601178662,test,2,0.5,130,12,20,1,127,100,100,-0.5
71618,14:18:54,601178662,test,2,0.5,132,11,38,1,116,100,100,-0.5
71618,14:18:54,601178662,test,2,0.5,134,2,1,1,78,100,100,0.5
71618,14:18:54,601178662,test,2,-0.5,136,2,48,1,199,100,100,-0.5
71618,14:18:54,601178662,test,2,-0.5,138,10,26,1,246,100,100,-0.5
71618,14:18:54,601178662,test,2,0.5,140,8,29,1,327,100,100,-0.5
71618,14:18:54,601178662,test,2,-0.5,142,6,61,1,267,100,100,-0.5
71618,14:18:54,601178662,test,2,0.5,144,1,7,1,242,100,100,0.5
71618,09:18:55,698994348,test,2,0.5,2,5,59,1,253,100,0,0.5
71618,09:18:55,698994348,test,2,-0.5,4,6,32,0,76,100,0,0.5
71618,09:18:55,698994348,test,2,0.5,6,4,8,1,233,100,0,0.5
71618,09:18:55,698994348,test,2,-0.5,8,4,27,1,113,100,50,-0.5
71618,09:18:55,698994348,test,2,0.5,10,3,14,0,13,66,50,-0.5
71618,09:18:55,698994348,test,2,0.5,12,12,30,0,13,50,50,0.5
71618,09:18:55,698994348,test,2,0.5,14,10,21,1,149,60,50,0.5
71618,09:18:55,698994348,test,2,-0.5,16,7,58,1,64,60,66,0.5
71618,09:18:55,698994348,test,2,-0.5,18,8,31,1,431,60,75,0.5
71618,09:18:55,698994348,test,2,-0.5,20,5,17,1,7,60,80,0.5
71618,09:18:55,698994348,test,2,0.5,22,6,40,0,31,50,80,0.5
71618,09:18:55,698994348,test,2,-0.5,24,10,42,1,15,50,83,0.5
71618,09:18:55,698994348,test,2,-0.5,26,1,33,0,40,50,71,0.5
71618,09:18:55,698994348,test,2,-0.5,28,5,46,0,648,50,62,0.5
71618,09:18:55,698994348,test,2,-0.5,30,10,41,1,32,50,66,0.5
71618,09:18:55,698994348,test,2,-0.5,32,12,16,1,193,50,70,0.5
71618,09:18:55,698994348,test,2,-0.5,34,4,61,0,33,50,63,0.5
71618,09:18:55,698994348,test,2,-0.5,36,9,23,0,444,50,58,0.5
71618,09:18:55,698994348,test,2,-0.5,38,3,26,0,378,50,53,0.5
71618,09:18:55,698994348,test,2,0.5,40,8,43,0,172,42,53,0.5
71618,09:18:55,698994348,test,2,-0.5,42,6,50,0,15,42,50,0.5
71618,09:18:55,698994348,test,2,-0.5,44,8,55,0,48,42,46,0.5
71618,09:18:55,698994348,test,2,0.5,46,4,34,0,40,37,46,0.5
71618,09:18:55,698994348,test,2,0.5,48,10,20,1,136,44,46,0.5
71618,09:18:55,698994348,test,2,0.5,50,5,54,1,156,50,46,0.5
71618,09:18:55,698994348,test,2,-0.5,52,2,37,1,175,50,50,0.5
71618,09:18:55,698994348,test,2,0.5,54,11,69,1,339,54,50,0.5
71618,09:18:55,698994348,test,2,0.5,56,12,35,1,77,58,50,0.5
71618,09:18:55,698994348,test,2,-0.5,58,7,24,0,12,58,47,0.5
71618,09:18:55,698994348,test,2,-0.5,60,11,49,0,85,58,44,0.5
71618,09:18:55,698994348,test,2,0.5,62,1,5,1,107,61,44,0.5
71618,09:18:55,698994348,test,2,-0.5,64,1,3,1,89,61,47,0.5
71618,09:18:55,698994348,test,2,-0.5,66,10,12,0,119,61,45,0.5
71618,09:18:55,698994348,test,2,-0.5,68,1,13,1,68,61,47,0.5
71618,09:18:55,698994348,test,2,-0.5,70,11,70,1,122,61,50,0.5
71618,09:18:55,698994348,test,2,0.5,72,2,10,0,103,57,50,0.5
71618,09:18:55,698994348,test,2,-0.5,74,9,39,1,164,57,52,0.5
71618,09:18:55,698994348,test,2,0.5,76,8,28,1,23,60,52,0.5
71618,09:18:55,698994348,test,2,0.5,78,6,22,1,152,62,52,0.5
71618,09:18:55,698994348,test,2,-0.5,80,3,63,1,11,62,54,0.5
71618,09:18:55,698994348,test,2,0.5,82,3,68,0,125,58,54,0.5
71618,09:18:55,698994348,test,2,0.5,84,7,6,1,193,61,54,0.5
71618,09:18:55,698994348,test,2,0.5,86,9,18,1,163,63,54,0.5
71618,09:18:55,698994348,test,2,0.5,88,9,62,0,119,60,54,0.5
71618,09:18:55,698994348,test,2,-0.5,90,2,65,0,45,60,52,0.5
71618,09:18:55,698994348,test,2,-0.5,92,6,67,0,131,60,50,0.5
71618,09:18:55,698994348,test,2,0.5,94,12,48,0,88,57,50,0.5
71618,09:18:55,698994348,test,2,0.5,96,10,9,0,662,54,50,0.5
71618,09:18:55,698994348,test,2,0.5,98,7,66,1,117,56,50,0.5
71618,09:18:55,698994348,test,2,0.5,100,6,52,1,10,58,50,0.5
71618,09:18:55,698994348,test,2,0.5,102,4,19,0,130,56,50,0.5
71618,09:18:55,698994348,test,2,0.5,104,5,45,1,191,57,50,0.5
71618,09:18:55,698994348,test,2,0.5,106,8,38,1,25,59,50,0.5
71618,09:18:55,698994348,test,2,-0.5,108,4,51,0,145,59,48,0.5
71618,09:18:55,698994348,test,2,0.5,110,11,56,1,29,60,48,0.5
71618,09:18:55,698994348,test,2,0.5,112,2,60,0,70,58,48,0.5
71618,09:18:55,698994348,test,2,-0.5,114,5,36,1,794,58,50,0.5
71618,09:18:55,698994348,test,2,-0.5,116,12,47,0,103,58,48,0.5
71618,09:18:55,698994348,test,2,-0.5,118,8,72,1,164,58,50,0.5
71618,09:18:55,698994348,test,2,-0.5,120,7,29,1,47,58,51,0.5
71618,09:18:55,698994348,test,2,-0.5,122,1,15,1,199,58,53,0.5
71618,09:18:55,698994348,test,2,-0.5,124,11,2,1,144,58,54,0.5
71618,09:18:55,698994348,test,2,0.5,126,3,61,1,189,60,54,0.5
71618,09:18:55,698994348,test,2,0.5,128,1,39,1,127,61,54,-0.5
71618,09:18:55,698994348,test,2,-0.5,130,12,25,1,147,61,55,0.5
71618,09:18:55,698994348,test,2,0.5,132,5,7,0,327,59,55,0.5
71618,09:18:55,698994348,test,2,0.5,134,10,28,0,163,57,55,0.5
71618,09:18:55,698994348,test,2,-0.5,136,8,70,0,71,57,54,0.5
71618,09:18:55,698994348,test,2,0.5,138,8,50,0,133,55,54,-0.5
71618,09:18:55,698994348,test,2,0.5,140,7,5,0,137,54,54,0.5
71618,09:18:55,698994348,test,2,0.5,142,4,43,0,37,52,54,0.5
71618,09:18:55,698994348,test,2,-0.5,144,4,29,1,93,52,55,0.5
71618,09:24:44,181289079,test,2,-0.5,2,1,55,0,890,0,0,-0.5
71618,09:24:44,181289079,test,2,0.5,4,2,18,0,655,0,0,-0.5
71618,09:24:44,181289079,test,2,0.5,6,12,34,1,644,50,0,-0.5
71618,09:24:44,181289079,test,2,0.5,8,5,72,0,571,33,0,-0.5
71618,09:24:44,181289079,test,2,-0.5,10,5,58,1,924,33,50,-0.5
71618,09:24:44,181289079,test,2,0.5,12,4,70,0,719,25,50,-0.5
71618,09:24:44,181289079,test,2,-0.5,14,9,27,0,604,25,33,-0.5
71618,09:24:44,181289079,test,2,0.5,16,9,54,0,539,20,33,-0.5
71618,09:24:44,181289079,test,2,-0.5,18,3,41,1,1950,20,50,-0.5
71618,09:24:44,181289079,test,2,0.5,20,7,25,0,584,16,50,-0.5
71618,09:24:44,181289079,test,2,-0.5,22,7,33,0,696,16,40,-0.5
71618,09:24:44,181289079,test,2,0.5,24,6,15,1,717,28,40,-0.5
71618,09:24:44,181289079,test,2,0.5,26,6,23,0,673,25,40,-0.5
71618,09:24:44,181289079,test,2,0.5,28,1,57,1,654,33,40,-0.5
71618,09:24:44,181289079,test,2,0.5,30,4,5,0,588,30,40,-0.5
71618,09:24:44,181289079,test,2,-0.5,32,12,35,1,781,30,50,-0.5
71618,09:24:44,181289079,test,2,-0.5,34,4,9,0,982,30,42,-0.5
71618,09:24:44,181289079,test,2,0.5,36,3,19,1,551,36,42,0.5
71618,09:24:44,181289079,test,2,0.5,38,9,50,1,842,41,42,-0.5
71618,09:24:44,181289079,test,2,-0.5,40,11,31,0,737,41,37,-0.5
71618,09:24:44,181289079,test,2,-0.5,42,2,61,0,755,41,33,0.5
71618,09:24:44,181289079,test,2,0.5,44,12,45,1,598,46,33,-0.5
71618,09:24:44,181289079,test,2,-0.5,46,7,52,1,702,46,40,-0.5
71618,09:24:44,181289079,test,2,0.5,48,7,47,1,1036,50,40,-0.5
71618,09:24:44,181289079,test,2,-0.5,50,12,10,1,1273,50,45,-0.5
71618,09:24:44,181289079,test,2,-0.5,52,3,21,0,975,50,41,0.5
71618,09:24:44,181289079,test,2,-0.5,54,6,12,0,713,50,38,-0.5
71618,09:24:44,181289079,test,2,0.5,56,8,56,1,1156,53,38,-0.5
71618,09:24:44,181289079,test,2,0.5,58,10,7,0,606,50,38,-0.5
71618,09:24:44,181289079,test,2,-0.5,60,1,43,1,878,50,42,-0.5
71618,09:24:44,181289079,test,2,-0.5,62,8,36,1,500,50,46,-0.5
71618,09:24:44,181289079,test,2,0.5,64,11,16,1,800,52,46,-0.5
71618,09:24:44,181289079,test,2,-0.5,66,10,24,1,560,52,50,-0.5
71618,09:24:44,181289079,test,2,0.5,68,5,20,1,634,55,50,-0.5
71618,09:24:44,181289079,test,2,0.5,70,2,69,1,625,57,50,-0.5
71618,09:24:44,181289079,test,2,-0.5,72,9,28,1,625,57,52,-0.5
71618,09:24:44,181289079,test,2,-0.5,74,4,60,0,496,57,50,-0.5
71618,09:24:44,181289079,test,2,-0.5,76,5,68,1,557,57,52,-0.5
71618,09:24:44,181289079,test,2,-0.5,78,4,14,1,519,57,55,-0.5
71618,09:24:44,181289079,test,2,0.5,80,6,48,0,682,55,55,-0.5
71618,09:24:44,181289079,test,2,0.5,82,9,22,0,559,52,55,-0.5
71618,09:24:44,181289079,test,2,-0.5,84,10,26,0,633,52,52,-0.5
71618,09:24:44,181289079,test,2,0.5,86,10,30,0,520,50,52,-0.5
71618,09:24:44,181289079,test,2,-0.5,88,12,44,1,539,50,54,-0.5
71618,09:24:44,181289079,test,2,0.5,90,3,37,1,832,52,54,-0.5
71618,09:24:44,181289079,test,2,0.5,92,2,67,0,542,50,54,-0.5
71618,09:24:44,181289079,test,2,-0.5,94,11,64,0,664,50,52,-0.5
71618,09:24:44,181289079,test,2,0.5,96,4,51,0,558,48,52,-0.5
71618,09:24:44,181289079,test,2,0.5,98,7,4,1,472,50,52,-0.5
71618,09:24:44,181289079,test,2,0.5,100,11,49,1,518,51,52,-0.5
71618,09:24:44,181289079,test,2,0.5,102,5,59,1,794,53,52,-0.5
71618,09:24:44,181289079,test,2,-0.5,104,2,17,1,618,53,54,-0.5
71618,09:24:44,181289079,test,2,0.5,106,12,29,1,753,55,54,-0.5
71618,09:24:44,181289079,test,2,-0.5,108,8,2,1,532,55,56,-0.5
71618,09:24:44,181289079,test,2,-0.5,110,3,46,0,624,55,53,-0.5
71618,09:24:44,181289079,test,2,-0.5,112,6,66,0,4991,55,51,-0.5
71618,09:24:44,181289079,test,2,-0.5,114,9,53,0,806,55,50,-0.5
71618,09:24:44,181289079,test,2,-0.5,116,5,39,1,462,55,51,-0.5
71618,09:24:44,181289079,test,2,-0.5,118,1,1,1,773,55,53,-0.5
71618,09:24:44,181289079,test,2,0.5,120,1,6,1,454,56,53,-0.5
71618,09:24:44,181289079,test,2,0.5,122,8,8,1,532,58,53,-0.5
71618,09:24:44,181289079,test,2,0.5,124,11,38,0,479,56,53,-0.5
71618,09:24:44,181289079,test,2,-0.5,126,7,43,1,572,56,54,-0.5
71618,09:24:44,181289079,test,2,-0.5,128,4,68,1,526,56,56,-0.5
71618,09:24:44,181289079,test,2,-0.5,130,12,66,1,457,56,57,-0.5
71618,09:24:44,181289079,test,2,0.5,132,12,29,1,615,57,57,-0.5
71618,09:24:44,181289079,test,2,0.5,134,5,16,1,471,58,57,-0.5
71618,09:24:44,181289079,test,2,-0.5,136,1,50,1,492,58,58,-0.5
71618,09:24:44,181289079,test,2,0.5,138,2,64,1,562,60,58,-0.5
71618,09:24:44,181289079,test,2,-0.5,140,7,37,1,620,60,60,-0.5
71618,09:24:44,181289079,test,2,0.5,142,6,67,0,571,58,60,-0.5
71618,09:24:44,181289079,test,2,-0.5,144,10,62,1,524,58,61,-0.5
71618,09:26:09,654107985,test,2,0.5,2,7,37,0,1019,0,0,-0.5
71618,09:26:09,654107985,test,2,-0.5,4,6,57,0,1022,0,0,-0.5
71618,09:26:09,654107985,test,2,0.5,6,6,67,1,1292,50,0,-0.5
71618,09:26:09,654107985,test,2,-0.5,8,2,35,1,782,50,50,-0.5
71618,09:26:09,654107985,test,2,-0.5,10,5,47,1,1062,50,66,-0.5
71618,09:26:09,654107985,test,2,-0.5,12,11,7,0,795,50,50,-0.5
71618,09:26:09,654107985,test,2,0.5,14,8,49,1,1175,66,50,-0.5
71618,09:26:09,654107985,test,2,0.5,16,12,17,1,759,75,50,-0.5
71618,09:26:09,654107985,test,2,0.5,18,3,68,1,696,80,50,-0.5
71618,09:26:09,654107985,test,2,0.5,20,4,26,0,604,66,50,-0.5
71618,09:26:09,654107985,test,2,0.5,22,1,42,0,877,57,50,-0.5
71618,09:26:09,654107985,test,2,-0.5,24,9,64,0,643,57,40,-0.5
71618,09:26:09,654107985,test,2,0.5,26,9,41,0,873,50,40,-0.5
71618,09:26:09,654107985,test,2,-0.5,28,1,27,1,1294,50,50,-0.5
71618,09:26:09,654107985,test,2,-0.5,30,10,72,0,663,50,42,-0.5
71618,09:26:09,654107985,test,2,0.5,32,3,69,0,1015,44,42,-0.5
71618,09:26:09,654107985,test,2,-0.5,34,4,51,0,934,44,37,-0.5
71618,09:26:09,654107985,test,2,0.5,36,8,66,0,1859,40,37,-0.5
71618,09:26:09,654107985,test,2,-0.5,38,2,10,0,673,40,33,-0.5
71618,09:26:09,654107985,test,2,0.5,40,11,33,0,1496,36,33,-0.5
71618,09:26:09,654107985,test,2,-0.5,42,10,46,1,754,36,40,-0.5
71618,09:26:09,654107985,test,2,0.5,44,2,34,0,823,33,40,-0.5
71618,09:26:09,654107985,test,2,-0.5,46,3,32,0,846,33,36,-0.5
71618,09:26:09,654107985,test,2,0.5,48,4,54,1,494,38,36,-0.5
71618,09:26:09,654107985,test,2,0.5,50,7,22,0,629,35,36,-0.5
71618,09:26:09,654107985,test,2,-0.5,52,7,19,1,592,35,41,-0.5
71618,09:26:09,654107985,test,2,-0.5,54,11,52,0,1632,35,38,-0.5
71618,09:26:09,654107985,test,2,0.5,56,10,21,0,1301,33,38,-0.5
71618,09:26:09,654107985,test,2,-0.5,58,5,71,1,848,33,42,-0.5
71618,09:26:09,654107985,test,2,-0.5,60,1,45,0,810,33,40,-0.5
71618,09:26:09,654107985,test,2,0.5,62,6,23,1,1238,37,40,-0.5
71618,09:26:09,654107985,test,2,-0.5,64,6,29,1,789,37,43,-0.5
71618,09:26:09,654107985,test,2,0.5,66,5,20,0,639,35,43,-0.5
71618,09:26:09,654107985,test,2,0.5,68,12,39,1,571,38,43,-0.5
71618,09:26:09,654107985,test,2,-0.5,70,8,1,1,1706,38,47,-0.5
71618,09:26:09,654107985,test,2,-0.5,72,9,8,1,643,38,50,-0.5
71618,09:26:09,654107985,test,2,0.5,74,1,55,0,1227,36,50,-0.5
71618,09:26:09,654107985,test,2,0.5,76,11,9,1,578,40,50,-0.5
71618,09:26:09,654107985,test,2,-0.5,78,12,48,0,848,40,47,-0.5
71618,09:26:09,654107985,test,2,0.5,80,10,60,1,1165,42,47,-0.5
71618,09:26:09,654107985,test,2,0.5,82,12,6,1,597,45,47,-0.5
71618,09:26:09,654107985,test,2,-0.5,84,9,53,0,531,45,45,-0.5
71618,09:26:09,654107985,test,2,0.5,86,2,36,1,543,47,45,-0.5
71618,09:26:09,654107985,test,2,0.5,88,3,30,0,1286,45,45,-0.5
71618,09:26:09,654107985,test,2,0.5,90,1,5,0,998,44,45,-0.5
71618,09:26:09,654107985,test,2,-0.5,92,5,62,1,1470,44,47,-0.5
71618,09:26:09,654107985,test,2,-0.5,94,6,61,1,855,44,50,-0.5
71618,09:26:09,654107985,test,2,0.5,96,7,25,1,877,46,50,-0.5
71618,09:26:09,654107985,test,2,-0.5,98,7,38,1,536,46,52,-0.5
71618,09:26:09,654107985,test,2,-0.5,100,1,50,1,690,46,54,-0.5
71618,09:26:09,654107985,test,2,0.5,102,9,12,0,622,44,54,-0.5
71618,09:26:09,654107985,test,2,-0.5,104,4,44,0,934,44,52,-0.5
71618,09:26:09,654107985,test,2,-0.5,106,12,4,1,757,44,53,-0.5
71618,09:26:09,654107985,test,2,0.5,108,6,59,0,695,42,53,-0.5
71618,09:26:09,654107985,test,2,0.5,110,5,28,0,727,41,53,-0.5
71618,09:26:09,654107985,test,2,0.5,112,4,18,1,541,43,53,-0.5
71618,09:26:09,654107985,test,2,-0.5,114,8,3,1,612,43,55,-0.5
71618,09:26:09,654107985,test,2,-0.5,116,11,63,0,734,43,53,-0.5
71618,09:26:09,654107985,test,2,0.5,118,8,56,0,719,41,53,-0.5
71618,09:26:09,654107985,test,2,-0.5,120,2,65,0,687,41,51,-0.5
71618,09:26:09,654107985,test,2,0.5,122,9,43,0,563,40,51,-0.5
71618,09:26:09,654107985,test,2,-0.5,124,10,58,0,756,40,50,-0.5
71618,09:26:09,654107985,test,2,0.5,126,5,50,0,940,39,50,-0.5
71618,09:26:09,654107985,test,2,-0.5,128,3,19,1,592,39,51,-0.5
71618,09:26:09,654107985,test,2,0.5,130,12,18,1,694,41,51,-0.5
71618,09:26:09,654107985,test,2,0.5,132,10,1,1,584,42,51,-0.5
71618,09:26:09,654107985,test,2,-0.5,134,6,61,1,534,42,53,-0.5
71618,09:26:09,654107985,test,2,0.5,136,2,16,1,893,44,53,-0.5
71618,09:26:09,654107985,test,2,-0.5,138,2,66,1,537,44,54,-0.5
71618,09:26:09,654107985,test,2,-0.5,140,9,5,0,606,44,52,-0.5
71618,09:26:09,654107985,test,2,-0.5,142,11,47,1,578,44,54,-0.5
71618,09:26:09,654107985,test,2,-0.5,144,4,53,0,620,44,52,-0.5
71618,14:26:50,328485968,test,2,0.5,2,1,52,1,829,100,0,0.5
71618,14:26:50,328485968,test,2,-0.5,4,12,57,0,2176,100,0,-0.5
71618,14:26:50,328485968,test,2,0.5,6,5,41,1,916,100,0,0.5
71618,14:26:50,328485968,test,2,0.5,8,3,28,0,1152,66,0,-0.5
71618,14:26:50,328485968,test,2,0.5,10,9,2,1,842,75,0,0.5
71618,14:26:50,328485968,test,2,0.5,12,8,27,1,690,80,0,0.5
71618,14:26:50,328485968,test,2,0.5,14,6,16,0,861,66,0,-0.5
71618,14:26:50,328485968,test,2,0.5,16,11,45,0,1090,57,0,-0.5
71618,14:26:50,328485968,test,2,-0.5,18,3,72,0,2390,57,0,0.5
71618,14:26:50,328485968,test,2,0.5,20,12,35,1,579,62,0,0.5
71618,14:26:50,328485968,test,2,-0.5,22,10,40,1,1675,62,33,-0.5
71618,14:26:50,328485968,test,2,0.5,24,9,6,1,635,66,33,0.5
71618,14:26:50,328485968,test,2,0.5,26,6,19,1,3928,70,33,-0.5
71618,14:26:50,328485968,test,2,-0.5,28,7,39,1,1313,70,50,-0.5
71618,14:26:50,328485968,test,2,0.5,30,4,56,0,800,63,50,0.5
71618,14:26:50,328485968,test,2,0.5,32,8,49,1,599,66,50,0.5
71618,14:26:50,328485968,test,2,0.5,34,1,14,0,1107,61,50,-0.5
71618,14:26:50,328485968,test,2,-0.5,36,2,64,0,864,61,40,0.5
71618,14:26:50,328485968,test,2,0.5,38,11,11,1,1329,64,40,-0.5
71618,14:26:50,328485968,test,2,-0.5,40,1,61,1,1539,64,50,-0.5
71618,14:26:50,328485968,test,2,0.5,42,5,55,0,995,60,50,-0.5
71618,14:26:50,328485968,test,2,0.5,44,3,37,1,575,62,50,0.5
71618,14:26:50,328485968,test,2,-0.5,46,9,48,0,1249,62,42,0.5
71618,14:26:50,328485968,test,2,-0.5,48,5,18,0,1221,62,37,0.5
71618,14:26:50,328485968,test,2,0.5,50,2,12,0,1415,58,37,-0.5
71618,14:26:50,328485968,test,2,-0.5,52,6,62,0,945,58,33,0.5
71618,14:26:50,328485968,test,2,-0.5,54,3,3,1,918,58,40,-0.5
71618,14:26:50,328485968,test,2,-0.5,56,10,23,1,1540,58,45,-0.5
71618,14:26:50,328485968,test,2,-0.5,58,4,9,1,714,58,50,-0.5
71618,14:26:50,328485968,test,2,0.5,60,10,60,1,1293,61,50,0.5
71618,14:26:50,328485968,test,2,-0.5,62,8,31,0,630,61,46,0.5
71618,14:26:50,328485968,test,2,-0.5,64,1,68,1,1166,61,50,-0.5
71618,14:26:50,328485968,test,2,-0.5,66,9,15,0,616,61,46,-0.5
71618,14:26:50,328485968,test,2,-0.5,68,11,63,0,641,61,43,-0.5
71618,14:26:50,328485968,test,2,-0.5,70,2,66,0,663,61,41,-0.5
71618,14:26:50,328485968,test,2,-0.5,72,7,5,0,721,61,38,-0.5
71618,14:26:50,328485968,test,2,0.5,74,7,69,1,688,63,38,0.5
71618,14:26:50,328485968,test,2,-0.5,76,12,30,0,651,63,36,-0.5
71618,14:26:50,328485968,test,2,0.5,78,1,43,1,684,65,36,0.5
71618,14:26:50,328485968,test,2,0.5,80,12,7,1,547,66,36,0.5
71618,14:26:50,328485968,test,2,-0.5,82,1,21,1,848,66,40,-0.5
71618,14:26:50,328485968,test,2,0.5,84,7,42,0,398,63,40,-0.5
71618,14:26:50,328485968,test,2,-0.5,86,3,58,0,555,63,38,0.5
71618,14:26:50,328485968,test,2,0.5,88,2,4,1,603,65,38,0.5
71618,14:26:50,328485968,test,2,-0.5,90,2,32,0,624,65,36,0.5
71618,14:26:50,328485968,test,2,-0.5,92,6,33,1,731,65,39,-0.5
71618,14:26:50,328485968,test,2,-0.5,94,11,65,0,593,65,37,0.5
71618,14:26:50,328485968,test,2,-0.5,96,5,20,0,727,65,36,0.5
71618,14:26:50,328485968,test,2,0.5,98,10,1,0,537,62,36,-0.5
71618,14:26:50,328485968,test,2,-0.5,100,8,25,1,881,62,38,-0.5
71618,14:26:50,328485968,test,2,0.5,102,8,59,0,1773,60,38,-0.5
71618,14:26:50,328485968,test,2,0.5,104,11,53,0,1085,57,38,-0.5
71618,14:26:50,328485968,test,2,-0.5,106,12,51,1,1237,57,40,-0.5
71618,14:26:50,328485968,test,2,-0.5,108,4,70,1,1242,57,42,-0.5
71618,14:26:50,328485968,test,2,-0.5,110,10,36,1,913,57,44,-0.5
71618,14:26:50,328485968,test,2,0.5,112,5,46,1,580,59,44,0.5
71618,14:26:50,328485968,test,2,0.5,114,4,34,0,699,57,44,0.5
71618,14:26:50,328485968,test,2,-0.5,116,7,8,0,1666,57,43,0.5
71618,14:26:50,328485968,test,2,-0.5,118,9,71,0,1001,57,41,-0.5
71618,14:26:50,328485968,test,2,-0.5,120,6,13,0,1255,57,40,0.5
71618,14:26:50,328485968,test,2,0.5,122,3,26,0,1234,55,40,-0.5
71618,14:26:50,328485968,test,2,-0.5,124,8,29,1,715,55,42,-0.5
71618,14:26:50,328485968,test,2,0.5,126,6,50,0,1767,53,42,-0.5
71618,14:26:50,328485968,test,2,0.5,128,9,5,1,551,54,42,0.5
71618,14:26:50,328485968,test,2,0.5,130,2,33,1,550,56,42,0.5
71618,14:26:50,328485968,test,2,-0.5,132,5,49,0,953,56,41,0.5
71618,14:26:50,328485968,test,2,-0.5,134,7,51,0,804,56,40,0.5
71618,14:26:50,328485968,test,2,0.5,136,10,59,0,634,54,40,0.5
71618,14:26:50,328485968,test,2,0.5,138,6,23,1,666,55,40,-0.5
71618,14:26:50,328485968,test,2,-0.5,140,11,8,1,690,55,41,0.5
71618,14:26:50,328485968,test,2,0.5,142,5,20,0,674,54,41,-0.5
71618,14:26:50,328485968,test,2,0.5,144,4,25,1,744,55,41,-0.5
71618,14:23:15,754556216,test,2,0.5,2,3,50,1,2052,100,0,-0.5
71618,14:23:15,754556216,test,2,0.5,4,9,51,1,71,100,0,-0.5
71618,14:23:15,754556216,test,2,0.5,6,4,22,1,797,100,0,-0.5
71618,14:23:15,754556216,test,2,-0.5,8,11,35,0,708,100,0,0.5
71618,14:23:15,754556216,test,2,0.5,10,8,31,0,1982,75,0,-0.5
71618,14:23:15,754556216,test,2,0.5,12,12,66,1,949,80,0,0.5
71618,14:23:15,754556216,test,2,0.5,14,7,39,0,838,66,0,0.5
71618,14:23:15,754556216,test,2,0.5,16,1,67,1,939,71,0,-0.5
71618,14:23:15,754556216,test,2,-0.5,18,2,2,1,476,71,50,-0.5
71618,14:23:15,754556216,test,2,-0.5,20,1,18,0,1025,71,33,0.5
71618,14:23:15,754556216,test,2,-0.5,22,8,68,1,1086,71,50,-0.5
71618,14:23:15,754556216,test,2,0.5,24,11,17,1,1034,75,50,0.5
71618,14:23:15,754556216,test,2,-0.5,26,5,9,0,8889,75,40,0.5
71618,14:23:15,754556216,test,2,0.5,28,2,8,1,1160,77,40,0.5
71618,14:23:15,754556216,test,2,0.5,30,10,56,0,1040,70,40,0.5
71618,14:23:15,754556216,test,2,0.5,32,1,41,1,7211,72,40,0.5
71618,14:23:15,754556216,test,2,0.5,34,9,15,0,542,66,40,-0.5
71618,14:23:15,754556216,test,2,-0.5,36,7,43,1,464,66,50,-0.5
71618,14:23:15,754556216,test,2,-0.5,38,10,61,1,804,66,57,0.5
71618,14:23:15,754556216,test,2,-0.5,40,6,14,0,618,66,50,-0.5
71618,14:23:15,754556216,test,2,-0.5,42,3,7,0,649,66,44,0.5
71618,14:23:15,754556216,test,2,0.5,44,12,20,0,790,61,44,-0.5
71618,14:23:15,754556216,test,2,-0.5,46,9,60,0,606,61,40,-0.5
71618,14:23:15,754556216,test,2,-0.5,48,5,16,1,445,61,45,-0.5
71618,14:23:15,754556216,test,2,-0.5,50,8,57,1,514,61,50,-0.5
71618,14:23:15,754556216,test,2,0.5,52,3,59,1,229,64,50,-0.5
71618,14:23:15,754556216,test,2,0.5,54,8,6,1,515,66,50,-0.5
71618,14:23:15,754556216,test,2,-0.5,56,4,48,1,453,66,53,-0.5
71618,14:23:15,754556216,test,2,-0.5,58,12,1,0,587,66,50,0.5
71618,14:23:15,754556216,test,2,0.5,60,6,21,1,778,68,50,0.5
71618,14:23:15,754556216,test,2,0.5,62,5,23,0,898,64,50,-0.5
71618,14:23:15,754556216,test,2,-0.5,64,11,28,0,597,64,46,-0.5
71618,14:23:15,754556216,test,2,0.5,66,4,12,0,788,61,46,-0.5
71618,14:23:15,754556216,test,2,0.5,68,7,55,1,523,63,46,0.5
71618,14:23:15,754556216,test,2,0.5,70,6,64,1,573,65,46,-0.5
71618,14:23:15,754556216,test,2,-0.5,72,1,71,0,430,65,43,0.5
71618,14:23:15,754556216,test,2,-0.5,74,7,70,1,788,65,47,-0.5
71618,14:23:15,754556216,test,2,0.5,76,10,25,1,1275,66,47,-0.5
71618,14:23:15,754556216,test,2,0.5,78,9,72,0,575,63,47,-0.5
71618,14:23:15,754556216,test,2,-0.5,80,2,47,1,559,63,50,-0.5
71618,14:23:15,754556216,test,2,-0.5,82,10,53,1,575,63,52,-0.5
71618,14:23:15,754556216,test,2,-0.5,84,8,5,0,463,63,50,-0.5
71618,14:23:15,754556216,test,2,-0.5,86,9,32,1,52,63,52,0.5
71618,14:23:15,754556216,test,2,-0.5,88,5,52,1,649,63,54,-0.5
71618,14:23:15,754556216,test,2,0.5,90,3,62,1,279,65,54,0.5
71618,14:23:15,754556216,test,2,-0.5,92,3,58,0,515,65,52,-0.5
71618,14:23:15,754556216,test,2,0.5,94,2,54,1,934,66,52,-0.5
71618,14:23:15,754556216,test,2,-0.5,96,11,13,0,599,66,50,-0.5
71618,14:23:15,754556216,test,2,0.5,98,8,69,0,167,64,50,-0.5
71618,14:23:15,754556216,test,2,-0.5,100,1,19,1,216,64,52,0.5
71618,14:23:15,754556216,test,2,0.5,102,1,65,0,519,61,52,-0.5
71618,14:23:15,754556216,test,2,0.5,104,11,30,0,26,59,52,0.5
71618,14:23:15,754556216,test,2,-0.5,106,12,37,1,64,59,53,0.5
71618,14:23:15,754556216,test,2,-0.5,108,6,29,1,309,59,55,-0.5
71618,14:23:15,754556216,test,2,-0.5,110,10,44,1,304,59,57,-0.5
71618,14:23:15,754556216,test,2,0.5,112,12,36,0,1178,57,57,-0.5
71618,14:23:15,754556216,test,2,0.5,114,7,38,1,403,58,57,-0.5
71618,14:23:15,754556216,test,2,0.5,116,4,4,1,553,60,57,-0.5
71618,14:23:15,754556216,test,2,-0.5,118,2,24,1,442,60,58,0.5
71618,14:23:15,754556216,test,2,-0.5,120,7,11,0,527,60,56,0.5
71618,14:23:15,754556216,test,2,0.5,122,5,40,1,353,61,56,-0.5
71618,14:23:15,754556216,test,2,-0.5,124,4,33,0,138,61,54,-0.5
71618,14:23:15,754556216,test,2,-0.5,126,4,10,0,332,61,53,-0.5
71618,14:23:15,754556216,test,2,-0.5,128,1,40,0,438,61,51,-0.5
71618,14:23:15,754556216,test,2,0.5,130,6,56,1,76,62,51,-0.5
71618,14:23:15,754556216,test,2,0.5,132,12,65,1,592,63,51,-0.5
71618,14:23:15,754556216,test,2,0.5,134,3,50,1,224,64,51,-0.5
71618,14:23:15,754556216,test,2,0.5,136,10,2,1,157,65,51,-0.5
71618,14:23:15,754556216,test,2,-0.5,138,5,19,1,2526,65,52,0.5
71618,14:23:15,754556216,test,2,-0.5,140,7,68,0,79,65,51,-0.5
71618,14:23:15,754556216,test,2,-0.5,142,6,21,0,612,65,50,-0.5
71618,14:23:15,754556216,test,2,0.5,144,9,69,1,450,66,50,-0.5
71618,14:28:02,487741973,test,2,0.5,2,11,1,1,450,100,0,0.5
71618,14:28:02,487741973,test,2,0.5,4,9,50,1,491,100,0,0.5
71618,14:28:02,487741973,test,2,-0.5,6,11,21,0,720,100,0,0.5
71618,14:28:02,487741973,test,2,0.5,8,8,64,1,574,100,0,0.5
71618,14:28:02,487741973,test,2,0.5,10,5,8,1,301,100,0,0.5
71618,14:28:02,487741973,test,2,0.5,12,2,47,1,313,100,0,0.5
71618,14:28:02,487741973,test,2,-0.5,14,9,53,0,217,100,0,0.5
71618,14:28:02,487741973,test,2,0.5,16,10,68,1,600,100,0,0.5
71618,14:28:02,487741973,test,2,-0.5,18,1,54,0,283,100,0,0.5
71618,14:28:02,487741973,test,2,0.5,20,3,69,1,334,100,0,0.5
71618,14:28:02,487741973,test,2,0.5,22,6,43,1,283,100,0,0.5
71618,14:28:02,487741973,test,2,0.5,24,10,42,1,257,100,0,0.5
71618,14:28:02,487741973,test,2,-0.5,26,4,62,0,2159,100,0,0.5
71618,14:28:02,487741973,test,2,0.5,28,7,19,1,443,100,0,0.5
71618,14:28:02,487741973,test,2,-0.5,30,7,55,0,424,100,0,0.5
71618,14:28:02,487741973,test,2,-0.5,32,2,46,0,212,100,0,0.5
71618,14:28:02,487741973,test,2,0.5,34,8,13,1,471,100,0,0.5
71618,14:28:02,487741973,test,2,-0.5,36,6,27,0,395,100,0,0.5
71618,14:28:02,487741973,test,2,0.5,38,9,41,1,270,100,0,0.5
71618,14:28:02,487741973,test,2,-0.5,40,4,25,1,557,100,12,0.5
71618,14:28:02,487741973,test,2,-0.5,42,10,72,0,566,100,11,0.5
71618,14:28:02,487741973,test,2,-0.5,44,3,61,0,302,100,10,0.5
71618,14:28:02,487741973,test,2,0.5,46,3,58,1,436,100,10,0.5
71618,14:28:02,487741973,test,2,-0.5,48,6,39,0,564,100,9,0.5
71618,14:28:02,487741973,test,2,-0.5,50,8,32,0,351,100,8,0.5
71618,14:28:02,487741973,test,2,-0.5,52,2,24,0,330,100,7,0.5
71618,14:28:02,487741973,test,2,-0.5,54,1,45,0,293,100,7,0.5
71618,14:28:02,487741973,test,2,0.5,56,11,40,1,332,100,7,0.5
71618,14:28:02,487741973,test,2,-0.5,58,12,4,0,1737,100,6,-0.5
71618,14:28:02,487741973,test,2,-0.5,60,11,35,1,1423,100,12,0.5
71618,14:28:02,487741973,test,2,-0.5,62,9,52,1,2058,100,17,0.5
71618,14:28:02,487741973,test,2,0.5,64,1,36,1,780,100,17,0.5
71618,14:28:02,487741973,test,2,-0.5,66,5,14,1,2959,100,22,-0.5
71618,14:28:02,487741973,test,2,-0.5,68,7,9,1,545,100,26,-0.5
71618,14:28:02,487741973,test,2,0.5,70,4,51,1,2134,100,26,-0.5
71618,14:28:02,487741973,test,2,-0.5,72,9,29,0,669,100,25,-0.5
71618,14:28:02,487741973,test,2,-0.5,74,7,16,0,3445,100,23,-0.5
71618,14:28:02,487741973,test,2,-0.5,76,5,2,0,1556,100,22,0.5
71618,14:28:02,487741973,test,2,0.5,78,12,48,1,925,100,22,-0.5
71618,14:28:02,487741973,test,2,-0.5,80,8,6,1,4986,100,26,0.5
71618,14:28:02,487741973,test,2,0.5,82,5,5,1,560,100,26,0.5
71618,14:28:02,487741973,test,2,-0.5,84,3,17,0,676,100,25,0.5
71618,14:28:02,487741973,test,2,0.5,86,2,31,1,851,100,25,0.5
71618,14:28:02,487741973,test,2,-0.5,88,2,23,0,600,100,24,0.5
71618,14:28:02,487741973,test,2,0.5,90,10,28,0,864,95,24,0.5
71618,14:28:02,487741973,test,2,0.5,92,3,37,0,744,90,24,0.5
71618,14:28:02,487741973,test,2,-0.5,94,12,71,0,1450,90,23,0.5
71618,14:28:02,487741973,test,2,0.5,96,11,44,1,696,90,23,0.5
71618,14:28:02,487741973,test,2,-0.5,98,4,18,0,1278,90,22,0.5
71618,14:28:02,487741973,test,2,0.5,100,8,63,1,1195,91,22,0.5
71618,14:28:02,487741973,test,2,-0.5,102,1,34,0,4805,91,21,-0.5
71618,14:28:02,487741973,test,2,0.5,104,7,20,1,2273,91,21,-0.5
71618,14:28:02,487741973,test,2,0.5,106,5,22,1,638,92,21,0.5
71618,14:28:02,487741973,test,2,0.5,108,1,3,1,538,92,21,0.5
71618,14:28:02,487741973,test,2,0.5,110,12,15,1,401,92,21,0.5
71618,14:28:02,487741973,test,2,0.5,112,2,66,1,185,92,21,0.5
71618,14:28:02,487741973,test,2,0.5,114,4,59,1,317,93,21,0.5
71618,14:28:02,487741973,test,2,-0.5,116,10,7,0,384,93,20,0.5
71618,14:28:02,487741973,test,2,-0.5,118,6,57,0,512,93,20,0.5
71618,14:28:02,487741973,test,2,0.5,120,9,12,1,484,93,20,0.5
71618,14:28:02,487741973,test,2,0.5,122,6,49,1,770,93,20,0.5
71618,14:28:02,487741973,test,2,0.5,124,2,60,1,768,93,20,0.5
71618,14:28:02,487741973,test,2,-0.5,126,11,2,0,1008,93,19,0.5
71618,14:28:02,487741973,test,2,-0.5,128,2,41,0,589,93,18,0.5
71618,14:28:02,487741973,test,2,0.5,130,1,57,1,1061,93,18,0.5
71618,14:28:02,487741973,test,2,-0.5,132,1,55,0,852,93,18,0.5
71618,14:28:02,487741973,test,2,-0.5,134,3,4,1,2895,93,20,0.5
71618,14:28:02,487741973,test,2,-0.5,136,11,37,1,1593,93,22,0.5
71618,14:28:02,487741973,test,2,-0.5,138,12,30,0,3055,93,22,0.5
71618,14:28:02,487741973,test,2,0.5,140,3,59,1,686,94,22,0.5
71618,14:28:02,487741973,test,2,0.5,142,12,61,1,474,94,22,0.5
71618,14:28:02,487741973,test,2,0.5,144,8,46,1,544,94,22,0.5
71618,09:28:06,795100721,test,2,-0.5,2,7,12,0,1011,0,0,0.5
71618,09:28:06,795100721,test,2,-0.5,4,11,45,0,894,0,0,-0.5
71618,09:28:06,795100721,test,2,-0.5,6,9,33,0,676,0,0,0.5
71618,09:28:06,795100721,test,2,0.5,8,1,32,1,376,100,0,0.5
71618,09:28:06,795100721,test,2,-0.5,10,4,50,0,507,100,0,-0.5
71618,09:28:06,795100721,test,2,-0.5,12,3,10,0,457,100,0,-0.5
71618,09:28:06,795100721,test,2,-0.5,14,10,68,0,579,100,0,-0.5
71618,09:28:06,795100721,test,2,0.5,16,3,70,1,398,100,0,-0.5
71618,09:28:06,795100721,test,2,0.5,18,5,66,1,512,100,0,0.5
71618,09:28:06,795100721,test,2,0.5,20,2,52,1,493,100,0,0.5
71618,09:28:06,795100721,test,2,-0.5,22,2,1,0,409,100,0,0.5
71618,09:28:06,795100721,test,2,0.5,24,11,15,1,451,100,0,0.5
71618,09:28:06,795100721,test,2,-0.5,26,1,20,0,775,100,0,0.5
71618,09:28:06,795100721,test,2,-0.5,28,7,40,1,643,100,11,-0.5
71618,09:28:06,795100721,test,2,-0.5,30,9,72,0,405,100,10,0.5
71618,09:28:06,795100721,test,2,0.5,32,10,2,1,432,100,10,0.5
71618,09:28:06,795100721,test,2,0.5,34,6,46,1,1487,100,10,0.5
71618,09:28:06,795100721,test,2,-0.5,36,2,69,0,481,100,9,0.5
71618,09:28:06,795100721,test,2,-0.5,38,4,42,0,705,100,8,0.5
71618,09:28:06,795100721,test,2,-0.5,40,12,18,1,769,100,15,-0.5
71618,09:28:06,795100721,test,2,0.5,42,6,6,1,895,100,15,0.5
71618,09:28:06,795100721,test,2,-0.5,44,3,60,0,1158,100,14,0.5
71618,09:28:06,795100721,test,2,0.5,46,3,23,1,607,100,14,-0.5
71618,09:28:06,795100721,test,2,0.5,48,5,4,0,4960,90,14,-0.5
71618,09:28:06,795100721,test,2,-0.5,50,5,30,0,560,90,13,0.5
71618,09:28:06,795100721,test,2,-0.5,52,8,36,1,558,90,18,0.5
71618,09:28:06,795100721,test,2,0.5,54,9,51,0,424,81,18,0.5
71618,09:28:06,795100721,test,2,0.5,56,1,21,1,480,83,18,-0.5
71618,09:28:06,795100721,test,2,-0.5,58,10,27,0,1810,83,17,0.5
71618,09:28:06,795100721,test,2,-0.5,60,6,49,0,544,83,16,0.5
71618,09:28:06,795100721,test,2,-0.5,62,11,7,1,462,83,21,0.5
71618,09:28:06,795100721,test,2,0.5,64,10,22,0,456,76,21,0.5
71618,09:28:06,795100721,test,2,-0.5,66,12,55,0,640,76,20,-0.5
71618,09:28:06,795100721,test,2,0.5,68,11,59,1,671,78,20,-0.5
71618,09:28:06,795100721,test,2,0.5,70,12,35,1,847,80,20,0.5
71618,09:28:06,795100721,test,2,0.5,72,2,34,1,415,81,20,0.5
71618,09:28:06,795100721,test,2,0.5,74,8,28,1,486,82,20,0.5
71618,09:28:06,795100721,test,2,-0.5,76,5,11,0,626,82,19,0.5
71618,09:28:06,795100721,test,2,-0.5,78,6,16,1,450,82,22,0.5
71618,09:28:06,795100721,test,2,0.5,80,4,26,1,652,83,22,0.5
71618,09:28:06,795100721,test,2,0.5,82,7,65,0,389,78,22,0.5
71618,09:28:06,795100721,test,2,-0.5,84,4,54,1,331,78,26,0.5
71618,09:28:06,795100721,test,2,-0.5,86,1,61,0,387,78,25,0.5
71618,09:28:06,795100721,test,2,-0.5,88,11,39,1,376,78,28,0.5
71618,09:28:06,795100721,test,2,-0.5,90,3,17,0,550,78,26,0.5
71618,09:28:06,795100721,test,2,0.5,92,8,41,0,451,75,26,0.5
71618,09:28:06,795100721,test,2,0.5,94,2,29,1,1301,76,26,-0.5
71618,09:28:06,795100721,test,2,0.5,96,3,67,1,663,77,26,0.5
71618,09:28:06,795100721,test,2,0.5,98,7,3,0,623,73,26,0.5
71618,09:28:06,795100721,test,2,0.5,100,5,37,1,407,75,26,0.5
71618,09:28:06,795100721,test,2,-0.5,102,9,58,1,512,75,29,0.5
71618,09:28:06,795100721,test,2,0.5,104,12,63,1,327,76,29,0.5
71618,09:28:06,795100721,test,2,-0.5,106,2,19,1,326,76,32,0.5
71618,09:28:06,795100721,test,2,0.5,108,11,62,1,532,76,32,0.5
71618,09:28:06,795100721,test,2,-0.5,110,7,38,0,399,76,31,-0.5
71618,09:28:06,795100721,test,2,-0.5,112,10,14,0,394,76,30,-0.5
71618,09:28:06,795100721,test,2,-0.5,114,8,13,0,914,76,29,-0.5
71618,09:28:06,795100721,test,2,0.5,116,10,64,1,3487,77,29,-0.5
71618,09:28:06,795100721,test,2,0.5,118,9,43,1,543,78,29,-0.5
71618,09:28:06,795100721,test,2,0.5,120,4,25,0,623,75,29,0.5
71618,09:28:06,795100721,test,2,0.5,122,6,31,0,590,73,29,0.5
71618,09:28:06,795100721,test,2,0.5,124,1,71,1,820,74,29,-0.5
71618,09:28:06,795100721,test,2,0.5,126,10,14,0,470,71,29,-0.5
71618,09:28:06,795100721,test,2,0.5,128,11,62,1,399,72,29,0.5
71618,09:28:06,795100721,test,2,-0.5,130,4,27,1,475,72,31,0.5
71618,09:28:06,795100721,test,2,-0.5,132,8,2,0,392,72,30,-0.5
71618,09:28:06,795100721,test,2,0.5,134,5,67,1,317,73,30,0.5
71618,09:28:06,795100721,test,2,-0.5,136,12,52,1,531,73,32,0.5
71618,09:28:06,795100721,test,2,0.5,138,3,12,1,437,74,32,0.5
71618,09:28:06,795100721,test,2,-0.5,140,10,54,1,1691,74,34,0.5
71618,09:28:06,795100721,test,2,0.5,142,4,7,1,416,75,34,0.5
71618,09:28:06,795100721,test,2,-0.5,144,9,32,0,379,75,33,0.5
71618,14:28:24,184299191,test,2,0.5,2,4,6,1,1963,100,0,-0.5
71618,14:28:24,184299191,test,2,-0.5,4,3,44,0,972,100,0,-0.5
71618,14:28:24,184299191,test,2,0.5,6,6,2,1,1214,100,0,-0.5
71618,14:28:24,184299191,test,2,-0.5,8,9,33,1,1115,100,50,-0.5
71618,14:28:24,184299191,test,2,-0.5,10,11,9,1,981,100,66,-0.5
71618,14:28:24,184299191,test,2,-0.5,12,12,19,0,960,100,50,-0.5
71618,14:28:24,184299191,test,2,-0.5,14,10,20,0,973,100,40,-0.5
71618,14:28:24,184299191,test,2,0.5,16,12,17,1,1026,100,40,-0.5
71618,14:28:24,184299191,test,2,0.5,18,1,46,1,1126,100,40,-0.5
71618,14:28:24,184299191,test,2,-0.5,20,6,15,0,996,100,33,-0.5
71618,14:28:24,184299191,test,2,-0.5,22,5,61,0,680,100,28,-0.5
71618,14:28:24,184299191,test,2,-0.5,24,2,67,0,819,100,25,-0.5
71618,14:28:24,184299191,test,2,-0.5,26,9,1,0,662,100,22,-0.5
71618,14:28:24,184299191,test,2,0.5,28,9,4,1,1771,100,22,-0.5
71618,14:28:24,184299191,test,2,0.5,30,7,58,0,2452,83,22,-0.5
71618,14:28:24,184299191,test,2,0.5,32,2,10,0,1655,71,22,-0.5
71618,14:28:24,184299191,test,2,0.5,34,12,50,0,2009,62,22,-0.5
71618,14:28:24,184299191,test,2,-0.5,36,8,34,0,1824,62,20,-0.5
71618,14:28:24,184299191,test,2,0.5,38,10,8,1,1011,66,20,-0.5
71618,14:28:24,184299191,test,2,0.5,40,11,31,0,923,60,20,-0.5
71618,14:28:24,184299191,test,2,0.5,42,8,52,0,1169,54,20,-0.5
71618,14:28:24,184299191,test,2,-0.5,44,12,7,1,1262,54,27,-0.5
71618,14:28:24,184299191,test,2,0.5,46,9,30,1,919,58,27,-0.5
71618,14:28:24,184299191,test,2,0.5,48,1,55,1,1612,61,27,-0.5
71618,14:28:24,184299191,test,2,-0.5,50,4,72,1,1005,61,33,-0.5
71618,14:28:24,184299191,test,2,0.5,52,6,65,0,959,57,33,-0.5
71618,14:28:24,184299191,test,2,-0.5,54,1,36,1,949,57,38,-0.5
71618,14:28:24,184299191,test,2,0.5,56,7,26,0,785,53,38,-0.5
71618,14:28:24,184299191,test,2,0.5,58,2,70,1,1031,56,38,-0.5
71618,14:28:24,184299191,test,2,-0.5,60,3,5,0,891,56,35,-0.5
71618,14:28:24,184299191,test,2,-0.5,62,5,41,0,990,56,33,-0.5
71618,14:28:24,184299191,test,2,0.5,64,4,66,1,1035,58,33,-0.5
71618,14:28:24,184299191,test,2,0.5,66,3,60,0,1082,55,33,-0.5
71618,14:28:24,184299191,test,2,-0.5,68,10,56,0,646,55,31,-0.5
71618,14:28:24,184299191,test,2,-0.5,70,7,28,0,958,55,29,-0.5
71618,14:28:24,184299191,test,2,-0.5,72,6,51,0,1003,55,27,-0.5
71618,14:28:24,184299191,test,2,0.5,74,5,53,0,1100,52,27,-0.5
71618,14:28:24,184299191,test,2,0.5,76,4,25,1,1031,55,27,-0.5
71618,14:28:24,184299191,test,2,-0.5,78,11,54,0,892,55,26,-0.5
71618,14:28:24,184299191,test,2,0.5,80,1,14,0,793,52,26,-0.5
71618,14:28:24,184299191,test,2,-0.5,82,4,47,1,4224,52,30,-0.5
71618,14:28:24,184299191,test,2,0.5,84,5,23,1,1743,54,30,-0.5
71618,14:28:24,184299191,test,2,0.5,86,6,68,0,5643,52,30,-0.5
71618,14:28:24,184299191,test,2,0.5,88,11,64,1,5800,54,30,-0.5
71618,14:28:24,184299191,test,2,-0.5,90,7,63,0,1217,54,28,-0.5
71618,14:28:24,184299191,test,2,0.5,92,7,42,0,5122,52,28,-0.5
71618,14:28:24,184299191,test,2,0.5,94,12,24,1,913,53,28,-0.5
71618,14:28:24,184299191,test,2,0.5,96,2,69,0,819,51,28,-0.5
71618,14:28:24,184299191,test,2,-0.5,98,9,21,0,789,51,27,-0.5
71618,14:28:24,184299191,test,2,0.5,100,8,27,0,1070,50,27,-0.5
71618,14:28:24,184299191,test,2,0.5,102,9,57,0,738,48,27,-0.5
71618,14:28:24,184299191,test,2,0.5,104,3,18,0,657,46,27,-0.5
71618,14:28:24,184299191,test,2,-0.5,106,6,35,1,1227,46,30,-0.5
71618,14:28:24,184299191,test,2,-0.5,108,8,12,0,747,46,29,-0.5
71618,14:28:24,184299191,test,2,0.5,110,10,38,1,1272,48,29,-0.5
71618,14:28:24,184299191,test,2,-0.5,112,12,43,0,780,48,28,-0.5
71618,14:28:24,184299191,test,2,0.5,114,6,39,1,978,50,28,-0.5
71618,14:28:24,184299191,test,2,0.5,116,7,48,0,623,48,28,-0.5
71618,14:28:24,184299191,test,2,0.5,118,9,11,0,891,47,28,-0.5
71618,14:28:24,184299191,test,2,-0.5,120,5,32,0,489,47,26,-0.5
71618,14:28:24,184299191,test,2,-0.5,122,2,49,0,2040,47,25,0.5
71618,14:28:24,184299191,test,2,-0.5,124,3,16,0,714,47,25,-0.5
71618,14:28:24,184299191,test,2,-0.5,126,1,63,0,518,47,24,0.5
71618,14:28:24,184299191,test,2,-0.5,128,10,49,0,842,47,23,-0.5
71618,14:28:24,184299191,test,2,-0.5,130,11,55,0,559,47,22,-0.5
71618,14:28:24,184299191,test,2,-0.5,132,11,57,0,715,47,21,-0.5
71618,14:28:24,184299191,test,2,0.5,134,1,3,1,1021,48,21,-0.5
71618,14:28:24,184299191,test,2,-0.5,136,1,33,1,982,48,24,-0.5
71618,14:28:24,184299191,test,2,0.5,138,10,21,0,917,47,24,-0.5
71618,14:28:24,184299191,test,2,-0.5,140,4,39,1,976,47,26,-0.5
71618,14:28:24,184299191,test,2,-0.5,142,9,4,1,815,47,28,-0.5
71618,14:28:24,184299191,test,2,-0.5,144,10,2,1,916,47,30,-0.5
71618,14:29:25,426804087,test,2,-0.5,2,9,22,0,1956,0,0,-0.5
71618,14:29:25,426804087,test,2,0.5,4,6,34,0,1142,0,0,-0.5
71618,14:29:25,426804087,test,2,0.5,6,1,53,0,1543,0,0,-0.5
71618,14:29:25,426804087,test,2,0.5,8,4,27,0,2009,0,0,-0.5
71618,14:29:25,426804087,test,2,0.5,10,12,62,0,1018,0,0,-0.5
71618,14:29:25,426804087,test,2,-0.5,12,5,51,0,828,0,0,-0.5
71618,14:29:25,426804087,test,2,-0.5,14,2,45,0,3039,0,0,-0.5
71618,14:29:25,426804087,test,2,-0.5,16,8,14,0,976,0,0,-0.5
71618,14:29:25,426804087,test,2,-0.5,18,1,61,0,641,0,0,-0.5
71618,14:29:25,426804087,test,2,0.5,20,5,67,0,1133,0,0,-0.5
71618,14:29:25,426804087,test,2,0.5,22,7,49,0,913,0,0,-0.5
71618,14:29:25,426804087,test,2,-0.5,24,4,64,0,1213,0,0,-0.5
71618,14:29:25,426804087,test,2,-0.5,26,10,15,0,749,0,0,-0.5
71618,14:29:25,426804087,test,2,0.5,28,3,30,0,894,0,0,-0.5
71618,14:29:25,426804087,test,2,-0.5,30,4,6,0,795,0,0,-0.5
71618,14:29:25,426804087,test,2,0.5,32,8,31,0,1045,0,0,-0.5
71618,14:29:25,426804087,test,2,-0.5,34,5,40,0,860,0,0,-0.5
71618,14:29:25,426804087,test,2,-0.5,36,9,60,0,632,0,0,-0.5
71618,14:29:25,426804087,test,2,-0.5,38,3,63,0,545,0,0,-0.5
71618,14:29:25,426804087,test,2,0.5,40,2,17,0,1092,0,0,-0.5
71618,14:29:25,426804087,test,2,-0.5,42,8,65,0,539,0,0,-0.5
71618,14:29:25,426804087,test,2,-0.5,44,11,48,0,233,0,0,-0.5
71618,14:29:25,426804087,test,2,0.5,46,11,16,0,442,0,0,-0.5
71618,14:29:25,426804087,test,2,0.5,48,7,4,0,1557,0,0,-0.5
71618,14:29:25,426804087,test,2,0.5,50,3,7,0,834,0,0,-0.5
71618,14:29:25,426804087,test,2,0.5,52,12,32,0,723,0,0,-0.5
71618,14:29:25,426804087,test,2,0.5,54,5,57,0,1457,0,0,-0.5
71618,14:29:25,426804087,test,2,0.5,56,9,23,0,922,0,0,-0.5
71618,14:29:25,426804087,test,2,-0.5,58,10,47,0,1538,0,0,-0.5
71618,14:29:25,426804087,test,2,-0.5,60,7,58,0,2132,0,0,-0.5
71618,14:29:25,426804087,test,2,-0.5,62,12,9,0,1317,0,0,-0.5
71618,14:29:25,426804087,test,2,-0.5,64,1,5,0,1104,0,0,-0.5
71618,14:29:25,426804087,test,2,-0.5,66,2,3,0,1048,0,0,-0.5
71618,14:29:25,426804087,test,2,-0.5,68,6,44,0,2137,0,0,-0.5
71618,14:29:25,426804087,test,2,-0.5,70,7,35,0,1677,0,0,-0.5
71618,14:29:25,426804087,test,2,-0.5,72,4,24,0,1190,0,0,-0.5
71618,14:29:25,426804087,test,2,0.5,74,4,59,0,918,0,0,-0.5
71618,14:29:25,426804087,test,2,0.5,76,10,8,0,862,0,0,-0.5
71618,14:29:25,426804087,test,2,0.5,78,1,37,0,862,0,0,-0.5
71618,14:29:25,426804087,test,2,0.5,80,6,20,0,926,0,0,-0.5
71618,14:29:25,426804087,test,2,0.5,82,7,12,0,957,0,0,-0.5
71618,14:29:25,426804087,test,2,0.5,84,6,43,0,934,0,0,-0.5
71618,14:29:25,426804087,test,2,-0.5,86,5,50,0,969,0,0,-0.5
71618,14:29:25,426804087,test,2,-0.5,88,9,28,0,951,0,0,-0.5
71618,14:29:25,426804087,test,2,0.5,90,1,10,0,804,0,0,-0.5
71618,14:29:25,426804087,test,2,-0.5,92,8,13,0,1380,0,0,-0.5
71618,14:29:25,426804087,test,2,-0.5,94,3,33,0,1179,0,0,-0.5
71618,14:29:25,426804087,test,2,-0.5,96,2,46,1,2274,0,3,-0.5
71618,14:29:25,426804087,test,2,-0.5,98,6,69,0,1210,0,3,-0.5
71618,14:29:25,426804087,test,2,0.5,100,12,25,0,1306,0,3,-0.5
71618,14:29:25,426804087,test,2,-0.5,102,10,42,0,2003,0,3,-0.5
71618,14:29:25,426804087,test,2,-0.5,104,11,29,1,1606,0,6,-0.5
71618,14:29:25,426804087,test,2,-0.5,106,1,18,0,1243,0,6,-0.5
71618,14:29:25,426804087,test,2,0.5,108,10,72,0,1278,0,6,-0.5
71618,14:29:25,426804087,test,2,-0.5,110,12,39,0,1351,0,6,-0.5
71618,14:29:25,426804087,test,2,0.5,112,3,41,0,1352,0,6,-0.5
71618,14:29:25,426804087,test,2,0.5,114,8,68,0,1180,0,6,-0.5
71618,14:29:25,426804087,test,2,0.5,116,9,66,0,1629,0,6,-0.5
71618,14:29:25,426804087,test,2,0.5,118,11,55,0,1214,0,6,-0.5
71618,14:29:25,426804087,test,2,0.5,120,2,1,0,1052,0,6,-0.5
71618,14:29:25,426804087,test,2,0.5,122,4,21,0,1354,0,6,-0.5
71618,14:29:25,426804087,test,2,0.5,124,5,54,0,1068,0,6,-0.5
71618,14:29:25,426804087,test,2,0.5,126,5,30,0,1412,0,6,-0.5
71618,14:29:25,426804087,test,2,-0.5,128,11,55,0,1078,0,6,-0.5
71618,14:29:25,426804087,test,2,-0.5,130,3,53,0,3819,0,6,-0.5
71618,14:29:25,426804087,test,2,0.5,132,11,3,0,924,0,6,-0.5
71618,14:29:25,426804087,test,2,-0.5,134,4,35,0,4927,0,5,-0.5
71618,14:29:25,426804087,test,2,0.5,136,3,5,0,831,0,5,-0.5
71618,14:29:25,426804087,test,2,0.5,138,12,20,0,1028,0,5,-0.5
71618,14:29:25,426804087,test,2,0.5,140,7,25,0,949,0,5,-0.5
71618,14:29:25,426804087,test,2,-0.5,142,7,66,0,877,0,5,-0.5
71618,14:29:25,426804087,test,2,-0.5,144,12,42,0,1004,0,5,-0.5
71618,09:33:36,136022943,test,2,-0.5,2,10,33,1,2614,0,100,-0.5
71618,09:33:36,136022943,test,2,0.5,4,3,56,1,875,100,100,0.5
71618,09:33:36,136022943,test,2,-0.5,6,4,1,0,1107,100,50,0.5
71618,09:33:36,136022943,test,2,0.5,8,8,27,1,960,100,50,0.5
71618,09:33:36,136022943,test,2,-0.5,10,7,32,0,858,100,33,0.5
71618,09:33:36,136022943,test,2,0.5,12,2,71,1,786,100,33,0.5
71618,09:33:36,136022943,test,2,0.5,14,10,43,1,1666,100,33,-0.5
71618,09:33:36,136022943,test,2,-0.5,16,9,6,0,1048,100,25,0.5
71618,09:33:36,136022943,test,2,-0.5,18,2,22,0,868,100,20,0.5
71618,09:33:36,136022943,test,2,0.5,20,4,26,1,1650,100,20,-0.5
71618,09:33:36,136022943,test,2,-0.5,22,1,54,0,863,100,16,0.5
71618,09:33:36,136022943,test,2,0.5,24,9,68,0,2622,83,16,-0.5
71618,09:33:36,136022943,test,2,0.5,26,5,21,1,619,85,16,0.5
71618,09:33:36,136022943,test,2,-0.5,28,3,3,0,744,85,14,0.5
71618,09:33:36,136022943,test,2,-0.5,30,3,29,0,586,85,12,0.5
71618,09:33:36,136022943,test,2,0.5,32,1,13,1,542,87,12,0.5
71618,09:33:36,136022943,test,2,0.5,34,5,20,1,579,88,12,0.5
71618,09:33:36,136022943,test,2,-0.5,36,11,67,0,2141,88,11,-0.5
71618,09:33:36,136022943,test,2,0.5,38,10,69,1,691,90,11,0.5
71618,09:33:36,136022943,test,2,-0.5,40,6,48,0,1108,90,10,0.5
71618,09:33:36,136022943,test,2,-0.5,42,12,70,1,1634,90,18,-0.5
71618,09:33:36,136022943,test,2,0.5,44,7,5,1,719,90,18,0.5
71618,09:33:36,136022943,test,2,0.5,46,9,64,1,1694,91,18,-0.5
71618,09:33:36,136022943,test,2,-0.5,48,1,23,0,765,91,16,0.5
71618,09:33:36,136022943,test,2,-0.5,50,10,34,0,1666,91,15,-0.5
71618,09:33:36,136022943,test,2,-0.5,52,7,46,0,641,91,14,0.5
71618,09:33:36,136022943,test,2,-0.5,54,8,52,0,4149,91,13,-0.5
71618,09:33:36,136022943,test,2,0.5,56,11,72,0,756,84,13,-0.5
71618,09:33:36,136022943,test,2,-0.5,58,4,16,0,711,84,12,0.5
71618,09:33:36,136022943,test,2,0.5,60,2,60,1,476,85,12,0.5
71618,09:33:36,136022943,test,2,0.5,62,4,9,1,1723,86,12,-0.5
71618,09:33:36,136022943,test,2,0.5,64,6,14,1,438,87,12,0.5
71618,09:33:36,136022943,test,2,-0.5,66,9,51,0,1570,87,11,0.5
71618,09:33:36,136022943,test,2,0.5,68,8,17,1,624,88,11,0.5
71618,09:33:36,136022943,test,2,0.5,70,12,58,1,774,88,11,0.5
71618,09:33:36,136022943,test,2,-0.5,72,2,28,0,473,88,11,0.5
71618,09:33:36,136022943,test,2,-0.5,74,5,15,0,596,88,10,0.5
71618,09:33:36,136022943,test,2,0.5,76,3,11,1,524,89,10,0.5
71618,09:33:36,136022943,test,2,0.5,78,10,18,1,703,90,10,0.5
71618,09:33:36,136022943,test,2,-0.5,80,11,66,0,2032,90,10,-0.5
71618,09:33:36,136022943,test,2,-0.5,82,8,59,0,2706,90,9,0.5
71618,09:33:36,136022943,test,2,-0.5,84,10,36,0,2313,90,9,0.5
71618,09:33:36,136022943,test,2,-0.5,86,9,8,0,905,90,8,-0.5
71618,09:33:36,136022943,test,2,-0.5,88,1,40,0,631,90,8,0.5
71618,09:33:36,136022943,test,2,0.5,90,9,50,0,1725,85,8,-0.5
71618,09:33:36,136022943,test,2,0.5,92,11,31,0,1831,81,8,-0.5
71618,09:33:36,136022943,test,2,0.5,94,12,25,1,900,82,8,0.5
71618,09:33:36,136022943,test,2,-0.5,96,12,41,0,1973,82,8,-0.5
71618,09:33:36,136022943,test,2,-0.5,98,7,30,0,778,82,7,0.5
71618,09:33:36,136022943,test,2,0.5,100,4,55,0,2486,79,7,-0.5
71618,09:33:36,136022943,test,2,0.5,102,6,35,1,657,80,7,0.5
71618,09:33:36,136022943,test,2,0.5,104,2,2,1,421,80,7,0.5
71618,09:33:36,136022943,test,2,-0.5,106,2,10,0,487,80,7,0.5
71618,09:33:36,136022943,test,2,0.5,108,5,12,1,895,81,7,0.5
71618,09:33:36,136022943,test,2,-0.5,110,4,42,0,1006,81,7,0.5
71618,09:33:36,136022943,test,2,-0.5,112,3,47,0,457,81,6,0.5
71618,09:33:36,136022943,test,2,0.5,114,7,49,1,631,82,6,0.5
71618,09:33:36,136022943,test,2,0.5,116,8,45,1,595,82,6,0.5
71618,09:33:36,136022943,test,2,-0.5,118,5,37,0,511,82,6,0.5
71618,09:33:36,136022943,test,2,-0.5,120,6,53,0,860,82,6,0.5
71618,09:33:36,136022943,test,2,-0.5,122,8,61,1,1687,82,9,0.5
71618,09:33:36,136022943,test,2,0.5,124,1,24,1,449,83,9,0.5
71618,09:33:36,136022943,test,2,0.5,126,3,60,1,397,83,9,0.5
71618,09:33:36,136022943,test,2,-0.5,128,3,6,0,1426,83,9,0.5
71618,09:33:36,136022943,test,2,0.5,130,9,72,1,2768,84,9,-0.5
71618,09:33:36,136022943,test,2,-0.5,132,2,12,0,607,84,8,0.5
71618,09:33:36,136022943,test,2,0.5,134,11,47,1,2192,84,8,-0.5
71618,09:33:36,136022943,test,2,-0.5,136,4,15,0,1182,84,8,0.5
71618,09:33:36,136022943,test,2,0.5,138,5,71,1,621,85,8,0.5
71618,09:33:36,136022943,test,2,0.5,140,1,51,1,360,85,8,0.5
71618,09:33:36,136022943,test,2,-0.5,142,9,55,1,827,85,11,-0.5
71618,09:33:36,136022943,test,2,0.5,144,8,24,1,447,86,11,0.5
71618,14:35:42,765338899,test,2,0.5,2,4,18,1,998,100,0,-0.5
71618,14:35:42,765338899,test,2,-0.5,4,4,69,0,1585,100,0,-0.5
71618,14:35:42,765338899,test,2,-0.5,6,6,24,0,2612,100,0,-0.5
71618,14:35:42,765338899,test,2,-0.5,8,12,37,0,1049,100,0,-0.5
71618,14:35:42,765338899,test,2,-0.5,10,11,16,1,939,100,25,-0.5
71618,14:35:42,765338899,test,2,0.5,12,3,68,1,672,100,25,-0.5
71618,14:35:42,765338899,test,2,-0.5,14,7,53,0,1938,100,20,-0.5
71618,14:35:42,765338899,test,2,-0.5,16,5,1,0,2013,100,16,0.5
71618,14:35:42,765338899,test,2,0.5,18,8,43,1,917,100,16,-0.5
71618,14:35:42,765338899,test,2,0.5,20,2,58,1,1220,100,16,-0.5
71618,14:35:42,765338899,test,2,-0.5,22,3,72,0,1487,100,14,-0.5
71618,14:35:42,765338899,test,2,0.5,24,11,59,1,589,100,14,-0.5
71618,14:35:42,765338899,test,2,-0.5,26,2,26,0,746,100,12,-0.5
71618,14:35:42,765338899,test,2,-0.5,28,7,57,0,1033,100,11,-0.5
71618,14:35:42,765338899,test,2,0.5,30,9,70,1,579,100,11,-0.5
71618,14:35:42,765338899,test,2,0.5,32,12,33,1,497,100,11,-0.5
71618,14:35:42,765338899,test,2,-0.5,34,12,13,0,811,100,10,-0.5
71618,14:35:42,765338899,test,2,-0.5,36,5,11,0,607,100,9,-0.5
71618,14:35:42,765338899,test,2,-0.5,38,1,41,0,619,100,8,-0.5
71618,14:35:42,765338899,test,2,-0.5,40,6,20,0,890,100,7,-0.5
71618,14:35:42,765338899,test,2,0.5,42,1,36,1,617,100,7,-0.5
71618,14:35:42,765338899,test,2,0.5,44,6,28,1,566,100,7,-0.5
71618,14:35:42,765338899,test,2,0.5,46,4,5,1,693,100,7,-0.5
71618,14:35:42,765338899,test,2,0.5,48,2,25,1,1038,100,7,-0.5
71618,14:35:42,765338899,test,2,0.5,50,11,44,1,368,100,7,-0.5
71618,14:35:42,765338899,test,2,-0.5,52,10,27,0,912,100,7,-0.5
71618,14:35:42,765338899,test,2,0.5,54,3,32,1,496,100,7,-0.5
71618,14:35:42,765338899,test,2,0.5,56,9,61,1,650,100,7,-0.5
71618,14:35:42,765338899,test,2,-0.5,58,3,40,0,573,100,6,-0.5
71618,14:35:42,765338899,test,2,-0.5,60,9,54,0,2419,100,6,0.5
71618,14:35:42,765338899,test,2,0.5,62,5,7,1,843,100,6,-0.5
71618,14:35:42,765338899,test,2,0.5,64,12,47,1,422,100,6,-0.5
71618,14:35:42,765338899,test,2,-0.5,66,8,15,0,346,100,5,-0.5
71618,14:35:42,765338899,test,2,0.5,68,8,67,1,706,100,5,-0.5
71618,14:35:42,765338899,test,2,0.5,70,10,30,1,883,100,5,-0.5
71618,14:35:42,765338899,test,2,0.5,72,7,4,1,428,100,5,-0.5
71618,14:35:42,765338899,test,2,-0.5,74,11,12,1,697,100,11,-0.5
71618,14:35:42,765338899,test,2,0.5,76,8,31,1,442,100,11,-0.5
71618,14:35:42,765338899,test,2,-0.5,78,4,39,0,582,100,10,-0.5
71618,14:35:42,765338899,test,2,-0.5,80,6,52,0,1172,100,10,-0.5
71618,14:35:42,765338899,test,2,-0.5,82,3,51,0,496,100,9,-0.5
71618,14:35:42,765338899,test,2,0.5,84,2,35,1,513,100,9,-0.5
71618,14:35:42,765338899,test,2,-0.5,86,9,60,0,659,100,9,-0.5
71618,14:35:42,765338899,test,2,0.5,88,1,9,1,333,100,9,-0.5
71618,14:35:42,765338899,test,2,-0.5,90,11,38,1,365,100,13,-0.5
71618,14:35:42,765338899,test,2,-0.5,92,4,10,0,356,100,12,-0.5
71618,14:35:42,765338899,test,2,0.5,94,11,29,1,620,100,12,-0.5
71618,14:35:42,765338899,test,2,-0.5,96,12,65,0,617,100,12,-0.5
71618,14:35:42,765338899,test,2,0.5,98,6,23,1,350,100,12,-0.5
71618,14:35:42,765338899,test,2,0.5,100,9,50,1,494,100,12,-0.5
71618,14:35:42,765338899,test,2,0.5,102,12,71,1,368,100,12,-0.5
71618,14:35:42,765338899,test,2,0.5,104,4,34,1,375,100,12,-0.5
71618,14:35:42,765338899,test,2,0.5,106,5,46,1,406,100,12,-0.5
71618,14:35:42,765338899,test,2,-0.5,108,7,63,0,892,100,11,-0.5
71618,14:35:42,765338899,test,2,0.5,110,10,45,1,2052,100,11,-0.5
71618,14:35:42,765338899,test,2,0.5,112,3,14,1,355,100,11,-0.5
71618,14:35:42,765338899,test,2,0.5,114,7,3,1,354,100,11,-0.5
71618,14:35:42,765338899,test,2,-0.5,116,1,22,0,562,100,11,-0.5
71618,14:35:42,765338899,test,2,-0.5,118,8,21,0,409,100,10,-0.5
71618,14:35:42,765338899,test,2,0.5,120,2,66,1,533,100,10,-0.5
71618,14:35:42,765338899,test,2,-0.5,122,10,8,0,1429,100,10,-0.5
71618,14:35:42,765338899,test,2,-0.5,124,5,2,0,357,100,10,-0.5
71618,14:35:42,765338899,test,2,-0.5,126,2,58,0,573,100,9,-0.5
71618,14:35:42,765338899,test,2,-0.5,128,9,30,0,507,100,9,-0.5
71618,14:35:42,765338899,test,2,0.5,130,9,36,1,428,100,9,-0.5
71618,14:35:42,765338899,test,2,-0.5,132,5,42,0,417,100,9,-0.5
71618,14:35:42,765338899,test,2,0.5,134,1,60,1,271,100,9,-0.5
71618,14:35:42,765338899,test,2,-0.5,136,1,67,0,338,100,8,-0.5
71618,14:35:42,765338899,test,2,-0.5,138,12,71,0,402,100,8,-0.5
71618,14:35:42,765338899,test,2,0.5,140,6,27,1,304,100,8,-0.5
71618,14:35:42,765338899,test,2,-0.5,142,10,34,0,874,100,8,-0.5
71618,14:35:42,765338899,test,2,0.5,144,5,12,1,291,100,8,-0.5
71618,14:33:40,704053711,test,2,0.5,2,2,43,1,1299,100,0,0.5
71618,14:33:40,704053711,test,2,-0.5,4,6,71,1,1033,100,100,-0.5
71618,14:33:40,704053711,test,2,0.5,6,1,22,1,1137,100,100,0.5
71618,14:33:40,704053711,test,2,-0.5,8,10,4,0,1491,100,50,0.5
71618,14:33:40,704053711,test,2,0.5,10,11,10,1,1661,100,50,-0.5
71618,14:33:40,704053711,test,2,-0.5,12,1,41,0,961,100,33,0.5
71618,14:33:40,704053711,test,2,0.5,14,8,69,1,699,100,33,0.5
71618,14:33:40,704053711,test,2,0.5,16,4,25,1,1203,100,33,0.5
71618,14:33:40,704053711,test,2,-0.5,18,11,1,0,1860,100,25,-0.5
71618,14:33:40,704053711,test,2,0.5,20,7,49,1,937,100,25,0.5
71618,14:33:40,704053711,test,2,-0.5,22,8,18,0,887,100,20,0.5
71618,14:33:40,704053711,test,2,-0.5,24,5,6,0,1368,100,16,-0.5
71618,14:33:40,704053711,test,2,0.5,26,3,39,1,1452,100,16,0.5
71618,14:33:40,704053711,test,2,-0.5,28,12,52,1,1816,100,28,-0.5
71618,14:33:40,704053711,test,2,-0.5,30,10,16,1,1566,100,37,-0.5
71618,14:33:40,704053711,test,2,0.5,32,2,13,1,1226,100,37,0.5
71618,14:33:40,704053711,test,2,-0.5,34,6,32,1,1614,100,44,-0.5
71618,14:33:40,704053711,test,2,0.5,36,12,26,1,1191,100,44,-0.5
71618,14:33:40,704053711,test,2,0.5,38,1,5,1,795,100,44,-0.5
71618,14:33:40,704053711,test,2,-0.5,40,1,65,0,958,100,40,0.5
71618,14:33:40,704053711,test,2,-0.5,42,5,56,1,2342,100,45,-0.5
71618,14:33:40,704053711,test,2,-0.5,44,2,31,1,967,100,50,-0.5
71618,14:33:40,704053711,test,2,-0.5,46,12,55,0,1436,100,46,-0.5
71618,14:33:40,704053711,test,2,0.5,48,10,61,0,981,90,46,-0.5
71618,14:33:40,704053711,test,2,-0.5,50,11,64,0,1061,90,42,-0.5
71618,14:33:40,704053711,test,2,0.5,52,7,53,1,639,91,42,-0.5
71618,14:33:40,704053711,test,2,0.5,54,9,50,1,1372,92,42,-0.5
71618,14:33:40,704053711,test,2,-0.5,56,3,57,0,1263,92,40,0.5
71618,14:33:40,704053711,test,2,-0.5,58,8,38,1,1067,92,43,-0.5
71618,14:33:40,704053711,test,2,-0.5,60,4,36,0,937,92,41,-0.5
71618,14:33:40,704053711,test,2,-0.5,62,7,72,1,1031,92,44,-0.5
71618,14:33:40,704053711,test,2,0.5,64,11,42,0,825,85,44,-0.5
71618,14:33:40,704053711,test,2,-0.5,66,9,54,1,885,85,47,-0.5
71618,14:33:40,704053711,test,2,0.5,68,8,44,1,1039,86,47,0.5
71618,14:33:40,704053711,test,2,-0.5,70,10,9,0,809,86,45,-0.5
71618,14:33:40,704053711,test,2,-0.5,72,4,60,1,676,86,47,0.5
71618,14:33:40,704053711,test,2,0.5,74,3,11,1,1044,87,47,0.5
71618,14:33:40,704053711,test,2,0.5,76,6,48,0,764,82,47,-0.5
71618,14:33:40,704053711,test,2,0.5,78,4,59,1,751,83,47,0.5
71618,14:33:40,704053711,test,2,0.5,80,5,17,0,595,78,47,-0.5
71618,14:33:40,704053711,test,2,-0.5,82,8,12,1,659,78,50,-0.5
71618,14:33:40,704053711,test,2,-0.5,84,3,15,0,936,78,47,0.5
71618,14:33:40,704053711,test,2,-0.5,86,7,63,0,756,78,45,0.5
71618,14:33:40,704053711,test,2,0.5,88,5,66,0,760,75,45,-0.5
71618,14:33:40,704053711,test,2,-0.5,90,6,21,1,597,75,48,-0.5
71618,14:33:40,704053711,test,2,0.5,92,10,3,1,1181,76,48,0.5
71618,14:33:40,704053711,test,2,0.5,94,11,67,1,658,77,48,0.5
71618,14:33:40,704053711,test,2,-0.5,96,12,46,1,772,77,50,-0.5
71618,14:33:40,704053711,test,2,0.5,98,7,28,1,603,78,50,0.5
71618,14:33:40,704053711,test,2,-0.5,100,11,7,0,1367,78,48,0.5
71618,14:33:40,704053711,test,2,-0.5,102,5,34,0,1734,78,46,-0.5
71618,14:33:40,704053711,test,2,0.5,104,1,62,0,918,75,46,-0.5
71618,14:33:40,704053711,test,2,0.5,106,9,47,0,1148,72,46,0.5
71618,14:33:40,704053711,test,2,0.5,108,6,23,1,1282,73,46,-0.5
71618,14:33:40,704053711,test,2,0.5,110,8,2,1,632,74,46,0.5
71618,14:33:40,704053711,test,2,0.5,112,2,70,1,983,75,46,0.5
71618,14:33:40,704053711,test,2,0.5,114,12,51,0,853,72,46,0.5
71618,14:33:40,704053711,test,2,0.5,116,3,20,1,887,73,46,0.5
71618,14:33:40,704053711,test,2,-0.5,118,1,30,0,857,73,44,0.5
71618,14:33:40,704053711,test,2,-0.5,120,2,24,0,1031,73,43,-0.5
71618,14:33:40,704053711,test,2,-0.5,122,9,33,1,642,73,45,-0.5
71618,14:33:40,704053711,test,2,0.5,124,4,29,0,755,70,45,-0.5
71618,14:33:40,704053711,test,2,0.5,126,10,35,1,643,71,45,0.5
71618,14:33:40,704053711,test,2,-0.5,128,4,51,1,743,71,46,0.5
71618,14:33:40,704053711,test,2,0.5,130,11,7,1,883,72,46,0.5
71618,14:33:40,704053711,test,2,-0.5,132,11,21,0,834,72,45,0.5
71618,14:33:40,704053711,test,2,-0.5,134,1,60,0,1375,72,44,0.5
71618,14:33:40,704053711,test,2,0.5,136,5,5,1,1412,73,44,-0.5
71618,14:33:40,704053711,test,2,0.5,138,4,39,1,1199,74,44,-0.5
71618,14:33:40,704053711,test,2,0.5,140,7,55,1,616,75,44,0.5
71618,14:33:40,704053711,test,2,-0.5,142,6,40,0,943,75,42,0.5
71618,14:33:40,704053711,test,2,-0.5,144,7,17,0,983,75,41,0.5
71618,14:37:21,710030814,test,2,-0.5,2,11,30,1,1619,0,100,-0.5
71618,14:37:21,710030814,test,2,-0.5,4,2,67,1,1853,0,100,-0.5
71618,14:37:21,710030814,test,2,0.5,6,3,56,0,2303,0,100,-0.5
71618,14:37:21,710030814,test,2,0.5,8,10,20,0,882,0,100,-0.5
71618,14:37:21,710030814,test,2,0.5,10,1,38,1,860,33,100,-0.5
71618,14:37:21,710030814,test,2,0.5,12,8,14,0,938,25,100,-0.5
71618,14:37:21,710030814,test,2,0.5,14,9,23,1,656,40,100,-0.5
71618,14:37:21,710030814,test,2,0.5,16,6,33,1,701,50,100,-0.5
71618,14:37:21,710030814,test,2,0.5,18,5,15,0,751,42,100,-0.5
71618,14:37:21,710030814,test,2,0.5,20,12,51,1,867,50,100,-0.5
71618,14:37:21,710030814,test,2,-0.5,22,10,16,0,907,50,66,-0.5
71618,14:37:21,710030814,test,2,-0.5,24,1,44,0,947,50,50,-0.5
71618,14:37:21,710030814,test,2,0.5,26,8,22,1,672,55,50,-0.5
71618,14:37:21,710030814,test,2,-0.5,28,9,58,0,832,55,40,-0.5
71618,14:37:21,710030814,test,2,-0.5,30,5,11,1,910,55,50,-0.5
71618,14:37:21,710030814,test,2,0.5,32,9,31,0,972,50,50,-0.5
71618,14:37:21,710030814,test,2,-0.5,34,7,60,0,1726,50,42,0.5
71618,14:37:21,710030814,test,2,-0.5,36,7,1,0,2454,50,37,-0.5
71618,14:37:21,710030814,test,2,0.5,38,6,62,0,868,45,37,-0.5
71618,14:37:21,710030814,test,2,0.5,40,1,7,1,990,50,37,0.5
71618,14:37:21,710030814,test,2,-0.5,42,11,6,0,1043,50,33,-0.5
71618,14:37:21,710030814,test,2,0.5,44,10,34,0,656,46,33,-0.5
71618,14:37:21,710030814,test,2,-0.5,46,6,70,0,1409,46,30,0.5
71618,14:37:21,710030814,test,2,0.5,48,2,4,0,971,42,30,-0.5
71618,14:37:21,710030814,test,2,0.5,50,4,42,0,1632,40,30,-0.5
71618,14:37:21,710030814,test,2,-0.5,52,10,27,1,922,40,36,-0.5
71618,14:37:21,710030814,test,2,-0.5,54,2,49,0,3722,40,33,0.5
71618,14:37:21,710030814,test,2,-0.5,56,3,28,0,1999,40,30,0.5
71618,14:37:21,710030814,test,2,-0.5,58,12,55,0,805,40,28,-0.5
71618,14:37:21,710030814,test,2,0.5,60,7,47,0,920,37,28,-0.5
71618,14:37:21,710030814,test,2,-0.5,62,4,66,1,774,37,33,-0.5
71618,14:37:21,710030814,test,2,-0.5,64,9,19,1,1329,37,37,-0.5
71618,14:37:21,710030814,test,2,0.5,66,3,65,1,1265,41,37,-0.5
71618,14:37:21,710030814,test,2,0.5,68,11,24,1,678,44,37,-0.5
71618,14:37:21,710030814,test,2,-0.5,70,1,2,1,1327,44,41,-0.5
71618,14:37:21,710030814,test,2,0.5,72,5,72,1,816,47,41,-0.5
