"date","time","subject","blockcode","blocknum","trialcode","trialnum","values.primestim","values.targetstim","correct","latency","trial.prime_positive.totalpercentcorrect","trial.prime_negative.totalpercentcorrect"
"031220","10:54:04","323764856","practice","1","prime_positive","3","0","0","0","101","0","0"
"031220","10:54:04","323764856","practice","1","intention_check_positive","4","0","0","1","1340","0","0"
"031220","10:54:04","323764856","practice","1","mask_prime_positive","5","11","35","0","60","0","0"
"031220","10:54:04","323764856","practice","1","prime_negative","6","11","35","0","101","0","0"
"031220","10:54:04","323764856","practice","1","intention_check_negative","7","11","35","1","987","0","0"
"031220","10:54:04","323764856","practice","1","mask_prime_negative","8","8","8","0","644","0","0"
"031220","10:54:04","323764856","practice","1","prime_positive","9","8","8","0","101","0","0"
"031220","10:54:04","323764856","practice","1","intention_check_positive","10","8","8","1","1866","0","0"
"031220","10:54:04","323764856","practice","1","mask_prime_positive","11","1","22","1","1022","0","0"
"031220","20:45:56","211285344","practice","1","prime_positive","3","0","0","0","101","0","0"
"031220","20:45:56","211285344","practice","1","intention_check_positive","4","0","0","0","2500","0","0"
"031220","20:45:56","211285344","practice","1","mask_prime_positive","5","11","32","0","4855","0","0"
"031220","20:45:56","211285344","practice","1","prime_negative","6","11","32","0","101","0","0"
"031220","20:45:56","211285344","practice","1","intention_check_negative","7","11","32","1","2388","0","0"
"031220","20:45:56","211285344","practice","1","mask_prime_negative","8","4","33","1","1013","0","0"
"031220","20:45:56","211285344","practice","1","prime_negative","9","4","33","0","101","0","0"
"031220","20:45:56","211285344","practice","1","intention_check_negative","10","4","33","0","2500","0","0"
"031220","20:45:56","211285344","practice","1","mask_prime_negative","11","11","62","0","1051","0","0"
"031220","20:45:56","211285344","practice","1","prime_negative","12","11","62","0","101","0","0"
"031220","20:45:56","211285344","practice","1","intention_check_negative","13","11","62","1","1304","0","0"
"031220","20:45:56","211285344","practice","1","mask_prime_negative","14","6","7","0","1229","0","0"
"031220","20:45:56","211285344","practice","1","prime_positive","15","6","7","0","101","0","0"
"031220","20:45:56","211285344","practice","1","intention_check_positive","16","6","7","1","1548","0","0"
"031220","20:45:56","211285344","practice","1","mask_prime_positive","17","1","6","1","892","0","0"
"031220","20:45:56","211285344","practice","1","prime_positive","18","1","6","0","101","0","0"
"031220","20:45:56","211285344","practice","1","intention_check_positive","19","1","6","0","2500","0","0"
"031220","20:45:56","211285344","practice","1","mask_prime_positive","20","5","16","1","811","0","0"
"031220","20:45:56","211285344","practice","1","prime_positive","21","5","16","0","101","0","0"
"031220","20:45:56","211285344","practice","1","intention_check_positive","22","5","16","0","2500","0","0"
"031220","20:45:56","211285344","practice","1","mask_prime_positive","23","10","38","1","1153","0","0"
"031220","20:45:56","211285344","practice","1","prime_negative","24","10","38","0","101","0","0"
"031220","20:45:56","211285344","practice","1","intention_check_negative","25","10","38","1","1105","0","0"
"031220","20:45:56","211285344","practice","1","mask_prime_negative","26","1","66","0","888","0","0"
"031220","20:45:56","211285344","practice","1","prime_positive","27","1","66","0","101","0","0"
"031220","20:45:56","211285344","practice","1","intention_check_positive","28","1","66","0","2500","0","0"
"031220","20:45:56","211285344","practice","1","mask_prime_positive","29","4","22","1","1835","0","0"
"031220","20:45:56","211285344","practice","1","prime_negative","30","4","22","0","101","0","0"
"031220","20:45:56","211285344","practice","1","intention_check_negative","31","4","22","1","1081","0","0"
"031220","20:45:56","211285344","practice","1","mask_prime_negative","32","2","57","1","1891","0","0"
"031220","20:45:56","211285344","test","2","prime_negative","2","2","57","0","101","0","0"
"031220","20:45:56","211285344","test","2","intention_check_negative","3","2","57","1","1388","0","0"
"031220","20:45:56","211285344","test","2","mask_prime_negative","4","8","23","0","2123","0","0"
"031220","20:45:56","211285344","test","2","prime_negative","5","8","23","0","101","0","0"
"031220","20:45:56","211285344","test","2","intention_check_negative","6","8","23","0","2500","0","0"
"031220","20:45:56","211285344","test","2","mask_prime_negative","7","10","60","0","697","0","0"
"031220","20:45:56","211285344","test","2","prime_negative","8","10","60","0","101","0","0"
"031220","20:45:56","211285344","test","2","intention_check_negative","9","10","60","1","1613","0","0"
"031220","20:45:56","211285344","test","2","mask_prime_negative","10","7","70","0","1181","0","0"
"031220","20:45:56","211285344","test","2","prime_negative","11","7","70","0","101","0","0"
"031220","20:45:56","211285344","test","2","intention_check_negative","12","7","70","0","2500","0","0"
"031220","20:45:56","211285344","test","2","mask_prime_negative","13","9","41","1","718","0","0"
"031220","20:45:56","211285344","test","2","prime_positive","14","9","41","0","101","0","0"
"031220","20:45:56","211285344","test","2","intention_check_positive","15","9","41","1","804","0","0"
"031220","20:45:56","211285344","test","2","mask_prime_positive","16","3","40","1","688","0","0"
"031220","20:45:56","211285344","test","2","prime_negative","17","3","40","0","101","0","0"
"031220","20:45:56","211285344","test","2","intention_check_negative","18","3","40","1","1246","0","0"
"031220","20:45:56","211285344","test","2","mask_prime_negative","19","5","3","1","4182","0","0"
"031220","20:45:56","211285344","test","2","prime_positive","20","5","3","0","101","0","0"
"031220","20:45:56","211285344","test","2","intention_check_positive","21","5","3","0","2500","0","0"
"031220","20:45:56","211285344","test","2","mask_prime_positive","22","9","29","1","924","0","0"
"031220","20:45:56","211285344","test","2","prime_positive","23","9","29","0","101","0","0"
"031220","20:45:56","211285344","test","2","intention_check_positive","24","9","29","0","2500","0","0"
"031220","20:45:56","211285344","test","2","mask_prime_positive","25","12","46","1","899","0","0"
"031220","20:45:56","211285344","test","2","prime_positive","26","12","46","0","101","0","0"
"031220","20:45:56","211285344","test","2","intention_check_positive","27","12","46","0","2500","0","0"
"031220","20:45:56","211285344","test","2","mask_prime_positive","28","8","4","1","822","0","0"
"031220","20:45:56","211285344","test","2","prime_positive","29","8","4","0","101","0","0"
"031220","20:45:56","211285344","test","2","intention_check_positive","30","8","4","0","2500","0","0"
"031220","20:45:56","211285344","test","2","mask_prime_positive","31","7","68","1","901","0","0"
"031220","20:45:56","211285344","test","2","prime_positive","32","7","68","0","101","0","0"
"031220","20:45:56","211285344","test","2","intention_check_positive","33","7","68","0","2500","0","0"
"031220","20:45:56","211285344","test","2","mask_prime_positive","34","6","65","0","860","0","0"
"031220","20:45:56","211285344","test","2","prime_positive","35","6","65","0","101","0","0"
"031220","20:45:56","211285344","test","2","intention_check_positive","36","6","65","0","2500","0","0"
"031220","20:45:56","211285344","test","2","mask_prime_positive","37","2","24","1","774","0","0"
"031220","20:45:56","211285344","test","2","prime_negative","38","2","24","0","101","0","0"
"031220","20:45:56","211285344","test","2","intention_check_negative","39","2","24","0","2500","0","0"
"031220","20:45:56","211285344","test","2","mask_prime_negative","40","12","64","0","750","0","0"
"031220","20:45:56","211285344","test","2","prime_positive","41","12","64","0","101","0","0"
"031220","20:45:56","211285344","test","2","intention_check_positive","42","12","64","0","2500","0","0"
"031220","20:45:56","211285344","test","2","mask_prime_positive","43","9","20","1","806","0","0"
"031220","20:45:56","211285344","test","2","prime_positive","44","9","20","0","101","0","0"
"031220","20:45:56","211285344","test","2","intention_check_positive","45","9","20","0","2500","0","0"
"031220","20:45:56","211285344","test","2","mask_prime_positive","46","3","18","1","517","0","0"
"031220","20:45:56","211285344","test","2","prime_positive","47","3","18","0","101","0","0"
"031220","20:45:56","211285344","test","2","intention_check_positive","48","3","18","0","2500","0","0"
"031220","20:45:56","211285344","test","2","mask_prime_positive","49","2","67","1","629","0","0"
"031220","20:45:56","211285344","test","2","prime_positive","50","2","67","0","101","0","0"
"031220","20:45:56","211285344","test","2","intention_check_positive","51","2","67","0","2500","0","0"
"031220","20:45:56","211285344","test","2","mask_prime_positive","52","1","25","0","906","0","0"
"031220","20:45:56","211285344","test","2","prime_positive","53","1","25","0","101","0","0"
"031220","20:45:56","211285344","test","2","intention_check_positive","54","1","25","1","1243","0","0"
"031220","20:45:56","211285344","test","2","mask_prime_positive","55","8","19","1","936","0","0"
"031220","20:45:56","211285344","test","2","prime_positive","56","8","19","0","101","0","0"
"031220","20:45:56","211285344","test","2","intention_check_positive","57","8","19","0","2500","0","0"
"031220","20:45:56","211285344","test","2","mask_prime_positive","58","5","69","0","2439","0","0"
"031220","20:45:56","211285344","test","2","prime_positive","59","5","69","0","101","0","0"
"031220","20:45:56","211285344","test","2","intention_check_positive","60","5","69","0","2500","0","0"
"031220","20:45:56","211285344","test","2","mask_prime_positive","61","4","47","0","776","0","0"
"031220","20:45:56","211285344","test","2","prime_negative","62","4","47","0","101","0","0"
"031220","20:45:56","211285344","test","2","intention_check_negative","63","4","47","1","1044","0","0"
"031220","20:45:56","211285344","test","2","mask_prime_negative","64","3","58","0","800","0","0"
"031220","20:45:56","211285344","test","2","prime_positive","65","3","58","0","101","0","0"
"031220","20:45:56","211285344","test","2","intention_check_positive","66","3","58","0","2500","0","0"
"031220","20:45:56","211285344","test","2","mask_prime_positive","67","6","48","0","997","0","0"
"031220","20:45:56","211285344","test","2","prime_negative","68","6","48","0","101","0","0"
"031220","20:45:56","211285344","test","2","intention_check_negative","69","6","48","1","1084","0","0"
"031220","20:45:56","211285344","test","2","mask_prime_negative","70","1","34","0","3787","0","0"
"031220","20:45:56","211285344","test","2","prime_negative","71","1","34","0","101","0","0"
"031220","20:45:56","211285344","test","2","intention_check_negative","72","1","34","0","2500","0","0"
"031220","20:45:56","211285344","test","2","mask_prime_negative","73","12","27","1","647","0","0"
"031220","20:45:56","211285344","test","2","prime_negative","74","12","27","0","101","0","0"
"031220","20:45:56","211285344","test","2","intention_check_negative","75","12","27","1","1769","0","0"
"031220","20:45:56","211285344","test","2","mask_prime_negative","76","5","5","1","1399","0","0"
"031220","20:45:56","211285344","test","2","prime_negative","77","5","5","0","101","0","0"
"031220","20:45:56","211285344","test","2","intention_check_negative","78","5","5","0","2500","0","0"
"031220","20:45:56","211285344","test","2","mask_prime_negative","79","9","72","1","1891","0","0"
"031220","20:45:56","211285344","test","2","prime_negative","80","9","72","0","101","0","0"
"031220","20:45:56","211285344","test","2","intention_check_negative","81","9","72","1","910","0","0"
"031220","20:45:56","211285344","test","2","mask_prime_negative","82","3","59","0","2198","0","0"
"031220","20:45:56","211285344","test","2","prime_positive","83","3","59","0","101","0","0"
"031220","20:45:56","211285344","test","2","intention_check_positive","84","3","59","0","2500","0","0"
"031220","20:45:56","211285344","test","2","mask_prime_positive","85","11","11","1","736","0","0"
"031220","20:45:56","211285344","test","2","prime_positive","86","11","11","0","101","0","0"
"031220","20:45:56","211285344","test","2","intention_check_positive","87","11","11","0","2500","0","0"
"031220","20:45:56","211285344","test","2","mask_prime_positive","88","10","42","1","2460","0","0"
"031220","20:45:56","211285344","test","2","prime_positive","89","10","42","0","101","0","0"
"031220","20:45:56","211285344","test","2","intention_check_positive","90","10","42","0","2500","0","0"
"031220","20:45:56","211285344","test","2","mask_prime_positive","91","7","17","1","656","0","0"
"031220","20:45:56","211285344","test","2","prime_negative","92","7","17","0","101","0","0"
"031220","20:45:56","211285344","test","2","intention_check_negative","93","7","17","1","910","0","0"
"031220","20:45:56","211285344","test","2","mask_prime_negative","94","2","26","1","2895","0","0"
"031220","20:45:56","211285344","test","2","prime_positive","95","2","26","0","101","0","0"
"031220","20:45:56","211285344","test","2","intention_check_positive","96","2","26","0","2500","0","0"
"031220","20:45:56","211285344","test","2","mask_prime_positive","97","12","28","0","1691","0","0"
"031220","20:45:56","211285344","test","2","prime_negative","98","12","28","0","101","0","0"
"031220","20:45:56","211285344","test","2","intention_check_negative","99","12","28","0","2500","0","0"
"031220","20:45:56","211285344","test","2","mask_prime_negative","100","6","15","0","1111","0","0"
"031220","20:45:56","211285344","test","2","prime_positive","101","6","15","0","101","0","0"
"031220","20:45:56","211285344","test","2","intention_check_positive","102","6","15","0","2500","0","0"
"031220","20:45:56","211285344","test","2","mask_prime_positive","103","1","2","1","735","0","0"
"031220","20:45:56","211285344","test","2","prime_positive","104","1","2","0","101","0","0"
"031220","20:45:56","211285344","test","2","intention_check_positive","105","1","2","0","2500","0","0"
"031220","20:45:56","211285344","test","2","mask_prime_positive","106","8","10","0","681","0","0"
"031220","20:45:56","211285344","test","2","prime_negative","107","8","10","0","101","0","0"
"031220","20:45:56","211285344","test","2","intention_check_negative","108","8","10","0","2500","0","0"
"031220","20:45:56","211285344","test","2","mask_prime_negative","109","4","21","1","423","0","0"
"031220","20:45:56","211285344","test","2","prime_negative","110","4","21","0","101","0","0"
"031220","20:45:56","211285344","test","2","intention_check_negative","111","4","21","0","2500","0","0"
"031220","20:45:56","211285344","test","2","mask_prime_negative","112","7","49","0","3160","0","0"
"031220","20:45:56","211285344","test","2","prime_negative","113","7","49","0","101","0","0"
"031220","20:45:56","211285344","test","2","intention_check_negative","114","7","49","0","2500","0","0"
"031220","20:45:56","211285344","test","2","mask_prime_negative","115","11","8","1","960","0","0"
"031220","20:45:56","211285344","test","2","prime_negative","116","11","8","0","101","0","0"
"031220","20:45:56","211285344","test","2","intention_check_negative","117","11","8","0","2500","0","0"
"031220","20:45:56","211285344","test","2","mask_prime_negative","118","10","12","0","1671","0","0"
"031220","20:45:56","211285344","test","2","prime_negative","119","10","12","0","101","0","0"
"031220","20:45:56","211285344","test","2","intention_check_negative","120","10","12","1","703","0","0"
"031220","20:45:56","211285344","test","2","mask_prime_negative","121","8","52","0","1244","0","0"
"031220","20:45:56","211285344","test","2","prime_negative","122","8","52","0","101","0","0"
"031220","20:45:56","211285344","test","2","intention_check_negative","123","8","52","1","901","0","0"
"031220","20:45:56","211285344","test","2","mask_prime_negative","124","2","55","0","651","0","0"
"031220","20:45:56","211285344","test","2","prime_negative","125","2","55","0","101","0","0"
"031220","20:45:56","211285344","test","2","intention_check_negative","126","2","55","1","442","0","0"
"031220","20:45:56","211285344","test","2","mask_prime_negative","127","3","43","0","832","0","0"
"031220","20:45:56","211285344","test","2","prime_negative","128","3","43","0","101","0","0"
"031220","20:45:56","211285344","test","2","intention_check_negative","129","3","43","0","2500","0","0"
"031220","20:45:56","211285344","test","2","mask_prime_negative","130","12","1","1","738","0","0"
"031220","20:45:56","211285344","test","2","prime_positive","131","12","1","0","101","0","0"
"031220","20:45:56","211285344","test","2","intention_check_positive","132","12","1","0","2500","0","0"
"031220","20:45:56","211285344","test","2","mask_prime_positive","133","3","50","1","934","0","0"
"031220","20:45:56","211285344","test","2","prime_positive","134","3","50","0","101","0","0"
"031220","20:45:56","211285344","test","2","intention_check_positive","135","3","50","0","2500","0","0"
"031220","20:45:56","211285344","test","2","mask_prime_positive","136","10","54","1","904","0","0"
"031220","20:45:56","211285344","test","2","prime_positive","137","10","54","0","101","0","0"
"031220","20:45:56","211285344","test","2","intention_check_positive","138","10","54","0","2500","0","0"
"031220","20:45:56","211285344","test","2","mask_prime_positive","139","4","45","0","590","0","0"
"031220","20:45:56","211285344","test","2","prime_positive","140","4","45","0","101","0","0"
"031220","20:45:56","211285344","test","2","intention_check_positive","141","4","45","0","2500","0","0"
"031220","20:45:56","211285344","test","2","mask_prime_positive","142","6","53","0","291","0","0"
"031220","20:45:56","211285344","test","2","prime_negative","143","6","53","0","101","0","0"
"031220","20:45:56","211285344","test","2","intention_check_negative","144","6","53","1","735","0","0"
"031220","20:45:56","211285344","test","2","mask_prime_negative","145","5","63","1","2544","0","0"
"031220","20:45:56","211285344","test","2","prime_positive","146","5","63","0","101","0","0"
"031220","20:45:56","211285344","test","2","intention_check_positive","147","5","63","0","2500","0","0"
"031220","20:45:56","211285344","test","2","mask_prime_positive","148","12","31","1","1546","0","0"
"031220","20:45:56","211285344","test","2","prime_positive","149","12","31","0","101","0","0"
"031220","20:45:56","211285344","test","2","intention_check_positive","150","12","31","0","2500","0","0"
"031220","20:45:56","211285344","test","2","mask_prime_positive","151","2","13","0","865","0","0"
"031220","20:45:56","211285344","test","2","prime_negative","152","2","13","0","101","0","0"
"031220","20:45:56","211285344","test","2","intention_check_negative","153","2","13","0","2500","0","0"
"031220","20:45:56","211285344","test","2","mask_prime_negative","154","11","39","1","1159","0","0"
"031220","20:45:56","211285344","test","2","prime_negative","155","11","39","0","101","0","0"
"031220","20:45:56","211285344","test","2","intention_check_negative","156","11","39","0","2500","0","0"
"031220","20:45:56","211285344","test","2","mask_prime_negative","157","7","9","1","915","0","0"
"031220","20:45:56","211285344","test","2","prime_negative","158","7","9","0","101","0","0"
"031220","20:45:56","211285344","test","2","intention_check_negative","159","7","9","0","2500","0","0"
"031220","20:45:56","211285344","test","2","mask_prime_negative","160","6","56","0","783","0","0"
"031220","20:45:56","211285344","test","2","prime_positive","161","6","56","0","101","0","0"
"031220","20:45:56","211285344","test","2","intention_check_positive","162","6","56","0","2500","0","0"
"031220","20:45:56","211285344","test","2","mask_prime_positive","163","7","36","1","589","0","0"
"031220","20:45:56","211285344","test","2","prime_positive","164","7","36","0","101","0","0"
"031220","20:45:56","211285344","test","2","intention_check_positive","165","7","36","0","2500","0","0"
"031220","20:45:56","211285344","test","2","mask_prime_positive","166","9","30","1","653","0","0"
"031220","20:45:56","211285344","test","2","prime_positive","167","9","30","0","101","0","0"
"031220","20:45:56","211285344","test","2","intention_check_positive","168","9","30","0","2500","0","0"
"031220","20:45:56","211285344","test","2","mask_prime_positive","169","5","44","1","490","0","0"
"031220","20:45:56","211285344","test","2","prime_positive","170","5","44","0","101","0","0"
"031220","20:45:56","211285344","test","2","intention_check_positive","171","5","44","0","2500","0","0"
"031220","20:45:56","211285344","test","2","mask_prime_positive","172","11","51","1","963","0","0"
"031220","20:45:56","211285344","test","2","prime_positive","173","11","51","0","101","0","0"
"031220","20:45:56","211285344","test","2","intention_check_positive","174","11","51","0","2500","0","0"
"031220","20:45:56","211285344","test","2","mask_prime_positive","175","7","37","0","606","0","0"
"031220","20:45:56","211285344","test","2","prime_positive","176","7","37","0","101","0","0"
"031220","20:45:56","211285344","test","2","intention_check_positive","177","7","37","0","2500","0","0"
"031220","20:45:56","211285344","test","2","mask_prime_positive","178","5","71","1","625","0","0"
"031220","20:45:56","211285344","test","2","prime_negative","179","5","71","0","101","0","0"
"031220","20:45:56","211285344","test","2","intention_check_negative","180","5","71","0","2500","0","0"
"031220","20:45:56","211285344","test","2","mask_prime_negative","181","9","35","0","2099","0","0"
"031220","20:45:56","211285344","test","2","prime_positive","182","9","35","0","101","0","0"
"031220","20:45:56","211285344","test","2","intention_check_positive","183","9","35","0","2500","0","0"
"031220","20:45:56","211285344","test","2","mask_prime_positive","184","8","61","1","1128","0","0"
"031220","20:45:56","211285344","test","2","prime_negative","185","8","61","0","101","0","0"
"031220","20:45:56","211285344","test","2","intention_check_negative","186","8","61","0","2500","0","0"
"031220","20:45:56","211285344","test","2","mask_prime_negative","187","10","14","0","727","0","0"
"031220","20:45:56","211285344","test","2","prime_negative","188","10","14","0","101","0","0"
"031220","20:45:56","211285344","test","2","intention_check_negative","189","10","14","0","2500","0","0"
"031220","20:45:56","211285344","test","2","mask_prime_negative","190","4","55","0","994","0","0"
"031220","20:45:56","211285344","test","2","prime_negative","191","4","55","0","101","0","0"
"031220","20:45:56","211285344","test","2","intention_check_negative","192","4","55","1","553","0","0"
"031220","20:45:56","211285344","test","2","mask_prime_negative","193","8","19","1","675","0","0"
"031220","20:45:56","211285344","test","2","prime_negative","194","8","19","0","101","0","0"
"031220","20:45:56","211285344","test","2","intention_check_negative","195","8","19","1","481","0","0"
"031220","20:45:56","211285344","test","2","mask_prime_negative","196","1","59","0","1058","0","0"
"031220","20:45:56","211285344","test","2","prime_negative","197","1","59","0","101","0","0"
"031220","20:45:56","211285344","test","2","intention_check_negative","198","1","59","0","2500","0","0"
"031220","20:45:56","211285344","test","2","mask_prime_negative","199","9","48","0","621","0","0"
"031220","20:45:56","211285344","test","2","prime_negative","200","9","48","0","101","0","0"
"031220","20:45:56","211285344","test","2","intention_check_negative","201","9","48","0","2500","0","0"
"031220","20:45:56","211285344","test","2","mask_prime_negative","202","6","65","0","592","0","0"
"031220","20:45:56","211285344","test","2","prime_positive","203","6","65","0","101","0","0"
"031220","20:45:56","211285344","test","2","intention_check_positive","204","6","65","0","2500","0","0"
"031220","20:45:56","211285344","test","2","mask_prime_positive","205","2","10","0","750","0","0"
"031220","20:45:56","211285344","test","2","prime_negative","206","2","10","0","101","0","0"
"031220","20:45:56","211285344","test","2","intention_check_negative","207","2","10","0","2500","0","0"
"031220","20:45:56","211285344","test","2","mask_prime_negative","208","12","1","1","788","0","0"
"031220","20:45:56","211285344","test","2","prime_negative","209","12","1","0","101","0","0"
"031220","20:45:56","211285344","test","2","intention_check_negative","210","12","1","1","1140","0","0"
"031220","20:45:56","211285344","test","2","mask_prime_negative","211","5","44","0","683","0","0"
"031220","20:45:56","211285344","test","2","prime_positive","212","5","44","0","101","0","0"
"031220","20:45:56","211285344","test","2","intention_check_positive","213","5","44","0","2500","0","0"
"031220","20:45:56","211285344","test","2","mask_prime_positive","214","1","43","1","605","0","0"
"031220","20:45:56","211285344","test","2","prime_negative","215","1","43","0","101","0","0"
"031220","20:45:56","211285344","test","2","intention_check_negative","216","1","43","1","788","0","0"
"031220","20:45:56","211285344","test","2","mask_prime_negative","217","2","37","0","1413","0","0"
"031220","06:01:13","141306629","practice","1","prime_positive","3","0","0","0","100","0","0"
"031220","06:01:13","141306629","practice","1","intention_check_positive","4","0","0","1","2215","0","0"
"031220","06:01:13","141306629","practice","1","mask_prime_positive","5","4","19","1","3090","0","0"
"031220","06:01:13","141306629","practice","1","prime_negative","6","4","19","0","100","0","0"
"031220","06:01:13","141306629","practice","1","intention_check_negative","7","4","19","1","1114","0","0"
"031220","06:01:13","141306629","practice","1","mask_prime_negative","8","1","70","0","1421","0","0"
"031220","06:01:13","141306629","practice","1","prime_negative","9","1","70","0","100","0","0"
"031220","06:01:13","141306629","practice","1","intention_check_negative","10","1","70","0","2500","0","0"
"031220","06:01:13","141306629","practice","1","mask_prime_negative","11","7","16","1","1407","0","0"
"031220","06:01:13","141306629","practice","1","prime_positive","12","7","16","0","100","0","0"
"031220","06:01:13","141306629","practice","1","intention_check_positive","13","7","16","0","2500","0","0"
"031220","06:01:13","141306629","practice","1","mask_prime_positive","14","7","33","1","1074","0","0"
"031220","06:01:13","141306629","practice","1","prime_negative","15","7","33","0","100","0","0"
"031220","06:01:13","141306629","practice","1","intention_check_negative","16","7","33","0","2500","0","0"
"031220","06:01:13","141306629","practice","1","mask_prime_negative","17","12","17","1","899","0","0"
"031220","06:01:13","141306629","practice","1","prime_negative","18","12","17","0","100","0","0"
"031220","06:01:13","141306629","practice","1","intention_check_negative","19","12","17","1","777","0","0"
"031220","06:01:13","141306629","practice","1","mask_prime_negative","20","2","52","0","867","0","0"
"031220","06:01:13","141306629","practice","1","prime_positive","21","2","52","0","100","0","0"
"031220","06:01:13","141306629","practice","1","intention_check_positive","22","2","52","0","2500","0","0"
"031220","06:01:13","141306629","practice","1","mask_prime_positive","23","9","10","1","620","0","0"
"031220","06:01:13","141306629","practice","1","prime_positive","24","9","10","0","100","0","0"
"031220","06:01:13","141306629","practice","1","intention_check_positive","25","9","10","0","2500","0","0"
"031220","06:01:13","141306629","practice","1","mask_prime_positive","26","12","9","1","806","0","0"
"031220","06:01:13","141306629","practice","1","prime_negative","27","12","9","0","100","0","0"
"031220","06:01:13","141306629","practice","1","intention_check_negative","28","12","9","1","2254","0","0"
"031220","06:01:13","141306629","practice","1","mask_prime_negative","29","8","22","0","1055","0","0"
"031220","06:01:13","141306629","practice","1","prime_positive","30","8","22","0","100","0","0"
"031220","06:01:13","141306629","practice","1","intention_check_positive","31","8","22","0","2500","0","0"
"031220","06:01:13","141306629","practice","1","mask_prime_positive","32","1","23","0","1465","0","0"
"031220","06:01:13","141306629","test","2","prime_positive","2","1","23","0","100","0","0"
"031220","06:01:13","141306629","test","2","intention_check_positive","3","1","23","0","2500","0","0"
"031220","06:01:13","141306629","test","2","mask_prime_positive","4","10","25","1","870","0","0"
"031220","06:01:13","141306629","test","2","prime_positive","5","10","25","0","100","0","0"
"031220","06:01:13","141306629","test","2","intention_check_positive","6","10","25","0","2500","0","0"
"031220","06:01:13","141306629","test","2","mask_prime_positive","7","8","44","0","953","0","0"
"031220","06:01:13","141306629","test","2","prime_positive","8","8","44","0","100","0","0"
"031220","06:01:13","141306629","test","2","intention_check_positive","9","8","44","1","1617","0","0"
"031220","06:01:13","141306629","test","2","mask_prime_positive","10","3","40","1","851","0","0"
"031220","06:01:13","141306629","test","2","prime_negative","11","3","40","0","100","0","0"
"031220","06:01:13","141306629","test","2","intention_check_negative","12","3","40","0","2500","0","0"
"031220","06:01:13","141306629","test","2","mask_prime_negative","13","5","48","1","530","0","0"
"031220","06:01:13","141306629","test","2","prime_positive","14","5","48","0","100","0","0"
"031220","06:01:13","141306629","test","2","intention_check_positive","15","5","48","0","2500","0","0"
"031220","06:01:13","141306629","test","2","mask_prime_positive","16","5","69","0","1002","0","0"
"031220","06:01:13","141306629","test","2","prime_positive","17","5","69","0","100","0","0"
"031220","06:01:13","141306629","test","2","intention_check_positive","18","5","69","0","2500","0","0"
"031220","06:01:13","141306629","test","2","mask_prime_positive","19","11","62","1","931","0","0"
"031220","06:01:13","141306629","test","2","prime_positive","20","11","62","0","100","0","0"
"031220","06:01:13","141306629","test","2","intention_check_positive","21","11","62","1","695","0","0"
"031220","06:01:13","141306629","test","2","mask_prime_positive","22","6","27","0","1703","0","0"
"031220","06:01:13","141306629","test","2","prime_positive","23","6","27","0","100","0","0"
"031220","06:01:13","141306629","test","2","intention_check_positive","24","6","27","0","2500","0","0"
"031220","06:01:13","141306629","test","2","mask_prime_positive","25","2","38","1","622","0","0"
"031220","06:01:13","141306629","test","2","prime_positive","26","2","38","0","100","0","0"
"031220","06:01:13","141306629","test","2","intention_check_positive","27","2","38","1","1797","0","0"
"031220","06:01:13","141306629","test","2","mask_prime_positive","28","7","30","0","970","0","0"
"031220","06:01:13","141306629","test","2","prime_positive","29","7","30","0","100","0","0"
"031220","06:01:13","141306629","test","2","intention_check_positive","30","7","30","0","2500","0","0"
"031220","06:01:13","141306629","test","2","mask_prime_positive","31","2","24","1","835","0","0"
"031220","06:01:13","141306629","test","2","prime_negative","32","2","24","0","100","0","0"
"031220","06:01:13","141306629","test","2","intention_check_negative","33","2","24","0","2500","0","0"
"031220","06:01:13","141306629","test","2","mask_prime_negative","34","9","1","0","1048","0","0"
"031220","06:01:13","141306629","test","2","prime_positive","35","9","1","0","100","0","0"
"031220","06:01:13","141306629","test","2","intention_check_positive","36","9","1","0","2500","0","0"
"031220","06:01:13","141306629","test","2","mask_prime_positive","37","10","42","1","734","0","0"
"031220","06:01:13","141306629","test","2","prime_negative","38","10","42","0","100","0","0"
"031220","06:01:13","141306629","test","2","intention_check_negative","39","10","42","0","2500","0","0"
"031220","06:01:13","141306629","test","2","mask_prime_negative","40","10","5","0","957","0","0"
"031220","06:01:13","141306629","test","2","prime_positive","41","10","5","0","100","0","0"
"031220","06:01:13","141306629","test","2","intention_check_positive","42","10","5","1","775","0","0"
"031220","06:01:13","141306629","test","2","mask_prime_positive","43","4","67","0","671","0","0"
"031220","06:01:13","141306629","test","2","prime_negative","44","4","67","0","100","0","0"
"031220","06:01:13","141306629","test","2","intention_check_negative","45","4","67","0","2500","0","0"
"031220","06:01:13","141306629","test","2","mask_prime_negative","46","11","20","1","724","0","0"
"031220","06:01:13","141306629","test","2","prime_negative","47","11","20","0","100","0","0"
"031220","06:01:13","141306629","test","2","intention_check_negative","48","11","20","1","1089","0","0"
"031220","06:01:13","141306629","test","2","mask_prime_negative","49","6","49","1","708","0","0"
"031220","06:01:13","141306629","test","2","prime_negative","50","6","49","0","100","0","0"
"031220","06:01:13","141306629","test","2","intention_check_negative","51","6","49","0","2500","0","0"
"031220","06:01:13","141306629","test","2","mask_prime_negative","52","4","61","1","1494","0","0"
"031220","06:01:13","141306629","test","2","prime_positive","53","4","61","0","100","0","0"
"031220","06:01:13","141306629","test","2","intention_check_positive","54","4","61","1","826","0","0"
"031220","06:01:13","141306629","test","2","mask_prime_positive","55","6","71","0","1043","0","0"
"031220","06:01:13","141306629","test","2","prime_negative","56","6","71","0","100","0","0"
"031220","06:01:13","141306629","test","2","intention_check_negative","57","6","71","1","831","0","0"
"031220","06:01:13","141306629","test","2","mask_prime_negative","58","3","34","1","677","0","0"
"031220","06:01:13","141306629","test","2","prime_negative","59","3","34","0","100","0","0"
"031220","06:01:13","141306629","test","2","intention_check_negative","60","3","34","0","2500","0","0"
"031220","06:01:13","141306629","test","2","mask_prime_negative","61","4","60","0","648","0","0"
"031220","06:01:13","141306629","test","2","prime_positive","62","4","60","0","100","0","0"
"031220","06:01:13","141306629","test","2","intention_check_positive","63","4","60","0","2500","0","0"
"031220","06:01:13","141306629","test","2","mask_prime_positive","64","12","7","1","1110","0","0"
"031220","06:01:13","141306629","test","2","prime_negative","65","12","7","0","100","0","0"
"031220","06:01:13","141306629","test","2","intention_check_negative","66","12","7","0","2500","0","0"
"031220","06:01:13","141306629","test","2","mask_prime_negative","67","10","21","0","1053","0","0"
"031220","06:01:13","141306629","test","2","prime_negative","68","10","21","0","100","0","0"
"031220","06:01:13","141306629","test","2","intention_check_negative","69","10","21","1","979","0","0"
"031220","06:01:13","141306629","test","2","mask_prime_negative","70","8","4","1","1736","0","0"
"031220","06:01:13","141306629","test","2","prime_negative","71","8","4","0","100","0","0"
"031220","06:01:13","141306629","test","2","intention_check_negative","72","8","4","0","2500","0","0"
"031220","06:01:13","141306629","test","2","mask_prime_negative","73","5","14","1","556","0","0"
"031220","06:01:13","141306629","test","2","prime_negative","74","5","14","0","100","0","0"
"031220","06:01:13","141306629","test","2","intention_check_negative","75","5","14","1","1076","0","0"
"031220","06:01:13","141306629","test","2","mask_prime_negative","76","9","26","1","1226","0","0"
"031220","06:01:13","141306629","test","2","prime_negative","77","9","26","0","100","0","0"
"031220","06:01:13","141306629","test","2","intention_check_negative","78","9","26","0","2500","0","0"
"031220","06:01:13","141306629","test","2","mask_prime_negative","79","12","32","0","1361","0","0"
"031220","06:01:13","141306629","test","2","prime_negative","80","12","32","0","100","0","0"
"031220","06:01:13","141306629","test","2","intention_check_negative","81","12","32","0","2500","0","0"
"031220","06:01:13","141306629","test","2","mask_prime_negative","82","7","3","1","937","0","0"
"031220","06:01:13","141306629","test","2","prime_positive","83","7","3","0","100","0","0"
"031220","06:01:13","141306629","test","2","intention_check_positive","84","7","3","0","2500","0","0"
"031220","06:01:13","141306629","test","2","mask_prime_positive","85","11","64","0","824","0","0"
"031220","06:01:13","141306629","test","2","prime_positive","86","11","64","0","100","0","0"
"031220","06:01:13","141306629","test","2","intention_check_positive","87","11","64","0","2500","0","0"
"031220","06:01:13","141306629","test","2","mask_prime_positive","88","8","35","1","826","0","0"
"031220","06:01:13","141306629","test","2","prime_positive","89","8","35","0","100","0","0"
"031220","06:01:13","141306629","test","2","intention_check_positive","90","8","35","0","2500","0","0"
"031220","06:01:13","141306629","test","2","mask_prime_positive","91","5","12","0","358","0","0"
"031220","06:01:13","141306629","test","2","prime_negative","92","5","12","0","100","0","0"
"031220","06:01:13","141306629","test","2","intention_check_negative","93","5","12","1","585","0","0"
"031220","06:01:13","141306629","test","2","mask_prime_negative","94","3","31","1","1019","0","0"
"031220","06:01:13","141306629","test","2","prime_negative","95","3","31","0","100","0","0"
"031220","06:01:13","141306629","test","2","intention_check_negative","96","3","31","1","988","0","0"
"031220","06:01:13","141306629","test","2","mask_prime_negative","97","11","53","1","1866","0","0"
"031220","06:01:13","141306629","test","2","prime_negative","98","11","53","0","100","0","0"
"031220","06:01:13","141306629","test","2","intention_check_negative","99","11","53","1","650","0","0"
"031220","06:01:13","141306629","test","2","mask_prime_negative","100","1","41","0","781","0","0"
"031220","06:01:13","141306629","test","2","prime_positive","101","1","41","0","100","0","0"
"031220","06:01:13","141306629","test","2","intention_check_positive","102","1","41","0","2500","0","0"
"031220","06:01:13","141306629","test","2","mask_prime_positive","103","9","57","1","1221","0","0"
"031220","06:01:13","141306629","test","2","prime_positive","104","9","57","0","100","0","0"
"031220","06:01:13","141306629","test","2","intention_check_positive","105","9","57","0","2500","0","0"
"031220","06:01:13","141306629","test","2","mask_prime_positive","106","1","51","1","802","0","0"
"031220","06:01:13","141306629","test","2","prime_negative","107","1","51","0","100","0","0"
"031220","06:01:13","141306629","test","2","intention_check_negative","108","1","51","1","559","0","0"
"031220","06:01:13","141306629","test","2","mask_prime_negative","109","2","43","1","1175","0","0"
"031220","06:01:13","141306629","test","2","prime_positive","110","2","43","0","100","0","0"
"031220","06:01:13","141306629","test","2","intention_check_positive","111","2","43","0","2500","0","0"
"031220","06:01:13","141306629","test","2","mask_prime_positive","112","3","65","1","709","0","0"
"031220","06:01:13","141306629","test","2","prime_negative","113","3","65","0","100","0","0"
"031220","06:01:13","141306629","test","2","intention_check_negative","114","3","65","1","1069","0","0"
"031220","06:01:13","141306629","test","2","mask_prime_negative","115","6","6","1","806","0","0"
"031220","06:01:13","141306629","test","2","prime_negative","116","6","6","0","100","0","0"
"031220","06:01:13","141306629","test","2","intention_check_negative","117","6","6","1","584","0","0"
"031220","06:01:13","141306629","test","2","mask_prime_negative","118","2","15","0","972","0","0"
"031220","06:01:13","141306629","test","2","prime_positive","119","2","15","0","100","0","0"
"031220","06:01:13","141306629","test","2","intention_check_positive","120","2","15","0","2500","0","0"
"031220","06:01:13","141306629","test","2","mask_prime_positive","121","3","59","0","1017","0","0"
"031220","06:01:13","141306629","test","2","prime_positive","122","3","59","0","100","0","0"
"031220","06:01:13","141306629","test","2","intention_check_positive","123","3","59","1","881","0","0"
"031220","06:01:13","141306629","test","2","mask_prime_positive","124","8","28","0","980","0","0"
"031220","06:01:13","141306629","test","2","prime_positive","125","8","28","0","100","0","0"
"031220","06:01:13","141306629","test","2","intention_check_positive","126","8","28","0","2500","0","0"
"031220","06:01:13","141306629","test","2","mask_prime_positive","127","7","11","1","1074","0","0"
"031220","06:01:13","141306629","test","2","prime_negative","128","7","11","0","100","0","0"
"031220","06:01:13","141306629","test","2","intention_check_negative","129","7","11","0","2500","0","0"
"031220","06:01:13","141306629","test","2","mask_prime_negative","130","6","18","0","1188","0","0"
"031220","06:01:13","141306629","test","2","prime_negative","131","6","18","0","100","0","0"
"031220","06:01:13","141306629","test","2","intention_check_negative","132","6","18","0","2500","0","0"
"031220","06:01:13","141306629","test","2","mask_prime_negative","133","9","54","1","1660","0","0"
"031220","06:01:13","141306629","test","2","prime_positive","134","9","54","0","100","0","0"
"031220","06:01:13","141306629","test","2","intention_check_positive","135","9","54","1","906","0","0"
"031220","06:01:13","141306629","test","2","mask_prime_positive","136","5","45","1","667","0","0"
"031220","06:01:13","141306629","test","2","prime_negative","137","5","45","0","100","0","0"
"031220","06:01:13","141306629","test","2","intention_check_negative","138","5","45","0","2500","0","0"
"031220","06:01:13","141306629","test","2","mask_prime_negative","139","4","46","0","1457","0","0"
"031220","06:01:13","141306629","test","2","prime_positive","140","4","46","0","100","0","0"
"031220","06:01:13","141306629","test","2","intention_check_positive","141","4","46","1","912","0","0"
"031220","06:01:13","141306629","test","2","mask_prime_positive","142","6","47","0","1088","0","0"
"031220","06:01:13","141306629","test","2","prime_negative","143","6","47","0","100","0","0"
"031220","06:01:13","141306629","test","2","intention_check_negative","144","6","47","0","2500","0","0"
"031220","06:01:13","141306629","test","2","mask_prime_negative","145","11","50","1","1147","0","0"
"031220","06:01:13","141306629","test","2","prime_negative","146","11","50","0","100","0","0"
"031220","06:01:13","141306629","test","2","intention_check_negative","147","11","50","0","2500","0","0"
"031220","06:01:13","141306629","test","2","mask_prime_negative","148","5","72","0","825","0","0"
"031220","06:01:13","141306629","test","2","prime_negative","149","5","72","0","100","0","0"
"031220","06:01:13","141306629","test","2","intention_check_negative","150","5","72","0","2500","0","0"
"031220","06:01:13","141306629","test","2","mask_prime_negative","151","1","39","1","1396","0","0"
"031220","06:01:13","141306629","test","2","prime_negative","152","1","39","0","100","0","0"
"031220","06:01:13","141306629","test","2","intention_check_negative","153","1","39","0","2500","0","0"
"031220","06:01:13","141306629","test","2","mask_prime_negative","154","7","63","0","793","0","0"
"031220","06:01:13","141306629","test","2","prime_negative","155","7","63","0","100","0","0"
"031220","06:01:13","141306629","test","2","intention_check_negative","156","7","63","0","2500","0","0"
"031220","06:01:13","141306629","test","2","mask_prime_negative","157","10","29","0","1095","0","0"
"031220","06:01:13","141306629","test","2","prime_positive","158","10","29","0","100","0","0"
"031220","06:01:13","141306629","test","2","intention_check_positive","159","10","29","0","2500","0","0"
"031220","06:01:13","141306629","test","2","mask_prime_positive","160","9","58","0","822","0","0"
"031220","06:01:13","141306629","test","2","prime_negative","161","9","58","0","100","0","0"
"031220","06:01:13","141306629","test","2","intention_check_negative","162","9","58","0","2500","0","0"
"031220","06:01:13","141306629","test","2","mask_prime_negative","163","8","56","1","1089","0","0"
"031220","06:01:13","141306629","test","2","prime_negative","164","8","56","0","100","0","0"
"031220","06:01:13","141306629","test","2","intention_check_negative","165","8","56","1","672","0","0"
"031220","06:01:13","141306629","test","2","mask_prime_negative","166","3","68","1","1177","0","0"
"031220","06:01:13","141306629","test","2","prime_negative","167","3","68","0","100","0","0"
"031220","06:01:13","141306629","test","2","intention_check_negative","168","3","68","1","1012","0","0"
"031220","06:01:13","141306629","test","2","mask_prime_negative","169","12","8","0","1083","0","0"
"031220","06:01:13","141306629","test","2","prime_positive","170","12","8","0","100","0","0"
"031220","06:01:13","141306629","test","2","intention_check_positive","171","12","8","0","2500","0","0"
"031220","06:01:13","141306629","test","2","mask_prime_positive","172","2","36","1","1493","0","0"
"031220","06:01:13","141306629","test","2","prime_positive","173","2","36","0","100","0","0"
"031220","06:01:13","141306629","test","2","intention_check_positive","174","2","36","0","2500","0","0"
"031220","06:01:13","141306629","test","2","mask_prime_positive","175","11","13","0","1332","0","0"
"031220","06:01:13","141306629","test","2","prime_negative","176","11","13","0","100","0","0"
"031220","06:01:13","141306629","test","2","intention_check_negative","177","11","13","1","1067","0","0"
"031220","06:01:13","141306629","test","2","mask_prime_negative","178","11","37","0","1215","0","0"
"031220","06:01:13","141306629","test","2","prime_negative","179","11","37","0","100","0","0"
"031220","06:01:13","141306629","test","2","intention_check_negative","180","11","37","1","977","0","0"
"031220","06:01:13","141306629","test","2","mask_prime_negative","181","8","66","1","847","0","0"
"031220","06:01:13","141306629","test","2","prime_negative","182","8","66","0","100","0","0"
"031220","06:01:13","141306629","test","2","intention_check_negative","183","8","66","0","2500","0","0"
"031220","06:01:13","141306629","test","2","mask_prime_negative","184","5","55","1","930","0","0"
"031220","06:01:13","141306629","test","2","prime_positive","185","5","55","0","100","0","0"
"031220","06:01:13","141306629","test","2","intention_check_positive","186","5","55","0","2500","0","0"
"031220","06:01:13","141306629","test","2","mask_prime_positive","187","12","2","1","1021","0","0"
"031220","06:01:13","141306629","test","2","prime_positive","188","12","2","0","100","0","0"
"031220","06:01:13","141306629","test","2","intention_check_positive","189","12","2","0","2500","0","0"
"031220","06:01:13","141306629","test","2","mask_prime_positive","190","10","19","0","837","0","0"
"031220","06:01:13","141306629","test","2","prime_positive","191","10","19","0","100","0","0"
"031220","06:01:13","141306629","test","2","intention_check_positive","192","10","19","1","778","0","0"
"031220","06:01:13","141306629","test","2","mask_prime_positive","193","4","58","1","1172","0","0"
"031220","06:01:13","141306629","test","2","prime_positive","194","4","58","0","100","0","0"
"031220","06:01:13","141306629","test","2","intention_check_positive","195","4","58","0","2500","0","0"
"031220","06:01:13","141306629","test","2","mask_prime_positive","196","1","37","1","948","0","0"
"031220","06:01:13","141306629","test","2","prime_negative","197","1","37","0","100","0","0"
"031220","06:01:13","141306629","test","2","intention_check_negative","198","1","37","0","2500","0","0"
"031220","06:01:13","141306629","test","2","mask_prime_negative","199","3","69","1","761","0","0"
"031220","06:01:13","141306629","test","2","prime_positive","200","3","69","0","100","0","0"
"031220","06:01:13","141306629","test","2","intention_check_positive","201","3","69","1","553","0","0"
"031220","06:01:13","141306629","test","2","mask_prime_positive","202","6","26","0","728","0","0"
"031220","06:01:13","141306629","test","2","prime_positive","203","6","26","0","100","0","0"
"031220","06:01:13","141306629","test","2","intention_check_positive","204","6","26","0","2500","0","0"
"031220","06:01:13","141306629","test","2","mask_prime_positive","205","7","66","1","1002","0","0"
"031220","06:01:13","141306629","test","2","prime_positive","206","7","66","0","100","0","0"
"031220","06:01:13","141306629","test","2","intention_check_positive","207","7","66","1","653","0","0"
"031220","06:01:13","141306629","test","2","mask_prime_positive","208","4","27","0","1005","0","0"
"031220","06:01:13","141306629","test","2","prime_positive","209","4","27","0","100","0","0"
"031220","06:01:13","141306629","test","2","intention_check_positive","210","4","27","0","2500","0","0"
"031220","06:01:13","141306629","test","2","mask_prime_positive","211","11","25","1","711","0","0"
"031220","06:01:13","141306629","test","2","prime_negative","212","11","25","0","100","0","0"
"031220","06:01:13","141306629","test","2","intention_check_negative","213","11","25","1","1865","0","0"
"031220","06:01:13","141306629","test","2","mask_prime_negative","214","9","20","1","915","0","0"
"031220","06:01:13","141306629","test","2","prime_positive","215","9","20","0","100","0","0"
"031220","06:01:13","141306629","test","2","intention_check_positive","216","9","20","0","2500","0","0"
"031220","06:01:13","141306629","test","2","mask_prime_positive","217","1","56","1","768","0","0"
"031220","11:08:25","100780069","practice","1","prime_positive","3","0","0","0","100","0","0"
"031220","11:08:25","100780069","practice","1","intention_check_positive","4","0","0","0","2500","0","0"
"031220","11:08:25","100780069","practice","1","mask_prime_positive","5","2","64","0","3323","0","0"
"031220","11:08:25","100780069","practice","1","prime_negative","6","2","64","0","100","0","0"
"031220","11:08:25","100780069","practice","1","intention_check_negative","7","2","64","0","2500","0","0"
"031220","11:08:25","100780069","practice","1","mask_prime_negative","8","2","42","0","3458","0","0"
"031220","11:08:25","100780069","practice","1","prime_negative","9","2","42","0","100","0","0"
"031220","11:08:25","100780069","practice","1","intention_check_negative","10","2","42","1","1713","0","0"
"031220","11:08:25","100780069","practice","1","mask_prime_negative","11","3","36","1","1164","0","0"
"031220","11:08:25","100780069","practice","1","prime_negative","12","3","36","0","100","0","0"
"031220","11:08:25","100780069","practice","1","intention_check_negative","13","3","36","0","2500","0","0"
"031220","11:08:25","100780069","practice","1","mask_prime_negative","14","9","38","0","2545","0","0"
"031220","11:08:25","100780069","practice","1","prime_positive","15","9","38","0","100","0","0"
"031220","11:08:25","100780069","practice","1","intention_check_positive","16","9","38","1","1330","0","0"
"031220","11:08:25","100780069","practice","1","mask_prime_positive","17","7","11","0","1092","0","0"
"031220","11:08:25","100780069","practice","1","prime_positive","18","7","11","0","100","0","0"
"031220","11:08:25","100780069","practice","1","intention_check_positive","19","7","11","0","2500","0","0"
"031220","11:08:25","100780069","practice","1","mask_prime_positive","20","3","28","0","733","0","0"
"031220","11:08:25","100780069","practice","1","prime_negative","21","3","28","0","100","0","0"
"031220","11:08:25","100780069","practice","1","intention_check_negative","22","3","28","0","2500","0","0"
"031220","11:08:25","100780069","practice","1","mask_prime_negative","23","12","34","0","763","0","0"
"031220","11:08:25","100780069","practice","1","prime_positive","24","12","34","0","100","0","0"
"031220","11:08:25","100780069","practice","1","intention_check_positive","25","12","34","1","1727","0","0"
"031220","11:08:25","100780069","practice","1","mask_prime_positive","26","1","2","1","870","0","0"
"031220","11:08:25","100780069","practice","1","prime_negative","27","1","2","0","100","0","0"
"031220","11:08:25","100780069","practice","1","intention_check_negative","28","1","2","0","2500","0","0"
"031220","11:08:25","100780069","practice","1","mask_prime_negative","29","5","58","0","703","0","0"
"031220","11:08:25","100780069","practice","1","prime_positive","30","5","58","0","100","0","0"
"031220","11:08:25","100780069","practice","1","intention_check_positive","31","5","58","0","2500","0","0"
"031220","11:08:25","100780069","practice","1","mask_prime_positive","32","9","44","0","432","0","0"
"031220","11:08:25","100780069","test","2","prime_positive","2","9","44","0","100","0","0"
"031220","11:08:25","100780069","test","2","intention_check_positive","3","9","44","1","917","0","0"
"031220","11:08:25","100780069","test","2","mask_prime_positive","4","10","7","0","711","0","0"
"031220","11:08:25","100780069","test","2","prime_negative","5","10","7","0","100","0","0"
"031220","11:08:25","100780069","test","2","intention_check_negative","6","10","7","0","2500","0","0"
"031220","11:08:25","100780069","test","2","mask_prime_negative","7","7","30","0","753","0","0"
"031220","11:08:25","100780069","test","2","prime_positive","8","7","30","0","100","0","0"
"031220","11:08:25","100780069","test","2","intention_check_positive","9","7","30","0","2500","0","0"
"031220","11:08:25","100780069","test","2","mask_prime_positive","10","8","17","1","384","0","0"
"031220","11:08:25","100780069","test","2","prime_positive","11","8","17","0","100","0","0"
"031220","11:08:25","100780069","test","2","intention_check_positive","12","8","17","1","811","0","0"
"031220","11:08:25","100780069","test","2","mask_prime_positive","13","5","5","0","986","0","0"
"031220","11:08:25","100780069","test","2","prime_negative","14","5","5","0","100","0","0"
"031220","11:08:25","100780069","test","2","intention_check_negative","15","5","5","0","2500","0","0"
"031220","11:08:25","100780069","test","2","mask_prime_negative","16","10","67","0","969","0","0"
"031220","11:08:25","100780069","test","2","prime_negative","17","10","67","0","100","0","0"
"031220","11:08:25","100780069","test","2","intention_check_negative","18","10","67","0","2500","0","0"
"031220","11:08:25","100780069","test","2","mask_prime_negative","19","11","31","0","912","0","0"
"031220","11:08:25","100780069","test","2","prime_negative","20","11","31","0","100","0","0"
"031220","11:08:25","100780069","test","2","intention_check_negative","21","11","31","1","1358","0","0"
"031220","11:08:25","100780069","test","2","mask_prime_negative","22","6","68","1","777","0","0"
"031220","11:08:25","100780069","test","2","prime_positive","23","6","68","0","100","0","0"
"031220","11:08:25","100780069","test","2","intention_check_positive","24","6","68","1","1382","0","0"
"031220","11:08:25","100780069","test","2","mask_prime_positive","25","12","1","0","809","0","0"
"031220","11:08:25","100780069","test","2","prime_negative","26","12","1","0","100","0","0"
"031220","11:08:25","100780069","test","2","intention_check_negative","27","12","1","0","2500","0","0"
"031220","11:08:25","100780069","test","2","mask_prime_negative","28","8","35","0","390","0","0"
"031220","11:08:25","100780069","test","2","prime_negative","29","8","35","0","100","0","0"
"031220","11:08:25","100780069","test","2","intention_check_negative","30","8","35","0","2500","0","0"
"031220","11:08:25","100780069","test","2","mask_prime_negative","31","1","22","1","1188","0","0"
"031220","11:08:25","100780069","test","2","prime_negative","32","1","22","0","100","0","0"
"031220","11:08:25","100780069","test","2","intention_check_negative","33","1","22","0","2500","0","0"
"031220","11:08:25","100780069","test","2","mask_prime_negative","34","4","51","0","582","0","0"
"031220","11:08:25","100780069","test","2","prime_positive","35","4","51","0","100","0","0"
"031220","11:08:25","100780069","test","2","intention_check_positive","36","4","51","1","766","0","0"
"031220","11:08:25","100780069","test","2","mask_prime_positive","37","6","41","1","902","0","0"
"031220","11:08:25","100780069","test","2","prime_positive","38","6","41","0","100","0","0"
"031220","11:08:25","100780069","test","2","intention_check_positive","39","6","41","1","1469","0","0"
"031220","11:08:25","100780069","test","2","mask_prime_positive","40","4","69","1","1966","0","0"
"031220","11:08:25","100780069","test","2","prime_negative","41","4","69","0","100","0","0"
"031220","11:08:25","100780069","test","2","intention_check_negative","42","4","69","0","2500","0","0"
"031220","11:08:25","100780069","test","2","mask_prime_negative","43","11","23","1","682","0","0"
"031220","11:08:25","100780069","test","2","prime_negative","44","11","23","0","100","0","0"
"031220","11:08:25","100780069","test","2","intention_check_negative","45","11","23","0","2500","0","0"
"031220","11:08:25","100780069","test","2","mask_prime_negative","46","9","21","0","1030","0","0"
"031220","11:08:25","100780069","test","2","prime_negative","47","9","21","0","100","0","0"
"031220","11:08:25","100780069","test","2","intention_check_negative","48","9","21","0","2500","0","0"
"031220","11:08:25","100780069","test","2","mask_prime_negative","49","10","71","0","414","0","0"
"031220","11:08:25","100780069","test","2","prime_negative","50","10","71","0","100","0","0"
"031220","11:08:25","100780069","test","2","intention_check_negative","51","10","71","1","1132","0","0"
"031220","11:08:25","100780069","test","2","mask_prime_negative","52","6","65","0","1019","0","0"
"031220","11:08:25","100780069","test","2","prime_positive","53","6","65","0","100","0","0"
"031220","11:08:25","100780069","test","2","intention_check_positive","54","6","65","1","1480","0","0"
"031220","11:08:25","100780069","test","2","mask_prime_positive","55","11","56","1","1894","0","0"
"031220","11:08:25","100780069","test","2","prime_positive","56","11","56","0","100","0","0"
"031220","11:08:25","100780069","test","2","intention_check_positive","57","11","56","0","2500","0","0"
"031220","11:08:25","100780069","test","2","mask_prime_positive","58","4","59","0","613","0","0"
"031220","11:08:25","100780069","test","2","prime_negative","59","4","59","0","100","0","0"
"031220","11:08:25","100780069","test","2","intention_check_negative","60","4","59","0","2500","0","0"
"031220","11:08:25","100780069","test","2","mask_prime_negative","61","4","9","1","601","0","0"
"031220","11:08:25","100780069","test","2","prime_negative","62","4","9","0","100","0","0"
"031220","11:08:25","100780069","test","2","intention_check_negative","63","4","9","0","2500","0","0"
"031220","11:08:25","100780069","test","2","mask_prime_negative","64","5","57","1","793","0","0"
"031220","11:08:25","100780069","test","2","prime_negative","65","5","57","0","100","0","0"
"031220","11:08:25","100780069","test","2","intention_check_negative","66","5","57","0","2500","0","0"
"031220","11:08:25","100780069","test","2","mask_prime_negative","67","8","32","0","763","0","0"
"031220","11:08:25","100780069","test","2","prime_positive","68","8","32","0","100","0","0"
"031220","11:08:25","100780069","test","2","intention_check_positive","69","8","32","0","2500","0","0"
"031220","11:08:25","100780069","test","2","mask_prime_positive","70","5","12","1","4411","0","0"
"031220","11:08:25","100780069","test","2","prime_positive","71","5","12","0","100","0","0"
"031220","11:08:25","100780069","test","2","intention_check_positive","72","5","12","1","926","0","0"
"031220","11:08:25","100780069","test","2","mask_prime_positive","73","7","48","1","927","0","0"
"031220","11:08:25","100780069","test","2","prime_negative","74","7","48","0","100","0","0"
"031220","11:08:25","100780069","test","2","intention_check_negative","75","7","48","0","2500","0","0"
"031220","11:08:25","100780069","test","2","mask_prime_negative","76","3","14","0","1002","0","0"
"031220","11:08:25","100780069","test","2","prime_positive","77","3","14","0","100","0","0"
"031220","11:08:25","100780069","test","2","intention_check_positive","78","3","14","0","2500","0","0"
"031220","11:08:25","100780069","test","2","mask_prime_positive","79","10","8","1","1248","0","0"
"031220","11:08:25","100780069","test","2","prime_positive","80","10","8","0","100","0","0"
"031220","11:08:25","100780069","test","2","intention_check_positive","81","10","8","1","941","0","0"
"031220","11:08:25","100780069","test","2","mask_prime_positive","82","6","66","1","1205","0","0"
"031220","11:08:25","100780069","test","2","prime_positive","83","6","66","0","100","0","0"
"031220","11:08:25","100780069","test","2","intention_check_positive","84","6","66","1","613","0","0"
"031220","11:08:25","100780069","test","2","mask_prime_positive","85","2","29","1","854","0","0"
"031220","11:08:25","100780069","test","2","prime_positive","86","2","29","0","100","0","0"
"031220","11:08:25","100780069","test","2","intention_check_positive","87","2","29","1","707","0","0"
"031220","11:08:25","100780069","test","2","mask_prime_positive","88","11","70","1","945","0","0"
"031220","11:08:25","100780069","test","2","prime_negative","89","11","70","0","100","0","0"
"031220","11:08:25","100780069","test","2","intention_check_negative","90","11","70","1","1189","0","0"
"031220","11:08:25","100780069","test","2","mask_prime_negative","91","7","39","1","1116","0","0"
"031220","11:08:25","100780069","test","2","prime_negative","92","7","39","0","100","0","0"
"031220","11:08:25","100780069","test","2","intention_check_negative","93","7","39","0","2500","0","0"
"031220","11:08:25","100780069","test","2","mask_prime_negative","94","1","45","0","1071","0","0"
"031220","11:08:25","100780069","test","2","prime_negative","95","1","45","0","100","0","0"
"031220","11:08:25","100780069","test","2","intention_check_negative","96","1","45","0","2500","0","0"
"031220","11:08:25","100780069","test","2","mask_prime_negative","97","12","20","0","678","0","0"
"031220","11:08:25","100780069","test","2","prime_positive","98","12","20","0","100","0","0"
"031220","11:08:25","100780069","test","2","intention_check_positive","99","12","20","0","2500","0","0"
"031220","11:08:25","100780069","test","2","mask_prime_positive","100","9","19","0","494","0","0"
"031220","11:08:25","100780069","test","2","prime_positive","101","9","19","0","100","0","0"
"031220","11:08:25","100780069","test","2","intention_check_positive","102","9","19","1","1508","0","0"
"031220","11:08:25","100780069","test","2","mask_prime_positive","103","12","40","1","921","0","0"
"031220","11:08:25","100780069","test","2","prime_positive","104","12","40","0","100","0","0"
"031220","11:08:25","100780069","test","2","intention_check_positive","105","12","40","1","845","0","0"
"031220","11:08:25","100780069","test","2","mask_prime_positive","106","3","50","0","1685","0","0"
"031220","11:08:25","100780069","test","2","prime_negative","107","3","50","0","100","0","0"
"031220","11:08:25","100780069","test","2","intention_check_negative","108","3","50","0","2500","0","0"
"031220","11:08:25","100780069","test","2","mask_prime_negative","109","2","61","1","1054","0","0"
"031220","11:08:25","100780069","test","2","prime_negative","110","2","61","0","100","0","0"
"031220","11:08:25","100780069","test","2","intention_check_negative","111","2","61","0","2500","0","0"
"031220","11:08:25","100780069","test","2","mask_prime_negative","112","5","55","0","942","0","0"
"031220","11:08:25","100780069","test","2","prime_positive","113","5","55","0","100","0","0"
"031220","11:08:25","100780069","test","2","intention_check_positive","114","5","55","0","2500","0","0"
"031220","11:08:25","100780069","test","2","mask_prime_positive","115","8","72","1","1149","0","0"
"031220","11:08:25","100780069","test","2","prime_positive","116","8","72","0","100","0","0"
"031220","11:08:25","100780069","test","2","intention_check_positive","117","8","72","1","1363","0","0"
"031220","11:08:25","100780069","test","2","mask_prime_positive","118","1","6","1","881","0","0"
"031220","11:08:25","100780069","test","2","prime_positive","119","1","6","0","100","0","0"
"031220","11:08:25","100780069","test","2","intention_check_positive","120","1","6","0","2500","0","0"
"031220","11:08:25","100780069","test","2","mask_prime_positive","121","4","27","1","577","0","0"
"031220","11:08:25","100780069","test","2","prime_negative","122","4","27","0","100","0","0"
"031220","11:08:25","100780069","test","2","intention_check_negative","123","4","27","0","2500","0","0"
"031220","11:08:25","100780069","test","2","mask_prime_negative","124","3","47","0","1982","0","0"
"031220","11:08:25","100780069","test","2","prime_positive","125","3","47","0","100","0","0"
"031220","11:08:25","100780069","test","2","intention_check_positive","126","3","47","0","2500","0","0"
"031220","11:08:25","100780069","test","2","mask_prime_positive","127","12","33","1","680","0","0"
"031220","11:08:25","100780069","test","2","prime_negative","128","12","33","0","100","0","0"
"031220","11:08:25","100780069","test","2","intention_check_negative","129","12","33","0","2500","0","0"
"031220","11:08:25","100780069","test","2","mask_prime_negative","130","10","60","1","1364","0","0"
"031220","11:08:25","100780069","test","2","prime_positive","131","10","60","0","100","0","0"
"031220","11:08:25","100780069","test","2","intention_check_positive","132","10","60","1","1652","0","0"
"031220","11:08:25","100780069","test","2","mask_prime_positive","133","1","18","1","477","0","0"
"031220","11:08:25","100780069","test","2","prime_negative","134","1","18","0","100","0","0"
"031220","11:08:25","100780069","test","2","intention_check_negative","135","1","18","0","2500","0","0"
"031220","11:08:25","100780069","test","2","mask_prime_negative","136","4","43","0","710","0","0"
"031220","11:08:25","100780069","test","2","prime_positive","137","4","43","0","100","0","0"
"031220","11:08:25","100780069","test","2","intention_check_positive","138","4","43","1","1538","0","0"
"031220","11:08:25","100780069","test","2","mask_prime_positive","139","6","54","1","1133","0","0"
"031220","11:08:25","100780069","test","2","prime_positive","140","6","54","0","100","0","0"
"031220","11:08:25","100780069","test","2","intention_check_positive","141","6","54","0","2500","0","0"
"031220","11:08:25","100780069","test","2","mask_prime_positive","142","9","25","1","1225","0","0"
"031220","11:08:25","100780069","test","2","prime_positive","143","9","25","0","100","0","0"
"031220","11:08:25","100780069","test","2","intention_check_positive","144","9","25","0","2500","0","0"
"031220","11:08:25","100780069","test","2","mask_prime_positive","145","2","15","0","2681","0","0"
"031220","11:08:25","100780069","test","2","prime_positive","146","2","15","0","100","0","0"
"031220","11:08:25","100780069","test","2","intention_check_positive","147","2","15","1","1864","0","0"
"031220","11:08:25","100780069","test","2","mask_prime_positive","148","3","24","1","607","0","0"
"031220","11:08:25","100780069","test","2","prime_positive","149","3","24","0","100","0","0"
"031220","11:08:25","100780069","test","2","intention_check_positive","150","3","24","0","2500","0","0"
"031220","11:08:25","100780069","test","2","mask_prime_positive","151","10","49","0","719","0","0"
"031220","11:08:25","100780069","test","2","prime_negative","152","10","49","0","100","0","0"
"031220","11:08:25","100780069","test","2","intention_check_negative","153","10","49","0","2500","0","0"
"031220","11:08:25","100780069","test","2","mask_prime_negative","154","2","52","0","848","0","0"
"031220","11:08:25","100780069","test","2","prime_positive","155","2","52","0","100","0","0"
"031220","11:08:25","100780069","test","2","intention_check_positive","156","2","52","1","1008","0","0"
"031220","11:08:25","100780069","test","2","mask_prime_positive","157","7","26","0","1397","0","0"
"031220","11:08:25","100780069","test","2","prime_negative","158","7","26","0","100","0","0"
"031220","11:08:25","100780069","test","2","intention_check_negative","159","7","26","0","2500","0","0"
"031220","11:08:25","100780069","test","2","mask_prime_negative","160","11","37","0","1048","0","0"
"031220","11:08:25","100780069","test","2","prime_negative","161","11","37","0","100","0","0"
"031220","11:08:25","100780069","test","2","intention_check_negative","162","11","37","1","1550","0","0"
"031220","11:08:25","100780069","test","2","mask_prime_negative","163","8","4","0","725","0","0"
"031220","11:08:25","100780069","test","2","prime_positive","164","8","4","0","100","0","0"
"031220","11:08:25","100780069","test","2","intention_check_positive","165","8","4","0","2500","0","0"
"031220","11:08:25","100780069","test","2","mask_prime_positive","166","11","46","1","981","0","0"
"031220","11:08:25","100780069","test","2","prime_positive","167","11","46","0","100","0","0"
"031220","11:08:25","100780069","test","2","intention_check_positive","168","11","46","0","2500","0","0"
"031220","11:08:25","100780069","test","2","mask_prime_positive","169","8","62","0","559","0","0"
"031220","11:08:25","100780069","test","2","prime_positive","170","8","62","0","100","0","0"
"031220","11:08:25","100780069","test","2","intention_check_positive","171","8","62","1","2332","0","0"
"031220","11:08:25","100780069","test","2","mask_prime_positive","172","5","16","1","580","0","0"
"031220","11:08:25","100780069","test","2","prime_negative","173","5","16","0","100","0","0"
"031220","11:08:25","100780069","test","2","intention_check_negative","174","5","16","0","2500","0","0"
"031220","11:08:25","100780069","test","2","mask_prime_negative","175","9","13","1","1264","0","0"
"031220","11:08:25","100780069","test","2","prime_positive","176","9","13","0","100","0","0"
"031220","11:08:25","100780069","test","2","intention_check_positive","177","9","13","0","2500","0","0"
"031220","11:08:25","100780069","test","2","mask_prime_positive","178","11","53","0","1615","0","0"
"031220","11:08:25","100780069","test","2","prime_negative","179","11","53","0","100","0","0"
"031220","11:08:25","100780069","test","2","intention_check_negative","180","11","53","1","1139","0","0"
"031220","11:08:25","100780069","test","2","mask_prime_negative","181","6","10","0","451","0","0"
"031220","11:08:25","100780069","test","2","prime_positive","182","6","10","0","100","0","0"
"031220","11:08:25","100780069","test","2","intention_check_positive","183","6","10","0","2500","0","0"
"031220","11:08:25","100780069","test","2","mask_prime_positive","184","12","63","0","593","0","0"
"031220","11:08:25","100780069","test","2","prime_negative","185","12","63","0","100","0","0"
"031220","11:08:25","100780069","test","2","intention_check_negative","186","12","63","1","1171","0","0"
"031220","11:08:25","100780069","test","2","mask_prime_negative","187","1","3","1","991","0","0"
"031220","11:08:25","100780069","test","2","prime_negative","188","1","3","0","100","0","0"
"031220","11:08:25","100780069","test","2","intention_check_negative","189","1","3","0","2500","0","0"
"031220","11:08:25","100780069","test","2","mask_prime_negative","190","7","25","1","1676","0","0"
"031220","11:08:25","100780069","test","2","prime_positive","191","7","25","0","100","0","0"
"031220","11:08:25","100780069","test","2","intention_check_positive","192","7","25","0","2500","0","0"
"031220","11:08:25","100780069","test","2","mask_prime_positive","193","5","31","0","818","0","0"
"031220","11:08:25","100780069","test","2","prime_negative","194","5","31","0","100","0","0"
"031220","11:08:25","100780069","test","2","intention_check_negative","195","5","31","0","2500","0","0"
"031220","11:08:25","100780069","test","2","mask_prime_negative","196","12","26","0","1755","0","0"
"031220","11:08:25","100780069","test","2","prime_negative","197","12","26","0","100","0","0"
"031220","11:08:25","100780069","test","2","intention_check_negative","198","12","26","0","2500","0","0"
"031220","11:08:25","100780069","test","2","mask_prime_negative","199","8","17","1","645","0","0"
"031220","11:08:25","100780069","test","2","prime_negative","200","8","17","0","100","0","0"
"031220","11:08:25","100780069","test","2","intention_check_negative","201","8","17","0","2500","0","0"
"031220","11:08:25","100780069","test","2","mask_prime_negative","202","5","29","1","482","0","0"
"031220","11:08:25","100780069","test","2","prime_positive","203","5","29","0","100","0","0"
"031220","11:08:25","100780069","test","2","intention_check_positive","204","5","29","0","2500","0","0"
"031220","11:08:25","100780069","test","2","mask_prime_positive","205","6","42","0","818","0","0"
"031220","11:08:25","100780069","test","2","prime_negative","206","6","42","0","100","0","0"
"031220","11:08:25","100780069","test","2","intention_check_negative","207","6","42","0","2500","0","0"
"031220","11:08:25","100780069","test","2","mask_prime_negative","208","2","68","1","617","0","0"
"031220","11:08:25","100780069","test","2","prime_negative","209","2","68","0","100","0","0"
"031220","11:08:25","100780069","test","2","intention_check_negative","210","2","68","0","2500","0","0"
"031220","11:08:25","100780069","test","2","mask_prime_negative","211","4","13","1","862","0","0"
"031220","11:08:25","100780069","test","2","prime_negative","212","4","13","0","100","0","0"
"031220","11:08:25","100780069","test","2","intention_check_negative","213","4","13","0","2500","0","0"
"031220","11:08:25","100780069","test","2","mask_prime_negative","214","7","27","1","513","0","0"
"031220","11:08:25","100780069","test","2","prime_positive","215","7","27","0","100","0","0"
"031220","11:08:25","100780069","test","2","intention_check_positive","216","7","27","0","2500","0","0"
"031220","11:08:25","100780069","test","2","mask_prime_positive","217","1","48","0","4891","0","0"
"031220","11:10:07","235732843","practice","1","prime_positive","3","0","0","0","100","0","0"
"031220","11:10:07","235732843","practice","1","intention_check_positive","4","0","0","0","2500","0","0"
"031220","11:10:07","235732843","practice","1","mask_prime_positive","5","12","15","1","1198","0","0"
"031220","11:10:07","235732843","practice","1","prime_positive","6","12","15","0","100","0","0"
"031220","11:10:07","235732843","practice","1","intention_check_positive","7","12","15","0","2500","0","0"
"031220","11:10:07","235732843","practice","1","mask_prime_positive","8","11","27","1","554","0","0"
"031220","11:10:07","235732843","practice","1","prime_positive","9","11","27","0","100","0","0"
"031220","11:10:07","235732843","practice","1","intention_check_positive","10","11","27","0","2500","0","0"
"031220","11:10:07","235732843","practice","1","mask_prime_positive","11","9","18","1","775","0","0"
"031220","11:10:07","235732843","practice","1","prime_negative","12","9","18","0","100","0","0"
"031220","11:10:07","235732843","practice","1","intention_check_negative","13","9","18","0","2500","0","0"
"031220","11:10:07","235732843","practice","1","mask_prime_negative","14","1","1","1","591","0","0"
"031220","11:10:07","235732843","practice","1","prime_positive","15","1","1","0","100","0","0"
"031220","11:10:07","235732843","practice","1","intention_check_positive","16","1","1","0","2500","0","0"
"031220","11:10:07","235732843","practice","1","mask_prime_positive","17","5","9","1","485","0","0"
"031220","11:10:07","235732843","practice","1","prime_positive","18","5","9","0","100","0","0"
"031220","11:10:07","235732843","practice","1","intention_check_positive","19","5","9","0","2500","0","0"
"031220","11:10:07","235732843","practice","1","mask_prime_positive","20","2","41","1","1127","0","0"
"031220","11:10:07","235732843","practice","1","prime_negative","21","2","41","0","100","0","0"
"031220","11:10:07","235732843","practice","1","intention_check_negative","22","2","41","0","2500","0","0"
"031220","11:10:07","235732843","practice","1","mask_prime_negative","23","3","52","0","594","0","0"
"031220","11:10:07","235732843","practice","1","prime_negative","24","3","52","0","100","0","0"
"031220","11:10:07","235732843","practice","1","intention_check_negative","25","3","52","0","2500","0","0"
"031220","11:10:07","235732843","practice","1","mask_prime_negative","26","10","62","0","759","0","0"
"031220","11:10:07","235732843","practice","1","prime_negative","27","10","62","0","100","0","0"
"031220","11:10:07","235732843","practice","1","intention_check_negative","28","10","62","0","2500","0","0"
"031220","11:10:07","235732843","practice","1","mask_prime_negative","29","8","67","1","754","0","0"
"031220","11:10:07","235732843","practice","1","prime_negative","30","8","67","0","100","0","0"
"031220","11:10:07","235732843","practice","1","intention_check_negative","31","8","67","0","2500","0","0"
"031220","11:10:07","235732843","practice","1","mask_prime_negative","32","11","59","1","673","0","0"
"031220","11:10:07","235732843","test","2","prime_negative","2","11","59","0","100","0","0"
"031220","11:10:07","235732843","test","2","intention_check_negative","3","11","59","0","2500","0","0"
"031220","11:10:07","235732843","test","2","mask_prime_negative","4","5","3","1","534","0","0"
"031220","11:10:07","235732843","test","2","prime_negative","5","5","3","0","100","0","0"
"031220","11:10:07","235732843","test","2","intention_check_negative","6","5","3","0","2500","0","0"
"031220","11:10:07","235732843","test","2","mask_prime_negative","7","12","4","1","508","0","0"
"031220","11:10:07","235732843","test","2","prime_positive","8","12","4","0","100","0","0"
"031220","11:10:07","235732843","test","2","intention_check_positive","9","12","4","0","2500","0","0"
"031220","11:10:07","235732843","test","2","mask_prime_positive","10","6","17","1","536","0","0"
"031220","11:10:07","235732843","test","2","prime_negative","11","6","17","0","100","0","0"
"031220","11:10:07","235732843","test","2","intention_check_negative","12","6","17","0","2500","0","0"
"031220","11:10:07","235732843","test","2","mask_prime_negative","13","7","23","1","438","0","0"
"031220","11:10:07","235732843","test","2","prime_positive","14","7","23","0","100","0","0"
"031220","11:10:07","235732843","test","2","intention_check_positive","15","7","23","1","1400","0","0"
"031220","11:10:07","235732843","test","2","mask_prime_positive","16","3","34","1","2434","0","0"
"031220","11:10:07","235732843","test","2","prime_positive","17","3","34","0","100","0","0"
"031220","11:10:07","235732843","test","2","intention_check_positive","18","3","34","0","2500","0","0"
"031220","11:10:07","235732843","test","2","mask_prime_positive","19","8","60","0","594","0","0"
"031220","11:10:07","235732843","test","2","prime_negative","20","8","60","0","100","0","0"
"031220","11:10:07","235732843","test","2","intention_check_negative","21","8","60","0","2500","0","0"
"031220","11:10:07","235732843","test","2","mask_prime_negative","22","6","61","1","535","0","0"
"031220","11:10:07","235732843","test","2","prime_negative","23","6","61","0","100","0","0"
"031220","11:10:07","235732843","test","2","intention_check_negative","24","6","61","0","2500","0","0"
"031220","11:10:07","235732843","test","2","mask_prime_negative","25","2","40","1","476","0","0"
"031220","11:10:07","235732843","test","2","prime_positive","26","2","40","0","100","0","0"
"031220","11:10:07","235732843","test","2","intention_check_positive","27","2","40","0","2500","0","0"
"031220","11:10:07","235732843","test","2","mask_prime_positive","28","10","63","0","874","0","0"
"031220","11:10:07","235732843","test","2","prime_positive","29","10","63","0","100","0","0"
"031220","11:10:07","235732843","test","2","intention_check_positive","30","10","63","0","2500","0","0"
"031220","11:10:07","235732843","test","2","mask_prime_positive","31","7","42","1","1249","0","0"
"031220","11:10:07","235732843","test","2","prime_negative","32","7","42","0","100","0","0"
"031220","11:10:07","235732843","test","2","intention_check_negative","33","7","42","0","2500","0","0"
"031220","11:10:07","235732843","test","2","mask_prime_negative","34","9","46","1","4692","0","0"
"031220","11:10:07","235732843","test","2","prime_negative","35","9","46","0","100","0","0"
"031220","11:10:07","235732843","test","2","intention_check_negative","36","9","46","0","2500","0","0"
"031220","11:10:07","235732843","test","2","mask_prime_negative","37","4","58","1","514","0","0"
"031220","11:10:07","235732843","test","2","prime_negative","38","4","58","0","100","0","0"
"031220","11:10:07","235732843","test","2","intention_check_negative","39","4","58","0","2500","0","0"
"031220","11:10:07","235732843","test","2","mask_prime_negative","40","1","5","1","913","0","0"
"031220","11:10:07","235732843","test","2","prime_positive","41","1","5","0","100","0","0"
"031220","11:10:07","235732843","test","2","intention_check_positive","42","1","5","1","1079","0","0"
"031220","11:10:07","235732843","test","2","mask_prime_positive","43","1","37","1","665","0","0"
"031220","11:10:07","235732843","test","2","prime_negative","44","1","37","0","100","0","0"
"031220","11:10:07","235732843","test","2","intention_check_negative","45","1","37","0","2500","0","0"
"031220","11:10:07","235732843","test","2","mask_prime_negative","46","9","7","1","290","0","0"
"031220","11:10:07","235732843","test","2","prime_positive","47","9","7","0","100","0","0"
"031220","11:10:07","235732843","test","2","intention_check_positive","48","9","7","0","2500","0","0"
"031220","11:10:07","235732843","test","2","mask_prime_positive","49","4","68","1","1373","0","0"
"031220","11:10:07","235732843","test","2","prime_positive","50","4","68","0","100","0","0"
"031220","11:10:07","235732843","test","2","intention_check_positive","51","4","68","0","2500","0","0"
"031220","11:10:07","235732843","test","2","mask_prime_positive","52","7","8","1","545","0","0"
"031220","11:10:07","235732843","test","2","prime_positive","53","7","8","0","100","0","0"
"031220","11:10:07","235732843","test","2","intention_check_positive","54","7","8","0","2500","0","0"
"031220","11:10:07","235732843","test","2","mask_prime_positive","55","2","11","0","553","0","0"
"031220","11:10:07","235732843","test","2","prime_positive","56","2","11","0","100","0","0"
"031220","11:10:07","235732843","test","2","intention_check_positive","57","2","11","0","2500","0","0"
"031220","11:10:07","235732843","test","2","mask_prime_positive","58","1","14","0","666","0","0"
"031220","11:10:07","235732843","test","2","prime_negative","59","1","14","0","100","0","0"
"031220","11:10:07","235732843","test","2","intention_check_negative","60","1","14","0","2500","0","0"
"031220","11:10:07","235732843","test","2","mask_prime_negative","61","3","6","1","996","0","0"
"031220","11:10:07","235732843","test","2","prime_negative","62","3","6","0","100","0","0"
"031220","11:10:07","235732843","test","2","intention_check_negative","63","3","6","0","2500","0","0"
"031220","11:10:07","235732843","test","2","mask_prime_negative","64","2","64","0","653","0","0"
"031220","11:10:07","235732843","test","2","prime_negative","65","2","64","0","100","0","0"
"031220","11:10:07","235732843","test","2","intention_check_negative","66","2","64","0","2500","0","0"
"031220","11:10:07","235732843","test","2","mask_prime_negative","67","7","51","0","608","0","0"
"031220","11:10:07","235732843","test","2","prime_positive","68","7","51","0","100","0","0"
"031220","11:10:07","235732843","test","2","intention_check_positive","69","7","51","0","2500","0","0"
"031220","11:10:07","235732843","test","2","mask_prime_positive","70","4","48","0","552","0","0"
"031220","11:10:07","235732843","test","2","prime_negative","71","4","48","0","100","0","0"
"031220","11:10:07","235732843","test","2","intention_check_negative","72","4","48","0","2500","0","0"
"031220","11:10:07","235732843","test","2","mask_prime_negative","73","8","33","0","840","0","0"
"031220","11:10:07","235732843","test","2","prime_positive","74","8","33","0","100","0","0"
"031220","11:10:07","235732843","test","2","intention_check_positive","75","8","33","0","2500","0","0"
"031220","11:10:07","235732843","test","2","mask_prime_positive","76","12","13","1","963","0","0"
"031220","11:10:07","235732843","test","2","prime_negative","77","12","13","0","100","0","0"
"031220","11:10:07","235732843","test","2","intention_check_negative","78","12","13","0","2500","0","0"
"031220","11:10:07","235732843","test","2","mask_prime_negative","79","10","50","0","728","0","0"
"031220","11:10:07","235732843","test","2","prime_positive","80","10","50","0","100","0","0"
"031220","11:10:07","235732843","test","2","intention_check_positive","81","10","50","1","1458","0","0"
"031220","11:10:07","235732843","test","2","mask_prime_positive","82","6","16","0","6428","0","0"
"031220","11:10:07","235732843","test","2","prime_positive","83","6","16","0","100","0","0"
"031220","11:10:07","235732843","test","2","intention_check_positive","84","6","16","0","2500","0","0"
"031220","11:10:07","235732843","test","2","mask_prime_positive","85","9","53","0","1171","0","0"
"031220","11:10:07","235732843","test","2","prime_positive","86","9","53","0","100","0","0"
"031220","11:10:07","235732843","test","2","intention_check_positive","87","9","53","0","2500","0","0"
"031220","11:10:07","235732843","test","2","mask_prime_positive","88","3","45","0","768","0","0"
"031220","11:10:07","235732843","test","2","prime_negative","89","3","45","0","100","0","0"
"031220","11:10:07","235732843","test","2","intention_check_negative","90","3","45","0","2500","0","0"
"031220","11:10:07","235732843","test","2","mask_prime_negative","91","4","65","1","538","0","0"
"031220","11:10:07","235732843","test","2","prime_negative","92","4","65","0","100","0","0"
"031220","11:10:07","235732843","test","2","intention_check_negative","93","4","65","0","2500","0","0"
"031220","11:10:07","235732843","test","2","mask_prime_negative","94","5","21","0","794","0","0"
"031220","11:10:07","235732843","test","2","prime_negative","95","5","21","0","100","0","0"
"031220","11:10:07","235732843","test","2","intention_check_negative","96","5","21","0","2500","0","0"
"031220","11:10:07","235732843","test","2","mask_prime_negative","97","12","70","1","580","0","0"
"031220","11:10:07","235732843","test","2","prime_positive","98","12","70","0","100","0","0"
"031220","11:10:07","235732843","test","2","intention_check_positive","99","12","70","0","2500","0","0"
"031220","11:10:07","235732843","test","2","mask_prime_positive","100","11","71","1","1116","0","0"
"031220","11:10:07","235732843","test","2","prime_positive","101","11","71","0","100","0","0"
"031220","11:10:07","235732843","test","2","intention_check_positive","102","11","71","0","2500","0","0"
"031220","11:10:07","235732843","test","2","mask_prime_positive","103","5","38","1","675","0","0"
"031220","11:10:07","235732843","test","2","prime_positive","104","5","38","0","100","0","0"
"031220","11:10:07","235732843","test","2","intention_check_positive","105","5","38","0","2500","0","0"
"031220","11:10:07","235732843","test","2","mask_prime_positive","106","8","54","1","531","0","0"
"031220","11:10:07","235732843","test","2","prime_negative","107","8","54","0","100","0","0"
"031220","11:10:07","235732843","test","2","intention_check_negative","108","8","54","0","2500","0","0"
"031220","11:10:07","235732843","test","2","mask_prime_negative","109","11","43","1","479","0","0"
"031220","11:10:07","235732843","test","2","prime_positive","110","11","43","0","100","0","0"
"031220","11:10:07","235732843","test","2","intention_check_positive","111","11","43","0","2500","0","0"
"031220","11:10:07","235732843","test","2","mask_prime_positive","112","10","69","1","599","0","0"
"031220","11:10:07","235732843","test","2","prime_negative","113","10","69","0","100","0","0"
"031220","11:10:07","235732843","test","2","intention_check_negative","114","10","69","0","2500","0","0"
"031220","11:10:07","235732843","test","2","mask_prime_negative","115","6","26","0","642","0","0"
"031220","11:10:07","235732843","test","2","prime_positive","116","6","26","0","100","0","0"
"031220","11:10:07","235732843","test","2","intention_check_positive","117","6","26","0","2500","0","0"
"031220","11:10:07","235732843","test","2","mask_prime_positive","118","8","29","1","426","0","0"
"031220","11:10:07","235732843","test","2","prime_positive","119","8","29","0","100","0","0"
"031220","11:10:07","235732843","test","2","intention_check_positive","120","8","29","0","2500","0","0"
"031220","11:10:07","235732843","test","2","mask_prime_positive","121","7","47","0","1109","0","0"
"031220","11:10:07","235732843","test","2","prime_positive","122","7","47","0","100","0","0"
"031220","11:10:07","235732843","test","2","intention_check_positive","123","7","47","0","2500","0","0"
"031220","11:10:07","235732843","test","2","mask_prime_positive","124","12","44","1","977","0","0"
"031220","11:10:07","235732843","test","2","prime_negative","125","12","44","0","100","0","0"
"031220","11:10:07","235732843","test","2","intention_check_negative","126","12","44","0","2500","0","0"
"031220","11:10:07","235732843","test","2","mask_prime_negative","127","1","31","0","602","0","0"
"031220","11:10:07","235732843","test","2","prime_positive","128","1","31","0","100","0","0"
"031220","11:10:07","235732843","test","2","intention_check_positive","129","1","31","0","2500","0","0"
"031220","11:10:07","235732843","test","2","mask_prime_positive","130","2","72","0","594","0","0"
"031220","11:10:07","235732843","test","2","prime_positive","131","2","72","0","100","0","0"
"031220","11:10:07","235732843","test","2","intention_check_positive","132","2","72","0","2500","0","0"
"031220","11:10:07","235732843","test","2","mask_prime_positive","133","5","10","1","564","0","0"
"031220","11:10:07","235732843","test","2","prime_positive","134","5","10","0","100","0","0"
"031220","11:10:07","235732843","test","2","intention_check_positive","135","5","10","0","2500","0","0"
"031220","11:10:07","235732843","test","2","mask_prime_positive","136","1","2","1","675","0","0"
"031220","11:10:07","235732843","test","2","prime_negative","137","1","2","0","100","0","0"
"031220","11:10:07","235732843","test","2","intention_check_negative","138","1","2","0","2500","0","0"
"031220","11:10:07","235732843","test","2","mask_prime_negative","139","9","25","1","754","0","0"
"031220","11:10:07","235732843","test","2","prime_negative","140","9","25","0","100","0","0"
"031220","11:10:07","235732843","test","2","intention_check_negative","141","9","25","0","2500","0","0"
"031220","11:10:07","235732843","test","2","mask_prime_negative","142","2","22","1","375","0","0"
"031220","11:10:07","235732843","test","2","prime_negative","143","2","22","0","100","0","0"
"031220","11:10:07","235732843","test","2","intention_check_negative","144","2","22","0","2500","0","0"
"031220","11:10:07","235732843","test","2","mask_prime_negative","145","5","56","0","579","0","0"
"031220","11:10:07","235732843","test","2","prime_negative","146","5","56","0","100","0","0"
"031220","11:10:07","235732843","test","2","intention_check_negative","147","5","56","0","2500","0","0"
"031220","11:10:07","235732843","test","2","mask_prime_negative","148","3","30","0","864","0","0"
"031220","11:10:07","235732843","test","2","prime_negative","149","3","30","0","100","0","0"
"031220","11:10:07","235732843","test","2","intention_check_negative","150","3","30","0","2500","0","0"
"031220","11:10:07","235732843","test","2","mask_prime_negative","151","7","20","0","653","0","0"
"031220","11:10:07","235732843","test","2","prime_positive","152","7","20","0","100","0","0"
"031220","11:10:07","235732843","test","2","intention_check_positive","153","7","20","0","2500","0","0"
"031220","11:10:07","235732843","test","2","mask_prime_positive","154","10","55","0","640","0","0"
"031220","11:10:07","235732843","test","2","prime_negative","155","10","55","0","100","0","0"
"031220","11:10:07","235732843","test","2","intention_check_negative","156","10","55","0","2500","0","0"
"031220","11:10:07","235732843","test","2","mask_prime_negative","157","4","66","1","684","0","0"
"031220","11:10:07","235732843","test","2","prime_positive","158","4","66","0","100","0","0"
"031220","11:10:07","235732843","test","2","intention_check_positive","159","4","66","0","2500","0","0"
"031220","11:10:07","235732843","test","2","mask_prime_positive","160","3","36","1","622","0","0"
"031220","11:10:07","235732843","test","2","prime_positive","161","3","36","0","100","0","0"
"031220","11:10:07","235732843","test","2","intention_check_positive","162","3","36","0","2500","0","0"
"031220","11:10:07","235732843","test","2","mask_prime_positive","163","9","24","1","446","0","0"
"031220","11:10:07","235732843","test","2","prime_negative","164","9","24","0","100","0","0"
"031220","11:10:07","235732843","test","2","intention_check_negative","165","9","24","0","2500","0","0"
"031220","11:10:07","235732843","test","2","mask_prime_negative","166","10","32","1","500","0","0"
"031220","11:10:07","235732843","test","2","prime_positive","167","10","32","0","100","0","0"
"031220","11:10:07","235732843","test","2","intention_check_positive","168","10","32","0","2500","0","0"
"031220","11:10:07","235732843","test","2","mask_prime_positive","169","6","57","1","676","0","0"
"031220","11:10:07","235732843","test","2","prime_negative","170","6","57","0","100","0","0"
"031220","11:10:07","235732843","test","2","intention_check_negative","171","6","57","0","2500","0","0"
"031220","11:10:07","235732843","test","2","mask_prime_negative","172","11","19","1","451","0","0"
"031220","11:10:07","235732843","test","2","prime_negative","173","11","19","0","100","0","0"
"031220","11:10:07","235732843","test","2","intention_check_negative","174","11","19","0","2500","0","0"
"031220","11:10:07","235732843","test","2","mask_prime_negative","175","6","49","1","307","0","0"
"031220","11:10:07","235732843","test","2","prime_negative","176","6","49","0","100","0","0"
"031220","11:10:07","235732843","test","2","intention_check_negative","177","6","49","0","2500","0","0"
"031220","11:10:07","235732843","test","2","mask_prime_negative","178","12","39","1","437","0","0"
"031220","11:10:07","235732843","test","2","prime_negative","179","12","39","0","100","0","0"
"031220","11:10:07","235732843","test","2","intention_check_negative","180","12","39","0","2500","0","0"
"031220","11:10:07","235732843","test","2","mask_prime_negative","181","8","28","0","606","0","0"
"031220","11:10:07","235732843","test","2","prime_negative","182","8","28","0","100","0","0"
"031220","11:10:07","235732843","test","2","intention_check_negative","183","8","28","0","2500","0","0"
"031220","11:10:07","235732843","test","2","mask_prime_negative","184","8","35","1","487","0","0"
"031220","11:10:07","235732843","test","2","prime_positive","185","8","35","0","100","0","0"
"031220","11:10:07","235732843","test","2","intention_check_positive","186","8","35","0","2500","0","0"
"031220","11:10:07","235732843","test","2","mask_prime_positive","187","4","12","0","559","0","0"
"031220","11:10:07","235732843","test","2","prime_negative","188","4","12","0","100","0","0"
"031220","11:10:07","235732843","test","2","intention_check_negative","189","4","12","0","2500","0","0"
"031220","11:10:07","235732843","test","2","mask_prime_negative","190","6","12","0","499","0","0"
"031220","11:10:07","235732843","test","2","prime_negative","191","6","12","0","100","0","0"
"031220","11:10:07","235732843","test","2","intention_check_negative","192","6","12","0","2500","0","0"
"031220","11:10:07","235732843","test","2","mask_prime_negative","193","3","6","1","327","0","0"
"031220","11:10:07","235732843","test","2","prime_positive","194","3","6","0","100","0","0"
"031220","11:10:07","235732843","test","2","intention_check_positive","195","3","6","0","2500","0","0"
"031220","11:10:07","235732843","test","2","mask_prime_positive","196","11","60","0","508","0","0"
"031220","11:10:07","235732843","test","2","prime_positive","197","11","60","0","100","0","0"
"031220","11:10:07","235732843","test","2","intention_check_positive","198","11","60","0","2500","0","0"
"031220","11:10:07","235732843","test","2","mask_prime_positive","199","9","71","0","618","0","0"
"031220","11:10:07","235732843","test","2","prime_positive","200","9","71","0","100","0","0"
"031220","11:10:07","235732843","test","2","intention_check_positive","201","9","71","0","2500","0","0"
"031220","11:10:07","235732843","test","2","mask_prime_positive","202","7","23","1","555","0","0"
"031220","11:10:07","235732843","test","2","prime_positive","203","7","23","0","100","0","0"
"031220","11:10:07","235732843","test","2","intention_check_positive","204","7","23","0","2500","0","0"
"031220","11:10:07","235732843","test","2","mask_prime_positive","205","6","19","1","645","0","0"
"031220","11:10:07","235732843","test","2","prime_positive","206","6","19","0","100","0","0"
"031220","11:10:07","235732843","test","2","intention_check_positive","207","6","19","0","2500","0","0"
"031220","11:10:07","235732843","test","2","mask_prime_positive","208","8","70","1","622","0","0"
"031220","11:10:07","235732843","test","2","prime_negative","209","8","70","0","100","0","0"
"031220","11:10:07","235732843","test","2","intention_check_negative","210","8","70","0","2500","0","0"
"031220","11:10:07","235732843","test","2","mask_prime_negative","211","12","57","1","596","0","0"
"031220","11:10:07","235732843","test","2","prime_positive","212","12","57","0","100","0","0"
"031220","11:10:07","235732843","test","2","intention_check_positive","213","12","57","0","2500","0","0"
"031220","11:10:07","235732843","test","2","mask_prime_positive","214","11","8","0","785","0","0"
"031220","11:10:07","235732843","test","2","prime_negative","215","11","8","0","100","0","0"
"031220","11:10:07","235732843","test","2","intention_check_negative","216","11","8","0","2500","0","0"
"031220","11:10:07","235732843","test","2","mask_prime_negative","217","1","44","0","626","0","0"
"031220","11:11:04","807543404","practice","1","prime_negative","3","0","0","0","101","0","0"
"031220","11:11:04","807543404","practice","1","intention_check_negative","4","0","0","0","2500","0","0"
"031220","11:11:04","807543404","practice","1","mask_prime_negative","5","1","43","0","3526","0","0"
"031220","11:11:04","807543404","practice","1","prime_positive","6","1","43","0","101","0","0"
"031220","11:11:04","807543404","practice","1","intention_check_positive","7","1","43","0","2500","0","0"
"031220","11:11:04","807543404","practice","1","mask_prime_positive","8","6","18","0","6017","0","0"
"031220","11:11:04","807543404","practice","1","prime_positive","9","6","18","0","101","0","0"
"031220","11:11:04","807543404","practice","1","intention_check_positive","10","6","18","0","2500","0","0"
"031220","11:11:04","807543404","practice","1","mask_prime_positive","11","12","44","1","1993","0","0"
"031220","11:11:04","807543404","practice","1","prime_negative","12","12","44","0","101","0","0"
