"","date","time","group","subject","build","blocknum","trialnum","blockcode","trialcode","pretrialpause","posttrialpause","trialduration","trialtimeout","response","correct","latency"
"1",31220,"10:50:29",674273113,323764856,"5.0.14.0",1,2,"demographics","age",0,0,0,0,"test",1,1880
"2",31220,"10:50:29",674273113,323764856,"5.0.14.0",1,3,"demographics","gender",0,0,0,0,"test",1,1562
"3",31220,"20:40:36",397019712,211285344,"5.0.14.0",1,2,"demographics","age",0,0,0,0,"21",1,3997
"4",31220,"20:40:36",397019712,211285344,"5.0.14.0",1,3,"demographics","gender",0,0,0,0,"Female",1,6217
"5",31220,"05:56:51",466998427,141306629,"5.0.14.0",1,2,"demographics","age",0,0,0,0,"27",1,3923
"6",31220,"05:56:51",466998427,141306629,"5.0.14.0",1,3,"demographics","gender",0,0,0,0,"Male",1,5396
"7",31220,"11:01:57",893264849,100780069,"5.0.14.0",1,2,"demographics","age",0,0,0,0,"20",1,5393
"8",31220,"11:01:57",893264849,100780069,"5.0.14.0",1,3,"demographics","gender",0,0,0,0,"female",1,6335
"9",31220,"11:06:20",338848354,807543404,"5.0.14.0",1,2,"demographics","age",0,0,0,0,"20",1,2530
"10",31220,"11:06:20",338848354,807543404,"5.0.14.0",1,3,"demographics","gender",0,0,0,0,"female",1,3659
"11",31220,"11:07:08",762006999,235732843,"5.0.14.0",1,2,"demographics","age",0,0,0,0,"20",1,2948
"12",31220,"11:07:08",762006999,235732843,"5.0.14.0",1,3,"demographics","gender",0,0,0,0,"Female",1,4047
"13",31320,"00:14:14",695712572,450679190,"5.0.14.0",1,2,"demographics","age",0,0,0,0,"20",1,3648
"14",31320,"00:14:14",695712572,450679190,"5.0.14.0",1,3,"demographics","gender",0,0,0,0,"male",1,3076
"15",31220,"11:16:40",783847703,939935663,"5.0.14.0",1,2,"demographics","age",0,0,0,0,"22",1,4006
"16",31220,"11:16:40",783847703,939935663,"5.0.14.0",1,3,"demographics","gender",0,0,0,0,"female",1,4005
"17",31320,"00:16:54",933229974,27324586,"5.0.14.0",1,2,"demographics","age",0,0,0,0,"23",1,9903
"18",31320,"00:16:54",933229974,27324586,"5.0.14.0",1,3,"demographics","gender",0,0,0,0,"female",1,11015
"19",31220,"21:16:06",653759725,307111597,"5.0.14.0",1,2,"demographics","age",0,0,0,0,"63",1,9054
"20",31220,"21:16:06",653759725,307111597,"5.0.14.0",1,3,"demographics","gender",0,0,0,0,"Male",1,8425
"21",31220,"11:20:57",4833775,566602761,"5.0.14.0",1,2,"demographics","age",0,0,0,0,"16",1,5037
"22",31220,"11:20:57",4833775,566602761,"5.0.14.0",1,3,"demographics","gender",0,0,0,0,"female",1,5260
"23",31220,"11:21:37",77904369,919835473,"5.0.14.0",1,2,"demographics","age",0,0,0,0,"29",1,6749
"24",31220,"11:21:37",77904369,919835473,"5.0.14.0",1,3,"demographics","gender",0,0,0,0,"male",1,2522
"25",31220,"11:27:07",460324932,190700451,"5.0.14.0",1,2,"demographics","age",0,0,0,0,"22",1,2217
"26",31220,"11:27:07",460324932,190700451,"5.0.14.0",1,3,"demographics","gender",0,0,0,0,"Female",1,4383
"27",31220,"11:28:13",473540343,371852658,"5.0.14.0",1,2,"demographics","age",0,0,0,0,"21",1,2612
"28",31220,"11:28:13",473540343,371852658,"5.0.14.0",1,3,"demographics","gender",0,0,0,0," Female",1,8047
"29",31220,"11:29:57",236642377,359842980,"5.0.14.0",1,2,"demographics","age",0,0,0,0,"18 ",1,7020
"30",31220,"11:29:57",236642377,359842980,"5.0.14.0",1,3,"demographics","gender",0,0,0,0,"Female",1,6222
"31",31220,"06:34:23",722474745,851030038,"5.0.14.0",1,2,"demographics","age",0,0,0,0,"41",1,7069
"32",31220,"06:34:23",722474745,851030038,"5.0.14.0",1,3,"demographics","gender",0,0,0,0,"female",1,12634
"33",31220,"11:36:02",298914255,962955820,"5.0.14.0",1,2,"demographics","age",0,0,0,0,"20",1,3868
"34",31220,"11:36:02",298914255,962955820,"5.0.14.0",1,3,"demographics","gender",0,0,0,0,"male",1,3508
"35",31220,"11:34:48",985910839,275959242,"5.0.14.0",1,2,"demographics","age",0,0,0,0,"45",1,3275
"36",31220,"11:34:48",985910839,275959242,"5.0.14.0",1,3,"demographics","gender",0,0,0,0,"female",1,5286
"37",31220,"11:37:17",564773130,934184894,"5.0.14.0",1,2,"demographics","age",0,0,0,0,"36",1,13293
"38",31220,"11:37:17",564773130,934184894,"5.0.14.0",1,3,"demographics","gender",0,0,0,0,"Female",1,5283
"39",31220,"11:37:36",210909388,783135526,"5.0.14.0",1,2,"demographics","age",0,0,0,0,"46",1,5815
"40",31220,"11:37:36",210909388,783135526,"5.0.14.0",1,3,"demographics","gender",0,0,0,0,"Female",1,6377
"41",31220,"11:38:52",773995000,681665074,"5.0.14.0",1,2,"demographics","age",0,0,0,0,"29",1,4416
"42",31220,"11:38:52",773995000,681665074,"5.0.14.0",1,3,"demographics","gender",0,0,0,0,"female",1,8219
"43",31220,"08:39:23",187565178,657827818,"5.0.14.0",1,2,"demographics","age",0,0,0,0,"41",1,4089
"44",31220,"08:39:23",187565178,657827818,"5.0.14.0",1,3,"demographics","gender",0,0,0,0,"male",1,4508
"45",31220,"22:42:06",470683520,930819324,"5.0.14.0",1,2,"demographics","age",0,0,0,0,"29 ",1,5417
"46",31220,"22:42:06",470683520,930819324,"5.0.14.0",1,3,"demographics","gender",0,0,0,0,"Male",1,2867
"47",31220,"11:42:35",971202821,529245839,"5.0.14.0",1,2,"demographics","age",0,0,0,0,"34",1,3433
"48",31220,"11:42:35",971202821,529245839,"5.0.14.0",1,3,"demographics","gender",0,0,0,0,"Female",1,3907
"49",31220,"11:43:21",420394703,476195033,"5.0.14.0",1,2,"demographics","age",0,0,0,0,"23",1,2047
"50",31220,"11:43:21",420394703,476195033,"5.0.14.0",1,3,"demographics","gender",0,0,0,0,"Female",1,12756
"51",31220,"19:44:20",324900586,784622650,"5.0.14.0",1,2,"demographics","age",0,0,0,0,"31",1,3392
"52",31220,"19:44:20",324900586,784622650,"5.0.14.0",1,3,"demographics","gender",0,0,0,0,"F",1,1863
"53",31220,"11:44:02",368564718,893305361,"5.0.14.0",1,2,"demographics","age",0,0,0,0,"35",1,2955
"54",31220,"11:44:02",368564718,893305361,"5.0.14.0",1,3,"demographics","gender",0,0,0,0,"Male",1,2732
"55",31220,"11:42:13",323026927,823364830,"5.0.14.0",1,2,"demographics","age",0,0,0,0,"31",1,2391
"56",31220,"11:42:13",323026927,823364830,"5.0.14.0",1,3,"demographics","gender",0,0,0,0,"Female",1,3518
"57",31220,"11:45:24",609538363,889419662,"5.0.14.0",1,2,"demographics","age",0,0,0,0,"38",1,4278
"58",31220,"11:45:24",609538363,889419662,"5.0.14.0",1,3,"demographics","gender",0,0,0,0,"male",1,2812
"59",31220,"11:45:46",98360176,14857997,"5.0.14.0",1,2,"demographics","age",0,0,0,0,"20",1,4768
"60",31220,"11:45:46",98360176,14857997,"5.0.14.0",1,3,"demographics","gender",0,0,0,0,"Male",1,3239
"61",31220,"11:45:05",422902133,228402747,"5.0.14.0",1,2,"demographics","age",0,0,0,0,"29",1,4862
"62",31220,"11:45:05",422902133,228402747,"5.0.14.0",1,3,"demographics","gender",0,0,0,0,"Female",1,3301
"63",31220,"22:47:22",905801122,55070196,"5.0.14.0",1,2,"demographics","age",0,0,0,0,"21",1,3298
"64",31220,"22:47:22",905801122,55070196,"5.0.14.0",1,3,"demographics","gender",0,0,0,0,"Female",1,8216
"65",31220,"11:49:02",804774024,40339482,"5.0.14.0",1,2,"demographics","age",0,0,0,0,"35",1,3286
"66",31220,"11:49:02",804774024,40339482,"5.0.14.0",1,3,"demographics","gender",0,0,0,0,"Female",1,4285
"67",31220,"19:49:49",41365480,804027520,"5.0.14.0",1,2,"demographics","age",0,0,0,0,"29",1,2520
"68",31220,"19:49:49",41365480,804027520,"5.0.14.0",1,3,"demographics","gender",0,0,0,0,"Female",1,3422
"69",31220,"11:50:04",216670384,239287828,"5.0.14.0",1,2,"demographics","age",0,0,0,0,"24",1,5672
"70",31220,"11:50:04",216670384,239287828,"5.0.14.0",1,3,"demographics","gender",0,0,0,0,"male",1,6705
"71",31220,"11:50:37",596612601,127170777,"5.0.14.0",1,2,"demographics","age",0,0,0,0,"60",1,4677
"72",31220,"11:50:37",596612601,127170777,"5.0.14.0",1,3,"demographics","gender",0,0,0,0,"male",1,5703
"73",31220,"11:50:33",22294443,87508304,"5.0.14.0",1,2,"demographics","age",0,0,0,0,"29",1,7972
"74",31220,"11:50:33",22294443,87508304,"5.0.14.0",1,3,"demographics","gender",0,0,0,0,"female",1,3947
"75",31220,"22:52:16",561316969,399554352,"5.0.14.0",1,2,"demographics","age",0,0,0,0,"24",1,2828
"76",31220,"22:52:16",561316969,399554352,"5.0.14.0",1,3,"demographics","gender",0,0,0,0,"Male",1,5564
"77",31220,"11:52:26",822685828,713140717,"5.0.14.0",1,2,"demographics","age",0,0,0,0,"33",1,3298
"78",31220,"11:52:26",822685828,713140717,"5.0.14.0",1,3,"demographics","gender",0,0,0,0,"Male",1,5081
"79",31220,"11:53:02",391440383,144386175,"5.0.14.0",1,2,"demographics","age",0,0,0,0,"47",1,3405
"80",31220,"11:53:02",391440383,144386175,"5.0.14.0",1,3,"demographics","gender",0,0,0,0,"male",1,4116
"81",31220,"07:53:21",764670887,806765634,"5.0.14.0",1,2,"demographics","age",0,0,0,0,"49",1,5265
"82",31220,"07:53:21",764670887,806765634,"5.0.14.0",1,3,"demographics","gender",0,0,0,0,"Female",1,8128
"83",31220,"11:53:35",838613395,155431522,"5.0.14.0",1,2,"demographics","age",0,0,0,0,"27",1,3816
"84",31220,"11:53:35",838613395,155431522,"5.0.14.0",1,3,"demographics","gender",0,0,0,0,"Female",1,6168
"85",31220,"11:54:45",670972555,712507149,"5.0.14.0",1,2,"demographics","age",0,0,0,0,"23",1,2853
"86",31220,"11:54:45",670972555,712507149,"5.0.14.0",1,3,"demographics","gender",0,0,0,0,"Female",1,3303
"87",31220,"11:54:56",118891969,416617829,"5.0.14.0",1,2,"demographics","age",0,0,0,0,"51",1,7761
"88",31220,"11:54:56",118891969,416617829,"5.0.14.0",1,3,"demographics","gender",0,0,0,0,"Male",1,5827
"89",31220,"11:56:58",492794959,501249961,"5.0.14.0",1,2,"demographics","age",0,0,0,0,"20",1,2311
"90",31220,"11:56:58",492794959,501249961,"5.0.14.0",1,3,"demographics","gender",0,0,0,0,"Female",1,3347
"91",31220,"11:57:17",165603955,235898901,"5.0.14.0",1,2,"demographics","age",0,0,0,0,"19",1,2896
"92",31220,"11:57:17",165603955,235898901,"5.0.14.0",1,3,"demographics","gender",0,0,0,0,"Female",1,4120
"93",31220,"11:58:05",991356359,155035399,"5.0.14.0",1,2,"demographics","age",0,0,0,0,"30",1,3308
"94",31220,"11:58:05",991356359,155035399,"5.0.14.0",1,3,"demographics","gender",0,0,0,0,"Female",1,5209
"95",31220,"11:58:33",1548609,144843164,"5.0.14.0",1,2,"demographics","age",0,0,0,0,"22",1,2740
"96",31220,"11:58:33",1548609,144843164,"5.0.14.0",1,3,"demographics","gender",0,0,0,0,"Female",1,4009
"97",31220,"11:58:27",917779840,191743394,"5.0.14.0",1,2,"demographics","age",0,0,0,0,"22",1,3379
"98",31220,"11:58:27",917779840,191743394,"5.0.14.0",1,3,"demographics","gender",0,0,0,0,"Female",1,6312
"99",31220,"11:58:57",276570987,222387048,"5.0.14.0",1,2,"demographics","age",0,0,0,0,"19",1,4118
"100",31220,"11:58:57",276570987,222387048,"5.0.14.0",1,3,"demographics","gender",0,0,0,0,"Male",1,2277
"101",31220,"11:58:22",517017822,477027098,"5.0.14.0",1,2,"demographics","age",0,0,0,0,"20",1,2559
"102",31220,"11:58:22",517017822,477027098,"5.0.14.0",1,3,"demographics","gender",0,0,0,0,"female",1,2891
"103",31220,"11:59:17",122159831,24231941,"5.0.14.0",1,2,"demographics","age",0,0,0,0,"24",1,3664
"104",31220,"11:59:17",122159831,24231941,"5.0.14.0",1,3,"demographics","gender",0,0,0,0,"Male",1,4330
"105",31220,"12:00:02",325747893,172893383,"5.0.14.0",1,2,"demographics","age",0,0,0,0,"23",1,6557
"106",31220,"12:00:02",325747893,172893383,"5.0.14.0",1,3,"demographics","gender",0,0,0,0,"female",1,6096
"107",31220,"12:02:36",240528571,258429468,"5.0.14.0",1,2,"demographics","age",0,0,0,0,"56",1,2799
"108",31220,"12:02:36",240528571,258429468,"5.0.14.0",1,3,"demographics","gender",0,0,0,0,"female",1,3921
"109",31220,"12:03:16",899448239,210074995,"5.0.14.0",1,2,"demographics","age",0,0,0,0,"27",1,4430
"110",31220,"12:03:16",899448239,210074995,"5.0.14.0",1,3,"demographics","gender",0,0,0,0,"Female",1,3366
"111",31220,"12:03:11",345505434,110452783,"5.0.14.0",1,2,"demographics","age",0,0,0,0,"19 ",1,4295
"112",31220,"12:03:11",345505434,110452783,"5.0.14.0",1,3,"demographics","gender",0,0,0,0,"female",1,5310
"113",31220,"12:03:39",593951010,515572234,"5.0.14.0",1,2,"demographics","age",0,0,0,0,"20",1,2692
"114",31220,"12:03:39",593951010,515572234,"5.0.14.0",1,3,"demographics","gender",0,0,0,0,"male",1,2005
"115",31220,"12:03:35",285816625,463015576,"5.0.14.0",1,2,"demographics","age",0,0,0,0,"22",1,2275
"116",31220,"12:03:35",285816625,463015576,"5.0.14.0",1,3,"demographics","gender",0,0,0,0,"Female",1,3643
"117",31220,"12:03:30",465141918,431447823,"5.0.14.0",1,2,"demographics","age",0,0,0,0,"60",1,4627
"118",31220,"12:03:30",465141918,431447823,"5.0.14.0",1,3,"demographics","gender",0,0,0,0,"female",1,5041
"119",31220,"12:05:30",215944051,239734667,"5.0.14.0",1,2,"demographics","age",0,0,0,0,"47",1,3886
"120",31220,"12:05:30",215944051,239734667,"5.0.14.0",1,3,"demographics","gender",0,0,0,0,"male",1,6190
"121",31220,"12:05:45",186820716,269137496,"5.0.14.0",1,2,"demographics","age",0,0,0,0,"18",1,3561
"122",31220,"12:05:45",186820716,269137496,"5.0.14.0",1,3,"demographics","gender",0,0,0,0,"female",1,5281
"123",31220,"23:07:38",507099536,948858671,"5.0.14.0",1,2,"demographics","age",0,0,0,0,"36",1,48255
"124",31220,"23:07:38",507099536,948858671,"5.0.14.0",1,3,"demographics","gender",0,0,0,0,"Female",1,11295
"125",31220,"12:09:59",862723677,343432499,"5.0.14.0",1,2,"demographics","age",0,0,0,0,"40",1,4509
"126",31220,"12:09:59",862723677,343432499,"5.0.14.0",1,3,"demographics","gender",0,0,0,0,"female",1,4277
"127",31220,"12:11:00",936533601,176684558,"5.0.14.0",1,2,"demographics","age",0,0,0,0,"52",1,3570
"128",31220,"12:11:00",936533601,176684558,"5.0.14.0",1,3,"demographics","gender",0,0,0,0,"female",1,5489
"129",31220,"12:11:20",361304937,289999943,"5.0.14.0",1,2,"demographics","age",0,0,0,0,"46",1,4025
"130",31220,"12:11:20",361304937,289999943,"5.0.14.0",1,3,"demographics","gender",0,0,0,0,"female",1,6218
"131",31220,"12:13:57",197758346,546484547,"5.0.14.0",1,2,"demographics","age",0,0,0,0,"24",1,5179
"132",31220,"12:13:57",197758346,546484547,"5.0.14.0",1,3,"demographics","gender",0,0,0,0,"Male",1,3172
"133",31220,"12:15:07",395523909,255780972,"5.0.14.0",1,2,"demographics","age",0,0,0,0,"31",1,1857
"134",31220,"12:15:07",395523909,255780972,"5.0.14.0",1,3,"demographics","gender",0,0,0,0,"female",1,2744
"135",31220,"12:15:52",247512559,288314001,"5.0.14.0",1,2,"demographics","age",0,0,0,0,"22",1,3374
"136",31220,"12:15:52",247512559,288314001,"5.0.14.0",1,3,"demographics","gender",0,0,0,0,"Female",1,4685
"137",31220,"12:17:52",524699577,199083806,"5.0.14.0",1,2,"demographics","age",0,0,0,0,"23 ",1,4658
"138",31220,"12:17:52",524699577,199083806,"5.0.14.0",1,3,"demographics","gender",0,0,0,0,"female",1,3811
"139",31220,"23:18:12",831732002,277791233,"5.0.14.0",1,2,"demographics","age",0,0,0,0,"24",1,3254
"140",31220,"23:18:12",831732002,277791233,"5.0.14.0",1,3,"demographics","gender",0,0,0,0,"Female",1,3217
"141",31220,"23:19:18",552240425,293152581,"5.0.14.0",1,2,"demographics","age",0,0,0,0,"22",1,4201
"142",31220,"23:19:18",552240425,293152581,"5.0.14.0",1,3,"demographics","gender",0,0,0,0,"female",1,9013
"143",31220,"12:21:43",988953605,272916473,"5.0.14.0",1,2,"demographics","age",0,0,0,0,"42",1,7209
"144",31220,"12:21:43",988953605,272916473,"5.0.14.0",1,3,"demographics","gender",0,0,0,0,"female",1,8092
"145",31220,"22:22:42",591803708,3787275,"5.0.14.0",1,2,"demographics","age",0,0,0,0,"41",1,5076
"146",31220,"22:22:42",591803708,3787275,"5.0.14.0",1,3,"demographics","gender",0,0,0,0,"female",1,6027
"147",31220,"12:24:47",39422972,805970026,"5.0.14.0",1,2,"demographics","age",0,0,0,0,"21",1,3207
"148",31220,"12:24:47",39422972,805970026,"5.0.14.0",1,3,"demographics","gender",0,0,0,0,"male",1,4564
"149",31220,"12:25:35",250750858,710120464,"5.0.14.0",1,2,"demographics","age",0,0,0,0,"23 ",1,5570
"150",31220,"12:25:35",250750858,710120464,"5.0.14.0",1,3,"demographics","gender",0,0,0,0,"Male",1,3891
"151",31220,"12:26:48",660419708,875406840,"5.0.14.0",1,2,"demographics","age",0,0,0,0,"34",1,3528
"152",31220,"12:26:48",660419708,875406840,"5.0.14.0",1,3,"demographics","gender",0,0,0,0,"female",1,6218
"153",31220,"12:27:15",521530715,202252663,"5.0.14.0",1,2,"demographics","age",0,0,0,0,"19",1,3320
"154",31220,"12:27:15",521530715,202252663,"5.0.14.0",1,3,"demographics","gender",0,0,0,0,"female",1,5287
"155",31220,"12:28:38",989016858,5028058,"5.0.14.0",1,2,"demographics","age",0,0,0,0,"59",1,3304
"156",31220,"12:28:38",989016858,5028058,"5.0.14.0",1,3,"demographics","gender",0,0,0,0,"Male",1,6314
"157",31220,"12:28:59",791824182,67897032,"5.0.14.0",1,2,"demographics","age",0,0,0,0,"18",1,3358
"158",31220,"12:28:59",791824182,67897032,"5.0.14.0",1,3,"demographics","gender",0,0,0,0,"Demi-Boy",1,8946
"159",31220,"12:29:55",253827087,245130951,"5.0.14.0",1,2,"demographics","age",0,0,0,0,"42",1,3226
"160",31220,"12:29:55",253827087,245130951,"5.0.14.0",1,3,"demographics","gender",0,0,0,0,"female",1,3357
"161",31220,"12:30:09",239091506,47231156,"5.0.14.0",1,2,"demographics","age",0,0,0,0,"37",1,5854
"162",31220,"12:30:09",239091506,47231156,"5.0.14.0",1,3,"demographics","gender",0,0,0,0,"male",1,4312
"163",31220,"12:32:05",928661527,184556628,"5.0.14.0",1,2,"demographics","age",0,0,0,0,"26",1,3717
"164",31220,"12:32:05",928661527,184556628,"5.0.14.0",1,3,"demographics","gender",0,0,0,0,"Male",1,3593
"165",31220,"12:32:14",474181936,672507953,"5.0.14.0",1,2,"demographics","age",0,0,0,0,"19",1,4446
"166",31220,"12:32:14",474181936,672507953,"5.0.14.0",1,3,"demographics","gender",0,0,0,0,"male",1,3480
"167",31220,"12:32:58",154237826,229241887,"5.0.14.0",1,2,"demographics","age",0,0,0,0,"30",1,6210
"168",31220,"12:32:58",154237826,229241887,"5.0.14.0",1,3,"demographics","gender",0,0,0,0,"Male",1,3459
"169",31220,"12:33:49",536925299,572597946,"5.0.14.0",1,2,"demographics","age",0,0,0,0,"63",1,3665
"170",31220,"12:33:49",536925299,572597946,"5.0.14.0",1,3,"demographics","gender",0,0,0,0,"female",1,7720
"171",31220,"12:28:26",927857480,69882356,"5.0.14.0",1,2,"demographics","age",0,0,0,0,"22",1,3992
"172",31220,"12:28:26",927857480,69882356,"5.0.14.0",1,3,"demographics","gender",0,0,0,0,"Female",1,4864
"173",31220,"08:33:36",283110612,252715946,"5.0.14.0",1,2,"demographics","age",0,0,0,0,"24",1,3225
"174",31220,"08:33:36",283110612,252715946,"5.0.14.0",1,3,"demographics","gender",0,0,0,0,"female",1,3410
"175",31220,"12:35:56",694161036,914144008,"5.0.14.0",1,2,"demographics","age",0,0,0,0,"23",1,2836
"176",31220,"12:35:56",694161036,914144008,"5.0.14.0",1,3,"demographics","gender",0,0,0,0,"female",1,5920
"177",31220,"12:36:08",203629428,794110407,"5.0.14.0",1,2,"demographics","age",0,0,0,0,"41",1,2479
"178",31220,"12:36:08",203629428,794110407,"5.0.14.0",1,3,"demographics","gender",0,0,0,0,"male",1,3168
"179",31220,"10:06:34",248533321,865579224,"5.0.14.0",1,2,"demographics","age",0,0,0,0,"39",1,4239
"180",31220,"10:06:34",248533321,865579224,"5.0.14.0",1,3,"demographics","gender",0,0,0,0,"Female",1,8062
"181",31220,"07:38:01",238880154,260077880,"5.0.14.0",1,2,"demographics","age",0,0,0,0,"22",1,3540
"182",31220,"07:38:01",238880154,260077880,"5.0.14.0",1,3,"demographics","gender",0,0,0,0,"Trans male",1,6792
"183",31220,"12:38:53",774131653,761694891,"5.0.14.0",1,2,"demographics","age",0,0,0,0,"19",1,9124
"184",31220,"12:38:53",774131653,761694891,"5.0.14.0",1,3,"demographics","gender",0,0,0,0,"male",1,4589
"185",31220,"23:39:42",592348894,669521192,"5.0.14.0",1,2,"demographics","age",0,0,0,0,"23",1,3176
"186",31220,"23:39:42",592348894,669521192,"5.0.14.0",1,3,"demographics","gender",0,0,0,0,"Male",1,4417
"187",31220,"12:39:21",511218291,810416212,"5.0.14.0",1,2,"demographics","age",0,0,0,0,"40",1,4785
"188",31220,"12:39:21",511218291,810416212,"5.0.14.0",1,3,"demographics","gender",0,0,0,0,"Female",1,7291
"189",31220,"12:39:56",59148198,549156859,"5.0.14.0",1,2,"demographics","age",0,0,0,0,"21",1,6036
"190",31220,"12:39:56",59148198,549156859,"5.0.14.0",1,3,"demographics","gender",0,0,0,0,"Male",1,3212
"191",31220,"12:40:11",728173970,880131073,"5.0.14.0",1,2,"demographics","age",0,0,0,0,"23",1,3171
"192",31220,"12:40:11",728173970,880131073,"5.0.14.0",1,3,"demographics","gender",0,0,0,0,"Female",1,3625
"193",31220,"09:40:39",859287706,253930452,"5.0.14.0",1,2,"demographics","age",0,0,0,0,"26",1,2899
"194",31220,"09:40:39",859287706,253930452,"5.0.14.0",1,3,"demographics","gender",0,0,0,0,"Female",1,6527
"195",31220,"12:40:38",174864094,670528900,"5.0.14.0",1,2,"demographics","age",0,0,0,0,"33",1,2869
"196",31220,"12:40:38",174864094,670528900,"5.0.14.0",1,3,"demographics","gender",0,0,0,0,"Female",1,4335
"197",31220,"08:40:38",248102163,866606636,"5.0.14.0",1,2,"demographics","age",0,0,0,0,"20",1,3571
"198",31220,"08:40:38",248102163,866606636,"5.0.14.0",1,3,"demographics","gender",0,0,0,0,"female",1,4091
"199",31220,"12:41:59",233021832,28848257,"5.0.14.0",1,2,"demographics","age",0,0,0,0,"18",1,3236
"200",31220,"12:41:59",233021832,28848257,"5.0.14.0",1,3,"demographics","gender",0,0,0,0,"Male",1,3353
"201",31220,"12:43:20",297165695,426617681,"5.0.14.0",1,2,"demographics","age",0,0,0,0,"37",1,13802
"202",31220,"12:43:20",297165695,426617681,"5.0.14.0",1,3,"demographics","gender",0,0,0,0,"female",1,4106
"203",31220,"12:44:11",669479088,866347456,"5.0.14.0",1,2,"demographics","age",0,0,0,0,"30",1,3487
"204",31220,"12:44:11",669479088,866347456,"5.0.14.0",1,3,"demographics","gender",0,0,0,0,"female",1,3972
"205",31220,"12:44:41",912694599,200523557,"5.0.14.0",1,2,"demographics","age",0,0,0,0,"32",1,4915
"206",31220,"12:44:41",912694599,200523557,"5.0.14.0",1,3,"demographics","gender",0,0,0,0,"male",1,3742
"207",31220,"08:45:13",165882499,485422375,"5.0.14.0",1,2,"demographics","age",0,0,0,0,"36",1,3926
"208",31220,"08:45:13",165882499,485422375,"5.0.14.0",1,3,"demographics","gender",0,0,0,0,"Male",1,3792
"209",31220,"12:45:25",99592395,283887317,"5.0.14.0",1,2,"demographics","age",0,0,0,0,"20",1,3301
"210",31220,"12:45:25",99592395,283887317,"5.0.14.0",1,3,"demographics","gender",0,0,0,0,"Female",1,5520
"211",31220,"23:46:27",725805292,268239626,"5.0.14.0",1,2,"demographics","age",0,0,0,0,"18",1,2719
"212",31220,"23:46:27",725805292,268239626,"5.0.14.0",1,3,"demographics","gender",0,0,0,0,"Female ",1,5930
"213",31220,"12:46:46",560264292,823215414,"5.0.14.0",1,2,"demographics","age",0,0,0,0,"47",1,3211
"214",31220,"12:46:46",560264292,823215414,"5.0.14.0",1,3,"demographics","gender",0,0,0,0,"Female",1,4903
"215",31220,"12:47:04",596829,145794944,"5.0.14.0",1,2,"demographics","age",0,0,0,0,"41",1,3384
"216",31220,"12:47:04",596829,145794944,"5.0.14.0",1,3,"demographics","gender",0,0,0,0,"male",1,5666
"217",31220,"22:47:32",410366256,851503826,"5.0.14.0",1,2,"demographics","age",0,0,0,0,"24",1,3867
"218",31220,"22:47:32",410366256,851503826,"5.0.14.0",1,3,"demographics","gender",0,0,0,0,"Male",1,3465
"219",31220,"12:48:53",785561582,111028156,"5.0.14.0",1,2,"demographics","age",0,0,0,0,"18",1,6730
"220",31220,"12:48:53",785561582,111028156,"5.0.14.0",1,3,"demographics","gender",0,0,0,0,"Female",1,3996
"221",31220,"12:49:18",241730650,20139443,"5.0.14.0",1,2,"demographics","age",0,0,0,0,"42",1,2599
"222",31220,"12:49:18",241730650,20139443,"5.0.14.0",1,3,"demographics","gender",0,0,0,0,"Male",1,3405
"223",31220,"12:50:25",604585730,389459195,"5.0.14.0",1,2,"demographics","age",0,0,0,0,"40",1,2769
"224",31220,"12:50:25",604585730,389459195,"5.0.14.0",1,3,"demographics","gender",0,0,0,0,"Male",1,3699
"225",31220,"12:45:59",290008682,971861402,"5.0.14.0",1,2,"demographics","age",0,0,0,0,"40",1,3290
"226",31220,"12:45:59",290008682,971861402,"5.0.14.0",1,3,"demographics","gender",0,0,0,0,"female",1,5379
"227",31220,"12:50:49",324574573,246861967,"5.0.14.0",1,2,"demographics","age",0,0,0,0,"52",1,3767
"228",31220,"12:50:49",324574573,246861967,"5.0.14.0",1,3,"demographics","gender",0,0,0,0,"male",1,3587
"229",31220,"12:50:44",520894503,588628739,"5.0.14.0",1,2,"demographics","age",0,0,0,0,"65",1,5207
"230",31220,"12:50:44",520894503,588628739,"5.0.14.0",1,3,"demographics","gender",0,0,0,0,"male",1,6296
"231",31220,"12:50:27",774773092,121816647,"5.0.14.0",1,2,"demographics","age",0,0,0,0,"56",1,3741
"232",31220,"12:50:27",774773092,121816647,"5.0.14.0",1,3,"demographics","gender",0,0,0,0,"male",1,4617
"233",31220,"12:52:02",987027712,664277148,"5.0.14.0",1,2,"demographics","age",0,0,0,0,"30",1,2867
"234",31220,"12:52:02",987027712,664277148,"5.0.14.0",1,3,"demographics","gender",0,0,0,0,"Male",1,3218
"235",31220,"12:52:29",623377956,337213874,"5.0.14.0",1,2,"demographics","age",0,0,0,0,"23",1,3170
"236",31220,"12:52:29",623377956,337213874,"5.0.14.0",1,3,"demographics","gender",0,0,0,0,"Female",1,3890
"237",31220,"12:54:31",633503531,476019712,"5.0.14.0",1,2,"demographics","age",0,0,0,0,"29",1,3049
"238",31220,"12:54:31",633503531,476019712,"5.0.14.0",1,3,"demographics","gender",0,0,0,0,"Male",1,2985
"239",31220,"12:55:39",28814071,542622464,"5.0.14.0",1,2,"demographics","age",0,0,0,0,"23",1,2712
"240",31220,"12:55:39",28814071,542622464,"5.0.14.0",1,3,"demographics","gender",0,0,0,0,"male",1,4947
"241",31220,"12:56:04",100663,571335872,"5.0.14.0",1,2,"demographics","age",0,0,0,0,"37",1,4914
"242",31220,"12:56:04",100663,571335872,"5.0.14.0",1,3,"demographics","gender",0,0,0,0,"M",1,3040
"243",31220,"12:56:26",559209348,401661972,"5.0.14.0",1,2,"demographics","age",0,0,0,0,"18",1,5688
"244",31220,"12:56:26",559209348,401661972,"5.0.14.0",1,3,"demographics","gender",0,0,0,0,"Male",1,5599
"245",31220,"20:57:07",588641966,910316058,"5.0.14.0",1,2,"demographics","age",0,0,0,0,"33",1,2271
"246",31220,"20:57:07",588641966,910316058,"5.0.14.0",1,3,"demographics","gender",0,0,0,0,"Female",1,6114
"247",31220,"12:58:31",504440195,489604722,"5.0.14.0",1,2,"demographics","age",0,0,0,0,"21",1,4739
"248",31220,"12:58:31",504440195,489604722,"5.0.14.0",1,3,"demographics","gender",0,0,0,0,"Male",1,3269
"249",31220,"12:59:25",537054948,174014356,"5.0.14.0",1,2,"demographics","age",0,0,0,0,"21",1,2077
"250",31220,"12:59:25",537054948,174014356,"5.0.14.0",1,3,"demographics","gender",0,0,0,0,"Male",1,3572
"251",31220,"13:00:28",551097756,20040654,"5.0.14.0",1,2,"demographics","age",0,0,0,0,"18",1,8278
"252",31220,"13:00:28",551097756,20040654,"5.0.14.0",1,3,"demographics","gender",0,0,0,0,"male",1,5786
"253",31220,"13:01:01",560693737,10742801,"5.0.14.0",1,2,"demographics","age",0,0,0,0,"20",1,3500
"254",31220,"13:01:01",560693737,10742801,"5.0.14.0",1,3,"demographics","gender",0,0,0,0,"Female",1,4417
"255",31220,"13:00:55",778904459,792532062,"5.0.14.0",1,2,"demographics","age",0,0,0,0,"33",1,2519
"256",31220,"13:00:55",778904459,792532062,"5.0.14.0",1,3,"demographics","gender",0,0,0,0,"Male",1,4289
"257",31220,"09:02:59",208826789,399478262,"5.0.14.0",1,2,"demographics","age",0,0,0,0,"40",1,3146
"258",31220,"09:02:59",208826789,399478262,"5.0.14.0",1,3,"demographics","gender",0,0,0,0,"M",1,2553
"259",31220,"13:03:23",234944119,148535595,"5.0.14.0",1,2,"demographics","age",0,0,0,0,"22",1,3855
"260",31220,"13:03:23",234944119,148535595,"5.0.14.0",1,3,"demographics","gender",0,0,0,0,"male",1,6563
"261",31220,"13:03:20",371472278,473920726,"5.0.14.0",1,2,"demographics","age",0,0,0,0,"37",1,6887
"262",31220,"13:03:20",371472278,473920726,"5.0.14.0",1,3,"demographics","gender",0,0,0,0,"Female",1,5401
"263",31220,"13:04:50",546910643,562612600,"5.0.14.0",1,2,"demographics","age",0,0,0,0,"29",1,2356
"264",31220,"13:04:50",546910643,562612600,"5.0.14.0",1,3,"demographics","gender",0,0,0,0,"Male",1,3325
"265",31220,"13:05:12",21203595,990864464,"5.0.14.0",1,2,"demographics","age",0,0,0,0,"20",1,5749
"266",31220,"13:05:12",21203595,990864464,"5.0.14.0",1,3,"demographics","gender",0,0,0,0,"Female",1,3507
"267",31220,"13:05:00",685950286,885486238,"5.0.14.0",1,2,"demographics","age",0,0,0,0,"19",1,5647
"268",31220,"13:05:00",685950286,885486238,"5.0.14.0",1,3,"demographics","gender",0,0,0,0,"Female",1,4921
"269",31220,"13:05:23",9563617,641741265,"5.0.14.0",1,2,"demographics","age",0,0,0,0,"28",1,9802
"270",31220,"13:05:23",9563617,641741265,"5.0.14.0",1,3,"demographics","gender",0,0,0,0,"Male",1,2992
"271",31220,"13:05:43",794742060,740767726,"5.0.14.0",1,2,"demographics","age",0,0,0,0,"27",1,3593
"272",31220,"13:05:43",794742060,740767726,"5.0.14.0",1,3,"demographics","gender",0,0,0,0,"female",1,5116
"273",31220,"09:06:48",63321511,435636528,"5.0.14.0",1,2,"demographics","age",0,0,0,0,"31",1,2784
"274",31220,"09:06:48",63321511,435636528,"5.0.14.0",1,3,"demographics","gender",0,0,0,0,"male",1,4141
"275",31220,"13:06:56",809536578,646421625,"5.0.14.0",1,2,"demographics","age",0,0,0,0,"19",1,3443
"276",31220,"13:06:56",809536578,646421625,"5.0.14.0",1,3,"demographics","gender",0,0,0,0,"Male",1,3756
"277",31220,"13:06:47",455824409,79704024,"5.0.14.0",1,2,"demographics","age",0,0,0,0,"19",1,2551
"278",31220,"13:06:47",455824409,79704024,"5.0.14.0",1,3,"demographics","gender",0,0,0,0,"Male",1,2813
"279",31220,"09:08:03",850672376,110198938,"5.0.14.0",1,2,"demographics","age",0,0,0,0,"40",1,3612
"280",31220,"09:08:03",850672376,110198938,"5.0.14.0",1,3,"demographics","gender",0,0,0,0,"M",1,2315
"281",31220,"09:07:37",929872149,569085868,"5.0.14.0",1,2,"demographics","age",0,0,0,0,"27",1,3885
"282",31220,"09:07:37",929872149,569085868,"5.0.14.0",1,3,"demographics","gender",0,0,0,0,"female",1,5431
"283",31220,"13:08:06",989292698,509665323,"5.0.14.0",1,2,"demographics","age",0,0,0,0,"30",1,3227
"284",31220,"13:08:06",989292698,509665323,"5.0.14.0",1,3,"demographics","gender",0,0,0,0,"female",1,18193
"285",31220,"13:09:57",797253397,464318556,"5.0.14.0",1,2,"demographics","age",0,0,0,0,"50",1,4274
"286",31220,"13:09:57",797253397,464318556,"5.0.14.0",1,3,"demographics","gender",0,0,0,0,"female",1,3184
"287",31220,"13:10:21",19072132,941799189,"5.0.14.0",1,2,"demographics","age",0,0,0,0,"24",1,5832
"288",31220,"13:10:21",19072132,941799189,"5.0.14.0",1,3,"demographics","gender",0,0,0,0,"Female",1,4204
"289",31320,"00:11:44",124982324,292772677,"5.0.14.0",1,2,"demographics","age",0,0,0,0,"23",1,1834
"290",31320,"00:11:44",124982324,292772677,"5.0.14.0",1,3,"demographics","gender",0,0,0,0,"Female",1,5314
"291",31220,"13:11:42",655500893,995803976,"5.0.14.0",1,2,"demographics","age",0,0,0,0,"21",1,3129
"292",31220,"13:11:42",655500893,995803976,"5.0.14.0",1,3,"demographics","gender",0,0,0,0,"Male",1,3149
"293",31220,"13:12:36",671660762,969348810,"5.0.14.0",1,2,"demographics","age",0,0,0,0,"62",1,5545
"294",31220,"13:12:36",671660762,969348810,"5.0.14.0",1,3,"demographics","gender",0,0,0,0,"Female",1,4878
"295",31220,"07:05:05",663484807,944820237,"5.0.14.0",1,2,"demographics","age",0,0,0,0,"41",1,3990
"296",31220,"07:05:05",663484807,944820237,"5.0.14.0",1,3,"demographics","gender",0,0,0,0,"female",1,6325
"297",31220,"13:17:28",926834893,532291606,"5.0.14.0",1,2,"demographics","age",0,0,0,0,"31",1,3452
"298",31220,"13:17:28",926834893,532291606,"5.0.14.0",1,3,"demographics","gender",0,0,0,0,"male",1,3242
"299",31220,"13:18:19",819495797,919297851,"5.0.14.0",1,2,"demographics","age",0,0,0,0,"27",1,4410
"300",31220,"13:18:19",819495797,919297851,"5.0.14.0",1,3,"demographics","gender",0,0,0,0,"female",1,6206
"301",31220,"13:12:16",371844876,625894970,"5.0.14.0",1,2,"demographics","age",0,0,0,0,"40",1,6026
"302",31220,"13:12:16",371844876,625894970,"5.0.14.0",1,3,"demographics","gender",0,0,0,0,"m",1,3271
"303",31220,"13:18:25",969936825,680304102,"5.0.14.0",1,2,"demographics","age",0,0,0,0,"19",1,7891
"304",31220,"13:18:25",969936825,680304102,"5.0.14.0",1,3,"demographics","gender",0,0,0,0,"Female",1,4528
"305",31220,"13:14:32",62415969,47249179,"5.0.14.0",1,2,"demographics","age",0,0,0,0,"27",1,2307
"306",31220,"13:14:32",62415969,47249179,"5.0.14.0",1,3,"demographics","gender",0,0,0,0,"Male",1,4202
"307",31220,"06:20:04",883437192,694341684,"5.0.14.0",1,2,"demographics","age",0,0,0,0,"23 ",1,4594
"308",31220,"06:20:04",883437192,694341684,"5.0.14.0",1,3,"demographics","gender",0,0,0,0,"female",1,3255
"309",31220,"13:28:31",979845013,365462619,"5.0.14.0",1,2,"demographics","age",0,0,0,0,"31",1,4471
"310",31220,"13:28:31",979845013,365462619,"5.0.14.0",1,3,"demographics","gender",0,0,0,0,"female",1,5110
"311",31320,"00:33:19",983779520,945853015,"5.0.14.0",1,2,"demographics","age",0,0,0,0,"23",1,2231
"312",31320,"00:33:19",983779520,945853015,"5.0.14.0",1,3,"demographics","gender",0,0,0,0,"Male",1,3561
"313",31220,"13:39:35",685728185,338235231,"5.0.14.0",1,2,"demographics","age",0,0,0,0,"30",1,5132
"314",31220,"13:39:35",685728185,338235231,"5.0.14.0",1,3,"demographics","gender",0,0,0,0,"Male",1,8042
"315",31220,"09:02:56",358377851,721802662,"5.0.14.0",1,2,"demographics","age",0,0,0,0,"18",1,3136
"316",31220,"09:02:56",358377851,721802662,"5.0.14.0",1,3,"demographics","gender",0,0,0,0,"Male",1,3297
"317",31220,"10:03:49",851715438,748425390,"5.0.14.0",1,2,"demographics","age",0,0,0,0,"29",1,2700
"318",31220,"10:03:49",851715438,748425390,"5.0.14.0",1,3,"demographics","gender",0,0,0,0,"Male",1,2677
"319",31220,"08:04:24",194077697,788724516,"5.0.14.0",1,2,"demographics","age",0,0,0,0,"34",1,2042
"320",31220,"08:04:24",194077697,788724516,"5.0.14.0",1,3,"demographics","gender",0,0,0,0,"female",1,2143
"321",31220,"10:04:14",693244823,258655095,"5.0.14.0",1,2,"demographics","age",0,0,0,0,"32",1,3088
"322",31220,"10:04:14",693244823,258655095,"5.0.14.0",1,3,"demographics","gender",0,0,0,0,"Female",1,8488
"323",31220,"10:04:21",768189167,703381778,"5.0.14.0",1,2,"demographics","age",0,0,0,0,"25",1,10047
"324",31220,"10:04:21",768189167,703381778,"5.0.14.0",1,3,"demographics","gender",0,0,0,0,"Male",1,5505
"325",31220,"09:05:17",573286796,344644255,"5.0.14.0",1,2,"demographics","age",0,0,0,0,"41",1,3898
"326",31220,"09:05:17",573286796,344644255,"5.0.14.0",1,3,"demographics","gender",0,0,0,0,"Male",1,3885
"327",31220,"14:05:07",680065690,192142433,"5.0.14.0",1,2,"demographics","age",0,0,0,0,"18",1,2199
"328",31220,"14:05:07",680065690,192142433,"5.0.14.0",1,3,"demographics","gender",0,0,0,0,"female",1,2091
"329",31220,"10:06:10",424477223,547417296,"5.0.14.0",1,2,"demographics","age",0,0,0,0,"26",1,4940
"330",31220,"10:06:10",424477223,547417296,"5.0.14.0",1,3,"demographics","gender",0,0,0,0,"male",1,3861
"331",31220,"14:06:06",290445095,252220453,"5.0.14.0",1,2,"demographics","age",0,0,0,0,"19",1,2798
"332",31220,"14:06:06",290445095,252220453,"5.0.14.0",1,3,"demographics","gender",0,0,0,0,"female ",1,5714
"333",31220,"08:07:04",6003695,509858806,"5.0.14.0",1,2,"demographics","age",0,0,0,0,"34",1,2956
"334",31220,"08:07:04",6003695,509858806,"5.0.14.0",1,3,"demographics","gender",0,0,0,0,"female",1,3415
"335",31220,"14:07:03",553264421,375092257,"5.0.14.0",1,2,"demographics","age",0,0,0,0,"22",1,3395
"336",31220,"14:07:03",553264421,375092257,"5.0.14.0",1,3,"demographics","gender",0,0,0,0,"Male",1,7023
"337",31220,"10:08:08",542046270,513865277,"5.0.14.0",1,2,"demographics","age",0,0,0,0,"27",1,3651
"338",31220,"10:08:08",542046270,513865277,"5.0.14.0",1,3,"demographics","gender",0,0,0,0,"Male",1,5249
"339",31220,"14:06:29",214759686,568623636,"5.0.14.0",1,2,"demographics","age",0,0,0,0,"20",1,8872
"340",31220,"14:06:29",214759686,568623636,"5.0.14.0",1,3,"demographics","gender",0,0,0,0,"female",1,3615
"341",31220,"14:08:33",464277185,250817874,"5.0.14.0",1,2,"demographics","age",0,0,0,0,"23",1,6319
"342",31220,"14:08:33",464277185,250817874,"5.0.14.0",1,3,"demographics","gender",0,0,0,0,"Male",1,6489
"343",31220,"07:09:21",985276973,209866580,"5.0.14.0",1,2,"demographics","age",0,0,0,0,"37",1,4690
"344",31220,"07:09:21",985276973,209866580,"5.0.14.0",1,3,"demographics","gender",0,0,0,0,"female",1,3616
"345",31220,"14:11:56",107533937,613446601,"5.0.14.0",1,2,"demographics","age",0,0,0,0,"39",1,3909
"346",31220,"14:11:56",107533937,613446601,"5.0.14.0",1,3,"demographics","gender",0,0,0,0,"Female",1,5303
"347",31220,"14:11:34",240610899,822995105,"5.0.14.0",1,2,"demographics","age",0,0,0,0,"19",1,3892
"348",31220,"14:11:34",240610899,822995105,"5.0.14.0",1,3,"demographics","gender",0,0,0,0,"female",1,3240
"349",31220,"08:13:37",972499827,514045724,"5.0.14.0",1,2,"demographics","age",0,0,0,0,"31",1,3601
"350",31220,"08:13:37",972499827,514045724,"5.0.14.0",1,3,"demographics","gender",0,0,0,0,"F",1,3086
"351",31220,"14:14:17",103354129,717378504,"5.0.14.0",1,2,"demographics","age",0,0,0,0,"33",1,3761
"352",31220,"14:14:17",103354129,717378504,"5.0.14.0",1,3,"demographics","gender",0,0,0,0,"female",1,4431
"353",31220,"07:05:58",960614438,422291990,"5.0.14.0",1,2,"demographics","age",0,0,0,0,"37",1,4114
"354",31220,"07:05:58",960614438,422291990,"5.0.14.0",1,3,"demographics","gender",0,0,0,0,"male",1,5422
"355",31220,"10:17:06",971706314,83326126,"5.0.14.0",1,2,"demographics","age",0,0,0,0,"38",1,4199
"356",31220,"10:17:06",971706314,83326126,"5.0.14.0",1,3,"demographics","gender",0,0,0,0,"female",1,5123
"357",31220,"09:16:56",331917110,373858935,"5.0.14.0",1,2,"demographics","age",0,0,0,0,"64",1,3225
"358",31220,"09:16:56",331917110,373858935,"5.0.14.0",1,3,"demographics","gender",0,0,0,0,"male",1,5376
"359",31220,"10:17:41",743079763,853805174,"5.0.14.0",1,2,"demographics","age",0,0,0,0,"27",1,3199
"360",31220,"10:17:41",743079763,853805174,"5.0.14.0",1,3,"demographics","gender",0,0,0,0,"Female",1,2730
"361",31220,"14:20:44",404369571,999285162,"5.0.14.0",1,2,"demographics","age",0,0,0,0,"20 ",1,4643
"362",31220,"14:20:44",404369571,999285162,"5.0.14.0",1,3,"demographics","gender",0,0,0,0,"Female",1,5643
"363",31220,"10:25:02",245663721,991318122,"5.0.14.0",1,2,"demographics","age",0,0,0,0,"29",1,7956
"364",31220,"10:25:02",245663721,991318122,"5.0.14.0",1,3,"demographics","gender",0,0,0,0,"male",1,4464
"365",31220,"14:28:39",700400010,909306956,"5.0.14.0",1,2,"demographics","age",0,0,0,0,"19",1,4132
"366",31220,"14:28:39",700400010,909306956,"5.0.14.0",1,3,"demographics","gender",0,0,0,0,"female",1,4609
"367",31220,"14:31:01",840282806,644511096,"5.0.14.0",1,2,"demographics","age",0,0,0,0,"33",1,3153
"368",31220,"14:31:01",840282806,644511096,"5.0.14.0",1,3,"demographics","gender",0,0,0,0,"Female",1,5972
"369",31220,"15:15:50",969735147,347984914,"5.0.14.0",1,2,"demographics","age",0,0,0,0,"19",1,3840
"370",31220,"15:15:50",969735147,347984914,"5.0.14.0",1,3,"demographics","gender",0,0,0,0,"male",1,2943
"371",31220,"15:21:28",934361226,396174257,"5.0.14.0",1,2,"demographics","age",0,0,0,0,"30",1,4939
"372",31220,"15:21:28",934361226,396174257,"5.0.14.0",1,3,"demographics","gender",0,0,0,0,"female",1,4686
