"date","time","group","subject","build","blocknum","trialnum","blockcode","trialcode","pretrialpause","posttrialpause","trialduration","trialtimeout","response","correct","latency"
"031220","10:50:29","674273113","323764856","5.0.14.0","1","1","demographics","ProlificCode","0","0","0","0","test","1","1916"
"031220","10:50:29","674273113","323764856","5.0.14.0","1","2","demographics","age","0","0","0","0","test","1","1880"
"031220","10:50:29","674273113","323764856","5.0.14.0","1","3","demographics","gender","0","0","0","0","test","1","1562"
"031220","20:40:36","397019712","211285344","5.0.14.0","1","1","demographics","ProlificCode","0","0","0","0","5d4379a3397a63001cf3c2e1","1","16973"
"031220","20:40:36","397019712","211285344","5.0.14.0","1","2","demographics","age","0","0","0","0","21","1","3997"
"031220","20:40:36","397019712","211285344","5.0.14.0","1","3","demographics","gender","0","0","0","0","Female","1","6217"
"031220","05:56:51","466998427","141306629","5.0.14.0","1","1","demographics","ProlificCode","0","0","0","0","5aa69293f6dfdd0001eb03ec","1","18000"
"031220","05:56:51","466998427","141306629","5.0.14.0","1","2","demographics","age","0","0","0","0","27","1","3923"
"031220","05:56:51","466998427","141306629","5.0.14.0","1","3","demographics","gender","0","0","0","0","Male","1","5396"
"031220","11:01:57","893264849","100780069","5.0.14.0","1","1","demographics","ProlificCode","0","0","0","0","5e2ca052a11f1b000bc89f2c","1","15384"
"031220","11:01:57","893264849","100780069","5.0.14.0","1","2","demographics","age","0","0","0","0","20","1","5393"
"031220","11:01:57","893264849","100780069","5.0.14.0","1","3","demographics","gender","0","0","0","0","female","1","6335"
"031220","11:06:20","338848354","807543404","5.0.14.0","1","1","demographics","ProlificCode","0","0","0","0","5d87bae4810e200001b","1","36610"
"031220","11:06:20","338848354","807543404","5.0.14.0","1","2","demographics","age","0","0","0","0","20","1","2530"
"031220","11:06:20","338848354","807543404","5.0.14.0","1","3","demographics","gender","0","0","0","0","female","1","3659"
"031220","11:07:08","762006999","235732843","5.0.14.0","1","1","demographics","ProlificCode","0","0","0","0","5c50b567cc71f4000125c4f6","1","6418"
"031220","11:07:08","762006999","235732843","5.0.14.0","1","2","demographics","age","0","0","0","0","20","1","2948"
"031220","11:07:08","762006999","235732843","5.0.14.0","1","3","demographics","gender","0","0","0","0","Female","1","4047"
"031320","00:14:14","695712572","450679190","5.0.14.0","1","1","demographics","ProlificCode","0","0","0","0","5e5cfdd0c35be9000dc75572","1","12107"
"031320","00:14:14","695712572","450679190","5.0.14.0","1","2","demographics","age","0","0","0","0","20","1","3648"
"031320","00:14:14","695712572","450679190","5.0.14.0","1","3","demographics","gender","0","0","0","0","male","1","3076"
"031220","11:16:40","783847703","939935663","5.0.14.0","1","1","demographics","ProlificCode","0","0","0","0","5e4e958858fb732cf37d17ec","1","13149"
"031220","11:16:40","783847703","939935663","5.0.14.0","1","2","demographics","age","0","0","0","0","22","1","4006"
"031220","11:16:40","783847703","939935663","5.0.14.0","1","3","demographics","gender","0","0","0","0","female","1","4005"
"031320","00:16:54","933229974","27324586","5.0.14.0","1","1","demographics","ProlificCode","0","0","0","0","5c73b0a0f11dda0001ff62cb","1","8797"
"031320","00:16:54","933229974","27324586","5.0.14.0","1","2","demographics","age","0","0","0","0","23","1","9903"
"031320","00:16:54","933229974","27324586","5.0.14.0","1","3","demographics","gender","0","0","0","0","female","1","11015"
"031220","21:16:06","653759725","307111597","5.0.14.0","1","1","demographics","ProlificCode","0","0","0","0","86F464AB","1","150557"
"031220","21:16:06","653759725","307111597","5.0.14.0","1","2","demographics","age","0","0","0","0","63","1","9054"
"031220","21:16:06","653759725","307111597","5.0.14.0","1","3","demographics","gender","0","0","0","0","Male","1","8425"
"031220","11:20:57","4833775","566602761","5.0.14.0","1","1","demographics","ProlificCode","0","0","0","0","5cd6c64fe48507001a748169","1","9847"
"031220","11:20:57","4833775","566602761","5.0.14.0","1","2","demographics","age","0","0","0","0","16","1","5037"
"031220","11:20:57","4833775","566602761","5.0.14.0","1","3","demographics","gender","0","0","0","0","female","1","5260"
"031220","11:21:37","77904369","919835473","5.0.14.0","1","1","demographics","ProlificCode","0","0","0","0","5d06bdc512987c00016","1","41047"
"031220","11:21:37","77904369","919835473","5.0.14.0","1","2","demographics","age","0","0","0","0","29","1","6749"
"031220","11:21:37","77904369","919835473","5.0.14.0","1","3","demographics","gender","0","0","0","0","male","1","2522"
"031220","11:23:01","584997702","798482002","5.0.14.0","1","1","demographics","ProlificCode","0","0","0","0","","1","11227"
"031220","11:27:07","460324932","190700451","5.0.14.0","1","1","demographics","ProlificCode","0","0","0","0","5e564d373ef4a201e44e65c7","1","14736"
"031220","11:27:07","460324932","190700451","5.0.14.0","1","2","demographics","age","0","0","0","0","22","1","2217"
"031220","11:27:07","460324932","190700451","5.0.14.0","1","3","demographics","gender","0","0","0","0","Female","1","4383"
"031220","11:28:13","473540343","371852658","5.0.14.0","1","1","demographics","ProlificCode","0","0","0","0","5ce6c8f448eadf00197c3748","1","13990"
"031220","11:28:13","473540343","371852658","5.0.14.0","1","2","demographics","age","0","0","0","0","21","1","2612"
"031220","11:28:13","473540343","371852658","5.0.14.0","1","3","demographics","gender","0","0","0","0"," Female","1","8047"
"031220","11:29:57","236642377","359842980","5.0.14.0","1","1","demographics","ProlificCode","0","0","0","0","5e346dedaf532102529ce9da","1","5611"
"031220","11:29:57","236642377","359842980","5.0.14.0","1","2","demographics","age","0","0","0","0","18 ","1","7020"
"031220","11:29:57","236642377","359842980","5.0.14.0","1","3","demographics","gender","0","0","0","0","Female","1","6222"
"031220","06:34:23","722474745","851030038","5.0.14.0","1","1","demographics","ProlificCode","0","0","0","0","5e5723e3e870140db0bdf95e","1","6256"
"031220","06:34:23","722474745","851030038","5.0.14.0","1","2","demographics","age","0","0","0","0","41","1","7069"
"031220","06:34:23","722474745","851030038","5.0.14.0","1","3","demographics","gender","0","0","0","0","female","1","12634"
"031220","11:36:02","298914255","962955820","5.0.14.0","1","1","demographics","ProlificCode","0","0","0","0","5e52e7ffd2273a000a838bef ","1","14648"
"031220","11:36:02","298914255","962955820","5.0.14.0","1","2","demographics","age","0","0","0","0","20","1","3868"
"031220","11:36:02","298914255","962955820","5.0.14.0","1","3","demographics","gender","0","0","0","0","male","1","3508"
"031220","11:34:48","985910839","275959242","5.0.14.0","1","1","demographics","ProlificCode","0","0","0","0","5d5320870c2a6a0001cc6c7a","1","15758"
"031220","11:34:48","985910839","275959242","5.0.14.0","1","2","demographics","age","0","0","0","0","45","1","3275"
"031220","11:34:48","985910839","275959242","5.0.14.0","1","3","demographics","gender","0","0","0","0","female","1","5286"
"031220","11:37:17","564773130","934184894","5.0.14.0","1","1","demographics","ProlificCode","0","0","0","0","5e6a06facd471a0009ef70a1","1","42031"
"031220","11:37:17","564773130","934184894","5.0.14.0","1","2","demographics","age","0","0","0","0","36","1","13293"
"031220","11:37:17","564773130","934184894","5.0.14.0","1","3","demographics","gender","0","0","0","0","Female","1","5283"
"031220","11:37:36","210909388","783135526","5.0.14.0","1","1","demographics","ProlificCode","0","0","0","0","5e42a6f012145b000abd2b14","1","28986"
"031220","11:37:36","210909388","783135526","5.0.14.0","1","2","demographics","age","0","0","0","0","46","1","5815"
"031220","11:37:36","210909388","783135526","5.0.14.0","1","3","demographics","gender","0","0","0","0","Female","1","6377"
"031220","11:38:52","773995000","681665074","5.0.14.0","1","1","demographics","ProlificCode","0","0","0","0","5e4250d9fb96eb0def6db974","1","7193"
"031220","11:38:52","773995000","681665074","5.0.14.0","1","2","demographics","age","0","0","0","0","29","1","4416"
"031220","11:38:52","773995000","681665074","5.0.14.0","1","3","demographics","gender","0","0","0","0","female","1","8219"
"031220","08:39:23","187565178","657827818","5.0.14.0","1","1","demographics","ProlificCode","0","0","0","0","5e59231c14a6a41332efb648","1","5694"
"031220","08:39:23","187565178","657827818","5.0.14.0","1","2","demographics","age","0","0","0","0","41","1","4089"
"031220","08:39:23","187565178","657827818","5.0.14.0","1","3","demographics","gender","0","0","0","0","male","1","4508"
"031220","22:42:06","470683520","930819324","5.0.14.0","1","1","demographics","ProlificCode","0","0","0","0","5e4de07e70e1ed238b93f1e2","1","21498"
"031220","22:42:06","470683520","930819324","5.0.14.0","1","2","demographics","age","0","0","0","0","29 ","1","5417"
"031220","22:42:06","470683520","930819324","5.0.14.0","1","3","demographics","gender","0","0","0","0","Male","1","2867"
"031220","11:42:35","971202821","529245839","5.0.14.0","1","1","demographics","ProlificCode","0","0","0","0","5e5024d8b0c66e06d4d4c5d8","1","14481"
"031220","11:42:35","971202821","529245839","5.0.14.0","1","2","demographics","age","0","0","0","0","34","1","3433"
"031220","11:42:35","971202821","529245839","5.0.14.0","1","3","demographics","gender","0","0","0","0","Female","1","3907"
"031220","11:43:21","420394703","476195033","5.0.14.0","1","1","demographics","ProlificCode","0","0","0","0","5e5e6ff9af84e81894d9f5c4","1","32458"
"031220","11:43:21","420394703","476195033","5.0.14.0","1","2","demographics","age","0","0","0","0","23","1","2047"
"031220","11:43:21","420394703","476195033","5.0.14.0","1","3","demographics","gender","0","0","0","0","Female","1","12756"
"031220","19:44:20","324900586","784622650","5.0.14.0","1","1","demographics","ProlificCode","0","0","0","0","5c80eb25642a90015485aca ","1","8158"
"031220","19:44:20","324900586","784622650","5.0.14.0","1","2","demographics","age","0","0","0","0","31","1","3392"
"031220","19:44:20","324900586","784622650","5.0.14.0","1","3","demographics","gender","0","0","0","0","F","1","1863"
"031220","11:44:02","368564718","893305361","5.0.14.0","1","1","demographics","ProlificCode","0","0","0","0","5e5cc815dafd984912002c50 ","1","62567"
"031220","11:44:02","368564718","893305361","5.0.14.0","1","2","demographics","age","0","0","0","0","35","1","2955"
"031220","11:44:02","368564718","893305361","5.0.14.0","1","3","demographics","gender","0","0","0","0","Male","1","2732"
"031220","11:42:13","323026927","823364830","5.0.14.0","1","1","demographics","ProlificCode","0","0","0","0","5e5e7e81381c27000b1e9cba","1","149958"
"031220","11:42:13","323026927","823364830","5.0.14.0","1","2","demographics","age","0","0","0","0","31","1","2391"
"031220","11:42:13","323026927","823364830","5.0.14.0","1","3","demographics","gender","0","0","0","0","Female","1","3518"
"031220","11:45:24","609538363","889419662","5.0.14.0","1","1","demographics","ProlificCode","0","0","0","0","5d89f1122cbec60001e97975","1","8119"
"031220","11:45:24","609538363","889419662","5.0.14.0","1","2","demographics","age","0","0","0","0","38","1","4278"
"031220","11:45:24","609538363","889419662","5.0.14.0","1","3","demographics","gender","0","0","0","0","male","1","2812"
"031220","11:45:46","98360176","14857997","5.0.14.0","1","1","demographics","ProlificCode","0","0","0","0","5e5ea651325e2f000d15bbe1","1","30504"
"031220","11:45:46","98360176","14857997","5.0.14.0","1","2","demographics","age","0","0","0","0","20","1","4768"
"031220","11:45:46","98360176","14857997","5.0.14.0","1","3","demographics","gender","0","0","0","0","Male","1","3239"
"031220","11:45:05","422902133","228402747","5.0.14.0","1","1","demographics","ProlificCode","0","0","0","0","5d94bdb7b3b07f00181eae13","1","78413"
"031220","11:45:05","422902133","228402747","5.0.14.0","1","2","demographics","age","0","0","0","0","29","1","4862"
"031220","11:45:05","422902133","228402747","5.0.14.0","1","3","demographics","gender","0","0","0","0","Female","1","3301"
"031220","22:47:22","905801122","55070196","5.0.14.0","1","1","demographics","ProlificCode","0","0","0","0","5db939e4b4c5e7000ebf9e2","1","80866"
"031220","22:47:22","905801122","55070196","5.0.14.0","1","2","demographics","age","0","0","0","0","21","1","3298"
"031220","22:47:22","905801122","55070196","5.0.14.0","1","3","demographics","gender","0","0","0","0","Female","1","8216"
"031220","11:45:06","439963577","15994639","5.0.14.0","1","1","demographics","ProlificCode","0","0","0","0","","1","207576"
"031220","11:49:02","804774024","40339482","5.0.14.0","1","1","demographics","ProlificCode","0","0","0","0","5d70443e6f0a380017545335","1","5255"
"031220","11:49:02","804774024","40339482","5.0.14.0","1","2","demographics","age","0","0","0","0","35","1","3286"
"031220","11:49:02","804774024","40339482","5.0.14.0","1","3","demographics","gender","0","0","0","0","Female","1","4285"
"031220","19:49:49","41365480","804027520","5.0.14.0","1","1","demographics","ProlificCode","0","0","0","0","5e43636343f0052014fd69b1","1","14509"
"031220","19:49:49","41365480","804027520","5.0.14.0","1","2","demographics","age","0","0","0","0","29","1","2520"
"031220","19:49:49","41365480","804027520","5.0.14.0","1","3","demographics","gender","0","0","0","0","Female","1","3422"
"031220","11:50:04","216670384","239287828","5.0.14.0","1","1","demographics","ProlificCode","0","0","0","0","5e57a93712530a1532ce692a","1","14127"
"031220","11:50:04","216670384","239287828","5.0.14.0","1","2","demographics","age","0","0","0","0","24","1","5672"
"031220","11:50:04","216670384","239287828","5.0.14.0","1","3","demographics","gender","0","0","0","0","male","1","6705"
"031220","11:50:37","596612601","127170777","5.0.14.0","1","1","demographics","ProlificCode","0","0","0","0","5b7c4d7d8c721a00015d2bea","1","7564"
"031220","11:50:37","596612601","127170777","5.0.14.0","1","2","demographics","age","0","0","0","0","60","1","4677"
"031220","11:50:37","596612601","127170777","5.0.14.0","1","3","demographics","gender","0","0","0","0","male","1","5703"
"031220","11:50:33","22294443","87508304","5.0.14.0","1","1","demographics","ProlificCode","0","0","0","0","5df7eb98dc265f5903cd64b0","1","4682"
"031220","11:50:33","22294443","87508304","5.0.14.0","1","2","demographics","age","0","0","0","0","29","1","7972"
"031220","11:50:33","22294443","87508304","5.0.14.0","1","3","demographics","gender","0","0","0","0","female","1","3947"
"031220","22:52:16","561316969","399554352","5.0.14.0","1","1","demographics","ProlificCode","0","0","0","0","5e54fb0fe6f1364ec4dad720","1","12949"
"031220","22:52:16","561316969","399554352","5.0.14.0","1","2","demographics","age","0","0","0","0","24","1","2828"
"031220","22:52:16","561316969","399554352","5.0.14.0","1","3","demographics","gender","0","0","0","0","Male","1","5564"
"031220","11:52:26","822685828","713140717","5.0.14.0","1","1","demographics","ProlificCode","0","0","0","0","5e4accc111fc52000b175643","1","17862"
"031220","11:52:26","822685828","713140717","5.0.14.0","1","2","demographics","age","0","0","0","0","33","1","3298"
"031220","11:52:26","822685828","713140717","5.0.14.0","1","3","demographics","gender","0","0","0","0","Male","1","5081"
"031220","11:53:02","391440383","144386175","5.0.14.0","1","1","demographics","ProlificCode","0","0","0","0","5e547bea075473480c90b952","1","8919"
"031220","11:53:02","391440383","144386175","5.0.14.0","1","2","demographics","age","0","0","0","0","47","1","3405"
"031220","11:53:02","391440383","144386175","5.0.14.0","1","3","demographics","gender","0","0","0","0","male","1","4116"
"031220","07:53:21","764670887","806765634","5.0.14.0","1","1","demographics","ProlificCode","0","0","0","0","5e5a65b1909ae524ee939e2e","1","10961"
"031220","07:53:21","764670887","806765634","5.0.14.0","1","2","demographics","age","0","0","0","0","49","1","5265"
"031220","07:53:21","764670887","806765634","5.0.14.0","1","3","demographics","gender","0","0","0","0","Female","1","8128"
"031220","11:53:35","838613395","155431522","5.0.14.0","1","1","demographics","ProlificCode","0","0","0","0","5978913b7fd7530001343ec3","1","13367"
"031220","11:53:35","838613395","155431522","5.0.14.0","1","2","demographics","age","0","0","0","0","27","1","3816"
"031220","11:53:35","838613395","155431522","5.0.14.0","1","3","demographics","gender","0","0","0","0","Female","1","6168"
"031220","11:54:45","670972555","712507149","5.0.14.0","1","1","demographics","ProlificCode","0","0","0","0","5e67962ae1b72a03666db648","1","8007"
"031220","11:54:45","670972555","712507149","5.0.14.0","1","2","demographics","age","0","0","0","0","23","1","2853"
"031220","11:54:45","670972555","712507149","5.0.14.0","1","3","demographics","gender","0","0","0","0","Female","1","3303"
"031220","11:54:56","118891969","416617829","5.0.14.0","1","1","demographics","ProlificCode","0","0","0","0","5d8131d341253e001c43e0c0","1","8962"
"031220","11:54:56","118891969","416617829","5.0.14.0","1","2","demographics","age","0","0","0","0","51","1","7761"
"031220","11:54:56","118891969","416617829","5.0.14.0","1","3","demographics","gender","0","0","0","0","Male","1","5827"
"031220","11:55:23","970607452","680697412","5.0.14.0","1","1","demographics","ProlificCode","0","0","0","0","   ","1","74679"
"031220","11:56:58","492794959","501249961","5.0.14.0","1","1","demographics","ProlificCode","0","0","0","0","5e57bd898fc59d168d1","1","31663"
"031220","11:56:58","492794959","501249961","5.0.14.0","1","2","demographics","age","0","0","0","0","20","1","2311"
"031220","11:56:58","492794959","501249961","5.0.14.0","1","3","demographics","gender","0","0","0","0","Female","1","3347"
"031220","11:57:17","165603955","235898901","5.0.14.0","1","1","demographics","ProlificCode","0","0","0","0","5b95259ac8cfeb0001445813","1","14857"
"031220","11:57:17","165603955","235898901","5.0.14.0","1","2","demographics","age","0","0","0","0","19","1","2896"
"031220","11:57:17","165603955","235898901","5.0.14.0","1","3","demographics","gender","0","0","0","0","Female","1","4120"
"031220","11:58:05","991356359","155035399","5.0.14.0","1","1","demographics","ProlificCode","0","0","0","0","5e5ba023cd2043374adbf9a1","1","14432"
"031220","11:58:05","991356359","155035399","5.0.14.0","1","2","demographics","age","0","0","0","0","30","1","3308"
"031220","11:58:05","991356359","155035399","5.0.14.0","1","3","demographics","gender","0","0","0","0","Female","1","5209"
"031220","11:58:33","1548609","144843164","5.0.14.0","1","1","demographics","ProlificCode","0","0","0","0","5e5eb4149ad3de1ea79c3b68","1","4130"
"031220","11:58:33","1548609","144843164","5.0.14.0","1","2","demographics","age","0","0","0","0","22","1","2740"
"031220","11:58:33","1548609","144843164","5.0.14.0","1","3","demographics","gender","0","0","0","0","Female","1","4009"
"031220","11:58:27","917779840","191743394","5.0.14.0","1","1","demographics","ProlificCode","0","0","0","0","5d9680193314d00014c9df01","1","25744"
"031220","11:58:27","917779840","191743394","5.0.14.0","1","2","demographics","age","0","0","0","0","22","1","3379"
"031220","11:58:27","917779840","191743394","5.0.14.0","1","3","demographics","gender","0","0","0","0","Female","1","6312"
"031220","11:58:57","276570987","222387048","5.0.14.0","1","1","demographics","ProlificCode","0","0","0","0","5d68eed19a224c0017c5ae0f","1","9514"
"031220","11:58:57","276570987","222387048","5.0.14.0","1","2","demographics","age","0","0","0","0","19","1","4118"
"031220","11:58:57","276570987","222387048","5.0.14.0","1","3","demographics","gender","0","0","0","0","Male","1","2277"
"031220","11:58:22","517017822","477027098","5.0.14.0","1","1","demographics","ProlificCode","0","0","0","0","5c8ba877cb9c4400174f","1","60682"
"031220","11:58:22","517017822","477027098","5.0.14.0","1","2","demographics","age","0","0","0","0","20","1","2559"
"031220","11:58:22","517017822","477027098","5.0.14.0","1","3","demographics","gender","0","0","0","0","female","1","2891"
"031220","11:59:17","122159831","24231941","5.0.14.0","1","1","demographics","ProlificCode","0","0","0","0","5e677a1358d31c000aa94c29","1","16857"
"031220","11:59:17","122159831","24231941","5.0.14.0","1","2","demographics","age","0","0","0","0","24","1","3664"
"031220","11:59:17","122159831","24231941","5.0.14.0","1","3","demographics","gender","0","0","0","0","Male","1","4330"
"031220","12:00:02","325747893","172893383","5.0.14.0","1","1","demographics","ProlificCode","0","0","0","0","5bbcbe26f01eba00016cc592","1","6454"
"031220","12:00:02","325747893","172893383","5.0.14.0","1","2","demographics","age","0","0","0","0","23","1","6557"
"031220","12:00:02","325747893","172893383","5.0.14.0","1","3","demographics","gender","0","0","0","0","female","1","6096"
"031220","12:02:36","240528571","258429468","5.0.14.0","1","1","demographics","ProlificCode","0","0","0","0","5e516283779c71000b8e4493","1","19428"
"031220","12:02:36","240528571","258429468","5.0.14.0","1","2","demographics","age","0","0","0","0","56","1","2799"
"031220","12:02:36","240528571","258429468","5.0.14.0","1","3","demographics","gender","0","0","0","0","female","1","3921"
"031220","12:03:16","899448239","210074995","5.0.14.0","1","1","demographics","ProlificCode","0","0","0","0","5e4de4cd35eda3248d147679","1","23073"
"031220","12:03:16","899448239","210074995","5.0.14.0","1","2","demographics","age","0","0","0","0","27","1","4430"
"031220","12:03:16","899448239","210074995","5.0.14.0","1","3","demographics","gender","0","0","0","0","Female","1","3366"
"031220","12:03:11","345505434","110452783","5.0.14.0","1","1","demographics","ProlificCode","0","0","0","0","5e51685231127d19ff51565c","1","25044"
"031220","12:03:11","345505434","110452783","5.0.14.0","1","2","demographics","age","0","0","0","0","19 ","1","4295"
"031220","12:03:11","345505434","110452783","5.0.14.0","1","3","demographics","gender","0","0","0","0","female","1","5310"
"031220","12:03:39","593951010","515572234","5.0.14.0","1","1","demographics","ProlificCode","0","0","0","0","5e52e7ffd2273a000a838bef","1","12446"
"031220","12:03:39","593951010","515572234","5.0.14.0","1","2","demographics","age","0","0","0","0","20","1","2692"
"031220","12:03:39","593951010","515572234","5.0.14.0","1","3","demographics","gender","0","0","0","0","male","1","2005"
"031220","12:03:35","285816625","463015576","5.0.14.0","1","1","demographics","ProlificCode","0","0","0","0","5d8b37a1f37dce0019341e39 ","1","5740"
"031220","12:03:35","285816625","463015576","5.0.14.0","1","2","demographics","age","0","0","0","0","22","1","2275"
"031220","12:03:35","285816625","463015576","5.0.14.0","1","3","demographics","gender","0","0","0","0","Female","1","3643"
"031220","12:03:30","465141918","431447823","5.0.14.0","1","1","demographics","ProlificCode","0","0","0","0","5e5a10ea43f33020b7e","1","62297"
"031220","12:03:30","465141918","431447823","5.0.14.0","1","2","demographics","age","0","0","0","0","60","1","4627"
"031220","12:03:30","465141918","431447823","5.0.14.0","1","3","demographics","gender","0","0","0","0","female","1","5041"
"031220","12:05:30","215944051","239734667","5.0.14.0","1","1","demographics","ProlificCode","0","0","0","0","5e53b07f83c96c3ad4f34751","1","10254"
"031220","12:05:30","215944051","239734667","5.0.14.0","1","2","demographics","age","0","0","0","0","47","1","3886"
"031220","12:05:30","215944051","239734667","5.0.14.0","1","3","demographics","gender","0","0","0","0","male","1","6190"
"031220","12:05:45","186820716","269137496","5.0.14.0","1","1","demographics","ProlificCode","0","0","0","0","5e664e41c8c140000aff922b","1","76986"
"031220","12:05:45","186820716","269137496","5.0.14.0","1","2","demographics","age","0","0","0","0","18","1","3561"
"031220","12:05:45","186820716","269137496","5.0.14.0","1","3","demographics","gender","0","0","0","0","female","1","5281"
"031220","23:07:38","507099536","948858671","5.0.14.0","1","1","demographics","ProlificCode","0","0","0","0","5e6575634659d02fb3a1533a","1","27040"
"031220","23:07:38","507099536","948858671","5.0.14.0","1","2","demographics","age","0","0","0","0","36","1","48255"
"031220","23:07:38","507099536","948858671","5.0.14.0","1","3","demographics","gender","0","0","0","0","Female","1","11295"
"031220","12:09:59","862723677","343432499","5.0.14.0","1","1","demographics","ProlificCode","0","0","0","0","5d6a24c4f186b3001ae5dfeb","1","6132"
"031220","12:09:59","862723677","343432499","5.0.14.0","1","2","demographics","age","0","0","0","0","40","1","4509"
"031220","12:09:59","862723677","343432499","5.0.14.0","1","3","demographics","gender","0","0","0","0","female","1","4277"
"031220","12:11:00","936533601","176684558","5.0.14.0","1","1","demographics","ProlificCode","0","0","0","0","5e529e9ad9a7ea2ab55835f2","1","7968"
"031220","12:11:00","936533601","176684558","5.0.14.0","1","2","demographics","age","0","0","0","0","52","1","3570"
"031220","12:11:00","936533601","176684558","5.0.14.0","1","3","demographics","gender","0","0","0","0","female","1","5489"
"031220","12:11:20","361304937","289999943","5.0.14.0","1","1","demographics","ProlificCode","0","0","0","0","5e5f684cd6bfcc29d1e5da67","1","83081"
"031220","12:11:20","361304937","289999943","5.0.14.0","1","2","demographics","age","0","0","0","0","46","1","4025"
"031220","12:11:20","361304937","289999943","5.0.14.0","1","3","demographics","gender","0","0","0","0","female","1","6218"
"031220","12:13:57","197758346","546484547","5.0.14.0","1","1","demographics","ProlificCode","0","0","0","0","5e566d9ac9175f0247e5514b","1","11335"
"031220","12:13:57","197758346","546484547","5.0.14.0","1","2","demographics","age","0","0","0","0","24","1","5179"
"031220","12:13:57","197758346","546484547","5.0.14.0","1","3","demographics","gender","0","0","0","0","Male","1","3172"
"031220","12:15:07","395523909","255780972","5.0.14.0","1","1","demographics","ProlificCode","0","0","0","0","5941588d81359000016787bd","1","11732"
"031220","12:15:07","395523909","255780972","5.0.14.0","1","2","demographics","age","0","0","0","0","31","1","1857"
"031220","12:15:07","395523909","255780972","5.0.14.0","1","3","demographics","gender","0","0","0","0","female","1","2744"
"031220","12:15:52","247512559","288314001","5.0.14.0","1","1","demographics","ProlificCode","0","0","0","0","5e38ab66d8a9270c873687b5","1","10725"
"031220","12:15:52","247512559","288314001","5.0.14.0","1","2","demographics","age","0","0","0","0","22","1","3374"
"031220","12:15:52","247512559","288314001","5.0.14.0","1","3","demographics","gender","0","0","0","0","Female","1","4685"
"031220","12:17:52","524699577","199083806","5.0.14.0","1","1","demographics","ProlificCode","0","0","0","0","5e514ee960dd0917e68a1ba5","1","20393"
"031220","12:17:52","524699577","199083806","5.0.14.0","1","2","demographics","age","0","0","0","0","23 ","1","4658"
"031220","12:17:52","524699577","199083806","5.0.14.0","1","3","demographics","gender","0","0","0","0","female","1","3811"
"031220","23:18:12","831732002","277791233","5.0.14.0","1","1","demographics","ProlificCode","0","0","0","0","5e47d17dab53022771694ba1","1","19444"
"031220","23:18:12","831732002","277791233","5.0.14.0","1","2","demographics","age","0","0","0","0","24","1","3254"
"031220","23:18:12","831732002","277791233","5.0.14.0","1","3","demographics","gender","0","0","0","0","Female","1","3217"
"031220","23:19:18","552240425","293152581","5.0.14.0","1","1","demographics","ProlificCode","0","0","0","0","5e05659953b56ef98d539436","1","37825"
"031220","23:19:18","552240425","293152581","5.0.14.0","1","2","demographics","age","0","0","0","0","22","1","4201"
"031220","23:19:18","552240425","293152581","5.0.14.0","1","3","demographics","gender","0","0","0","0","female","1","9013"
"031220","12:21:43","988953605","272916473","5.0.14.0","1","1","demographics","ProlificCode","0","0","0","0","5d77947bd417a50016be696b","1","7252"
"031220","12:21:43","988953605","272916473","5.0.14.0","1","2","demographics","age","0","0","0","0","42","1","7209"
"031220","12:21:43","988953605","272916473","5.0.14.0","1","3","demographics","gender","0","0","0","0","female","1","8092"
"031220","22:22:42","591803708","3787275","5.0.14.0","1","1","demographics","ProlificCode","0","0","0","0","5cba90cdc73d690019202268","1","16930"
"031220","22:22:42","591803708","3787275","5.0.14.0","1","2","demographics","age","0","0","0","0","41","1","5076"
"031220","22:22:42","591803708","3787275","5.0.14.0","1","3","demographics","gender","0","0","0","0","female","1","6027"
"031220","12:24:47","39422972","805970026","5.0.14.0","1","1","demographics","ProlificCode","0","0","0","0","5e1c9c82b0625401e05c628f","1","4699"
"031220","12:24:47","39422972","805970026","5.0.14.0","1","2","demographics","age","0","0","0","0","21","1","3207"
"031220","12:24:47","39422972","805970026","5.0.14.0","1","3","demographics","gender","0","0","0","0","male","1","4564"
"031220","12:25:35","250750858","710120464","5.0.14.0","1","1","demographics","ProlificCode","0","0","0","0","5e47fe3eb9f56c299dd2f2d7","1","20059"
"031220","12:25:35","250750858","710120464","5.0.14.0","1","2","demographics","age","0","0","0","0","23 ","1","5570"
"031220","12:25:35","250750858","710120464","5.0.14.0","1","3","demographics","gender","0","0","0","0","Male","1","3891"
"031220","12:26:48","660419708","875406840","5.0.14.0","1","1","demographics","ProlificCode","0","0","0","0","5e62c43cfd0e5b057a0fa0b9","1","10190"
"031220","12:26:48","660419708","875406840","5.0.14.0","1","2","demographics","age","0","0","0","0","34","1","3528"
"031220","12:26:48","660419708","875406840","5.0.14.0","1","3","demographics","gender","0","0","0","0","female","1","6218"
"031220","12:26:49","521530715","202252663","5.0.14.0","1","1","demographics","ProlificCode","0","0","0","0","","1","7634"
"031220","12:27:15","521530715","202252663","5.0.14.0","1","1","demographics","ProlificCode","0","0","0","0","5c88e37e879a350016def655","1","76494"
"031220","12:27:15","521530715","202252663","5.0.14.0","1","2","demographics","age","0","0","0","0","19","1","3320"
"031220","12:27:15","521530715","202252663","5.0.14.0","1","3","demographics","gender","0","0","0","0","female","1","5287"
"031220","12:28:38","989016858","5028058","5.0.14.0","1","1","demographics","ProlificCode","0","0","0","0","5e5f83ca62ff462b740ac6eb","1","12858"
"031220","12:28:38","989016858","5028058","5.0.14.0","1","2","demographics","age","0","0","0","0","59","1","3304"
"031220","12:28:38","989016858","5028058","5.0.14.0","1","3","demographics","gender","0","0","0","0","Male","1","6314"
"031220","12:28:59","791824182","67897032","5.0.14.0","1","1","demographics","ProlificCode","0","0","0","0","5e5e83a420e3aa000c7b6c97","1","13089"
"031220","12:28:59","791824182","67897032","5.0.14.0","1","2","demographics","age","0","0","0","0","18","1","3358"
"031220","12:28:59","791824182","67897032","5.0.14.0","1","3","demographics","gender","0","0","0","0","Demi-Boy","1","8946"
"031220","12:29:55","253827087","245130951","5.0.14.0","1","1","demographics","ProlificCode","0","0","0","0","5e579522dd429a13d0963556","1","6026"
"031220","12:29:55","253827087","245130951","5.0.14.0","1","2","demographics","age","0","0","0","0","42","1","3226"
"031220","12:29:55","253827087","245130951","5.0.14.0","1","3","demographics","gender","0","0","0","0","female","1","3357"
"031220","12:30:09","239091506","47231156","5.0.14.0","1","1","demographics","ProlificCode","0","0","0","0","5e56e6a7dd429a0973edeaed","1","7047"
"031220","12:30:09","239091506","47231156","5.0.14.0","1","2","demographics","age","0","0","0","0","37","1","5854"
"031220","12:30:09","239091506","47231156","5.0.14.0","1","3","demographics","gender","0","0","0","0","male","1","4312"
"031220","12:32:05","928661527","184556628","5.0.14.0","1","1","demographics","ProlificCode","0","0","0","0","5e5dbdea394d080eb6e116ce","1","4513"
"031220","12:32:05","928661527","184556628","5.0.14.0","1","2","demographics","age","0","0","0","0","26","1","3717"
"031220","12:32:05","928661527","184556628","5.0.14.0","1","3","demographics","gender","0","0","0","0","Male","1","3593"
"031220","12:32:14","474181936","672507953","5.0.14.0","1","1","demographics","ProlificCode","0","0","0","0","5e61872a029dd807483f1c23","1","3310"
"031220","12:32:14","474181936","672507953","5.0.14.0","1","2","demographics","age","0","0","0","0","19","1","4446"
"031220","12:32:14","474181936","672507953","5.0.14.0","1","3","demographics","gender","0","0","0","0","male","1","3480"
"031220","12:33:49","203161401","520621970","5.0.15.0","1","1","demographics","ProlificCode","0","0","0","0","","1","10237"
"031220","12:32:58","154237826","229241887","5.0.14.0","1","1","demographics","ProlificCode","0","0","0","0","5e6390db8a25da10a0ca6eca","1","80950"
"031220","12:32:58","154237826","229241887","5.0.14.0","1","2","demographics","age","0","0","0","0","30","1","6210"
"031220","12:32:58","154237826","229241887","5.0.14.0","1","3","demographics","gender","0","0","0","0","Male","1","3459"
"031220","12:33:49","536925299","572597946","5.0.14.0","1","1","demographics","ProlificCode","0","0","0","0","5e4faf8fc0bead3ee2222c03","1","26369"
"031220","12:33:49","536925299","572597946","5.0.14.0","1","2","demographics","age","0","0","0","0","63","1","3665"
"031220","12:33:49","536925299","572597946","5.0.14.0","1","3","demographics","gender","0","0","0","0","female","1","7720"
"031220","12:28:26","927857480","69882356","5.0.14.0","1","1","demographics","ProlificCode","0","0","0","0","5e6783d865bd0b0240923299","1","222067"
"031220","12:28:26","927857480","69882356","5.0.14.0","1","2","demographics","age","0","0","0","0","22","1","3992"
"031220","12:28:26","927857480","69882356","5.0.14.0","1","3","demographics","gender","0","0","0","0","Female","1","4864"
"031220","08:33:36","283110612","252715946","5.0.14.0","1","1","demographics","ProlificCode","0","0","0","0","5ce2eaf7a7ff200195bf799","1","48838"
"031220","08:33:36","283110612","252715946","5.0.14.0","1","2","demographics","age","0","0","0","0","24","1","3225"
"031220","08:33:36","283110612","252715946","5.0.14.0","1","3","demographics","gender","0","0","0","0","female","1","3410"
"031220","12:35:56","694161036","914144008","5.0.14.0","1","1","demographics","ProlificCode","0","0","0","0","5e5f715ddcec7b2acb5bba54","1","6045"
"031220","12:35:56","694161036","914144008","5.0.14.0","1","2","demographics","age","0","0","0","0","23","1","2836"
"031220","12:35:56","694161036","914144008","5.0.14.0","1","3","demographics","gender","0","0","0","0","female","1","5920"
"031220","12:36:08","203629428","794110407","5.0.14.0","1","1","demographics","ProlificCode","0","0","0","0","5e4fe86dabab1a000bdd6ec6","1","9789"
"031220","12:36:08","203629428","794110407","5.0.14.0","1","2","demographics","age","0","0","0","0","41","1","2479"
"031220","12:36:08","203629428","794110407","5.0.14.0","1","3","demographics","gender","0","0","0","0","male","1","3168"
"031220","10:06:34","248533321","865579224","5.0.14.0","1","1","demographics","ProlificCode","0","0","0","0","5e54230380cd0941cfc3d507","1","14966"
"031220","10:06:34","248533321","865579224","5.0.14.0","1","2","demographics","age","0","0","0","0","39","1","4239"
"031220","10:06:34","248533321","865579224","5.0.14.0","1","3","demographics","gender","0","0","0","0","Female","1","8062"
"031220","07:38:01","238880154","260077880","5.0.14.0","1","1","demographics","ProlificCode","0","0","0","0","5a233637681a240001ff4223","1","39330"
"031220","07:38:01","238880154","260077880","5.0.14.0","1","2","demographics","age","0","0","0","0","22","1","3540"
"031220","07:38:01","238880154","260077880","5.0.14.0","1","3","demographics","gender","0","0","0","0","Trans male","1","6792"
"031220","12:38:53","774131653","761694891","5.0.14.0","1","1","demographics","ProlificCode","0","0","0","0","5e5ef0f8b5968c2255548836 ","1","30256"
"031220","12:38:53","774131653","761694891","5.0.14.0","1","2","demographics","age","0","0","0","0","19","1","9124"
"031220","12:38:53","774131653","761694891","5.0.14.0","1","3","demographics","gender","0","0","0","0","male","1","4589"
"031220","23:39:42","592348894","669521192","5.0.14.0","1","1","demographics","ProlificCode","0","0","0","0","5e5615d0581a0c60e87bd8e3","1","4214"
"031220","23:39:42","592348894","669521192","5.0.14.0","1","2","demographics","age","0","0","0","0","23","1","3176"
"031220","23:39:42","592348894","669521192","5.0.14.0","1","3","demographics","gender","0","0","0","0","Male","1","4417"
"031220","12:39:21","511218291","810416212","5.0.14.0","1","1","demographics","ProlificCode","0","0","0","0","5e62e9e182b47807b05ebef9","1","8161"
"031220","12:39:21","511218291","810416212","5.0.14.0","1","2","demographics","age","0","0","0","0","40","1","4785"
"031220","12:39:21","511218291","810416212","5.0.14.0","1","3","demographics","gender","0","0","0","0","Female","1","7291"
"031220","12:39:56","59148198","549156859","5.0.14.0","1","1","demographics","ProlificCode","0","0","0","0","5e5db0b1725a350cc99bb0a8","1","8900"
"031220","12:39:56","59148198","549156859","5.0.14.0","1","2","demographics","age","0","0","0","0","21","1","6036"
"031220","12:39:56","59148198","549156859","5.0.14.0","1","3","demographics","gender","0","0","0","0","Male","1","3212"
"031220","12:40:11","728173970","880131073","5.0.14.0","1","1","demographics","ProlificCode","0","0","0","0","5e5e2a238627aa13cf71d42e","1","4412"
"031220","12:40:11","728173970","880131073","5.0.14.0","1","2","demographics","age","0","0","0","0","23","1","3171"
"031220","12:40:11","728173970","880131073","5.0.14.0","1","3","demographics","gender","0","0","0","0","Female","1","3625"
"031220","09:40:39","859287706","253930452","5.0.14.0","1","1","demographics","ProlificCode","0","0","0","0","5e4fcbc8b05733011ff64ebc","1","12369"
"031220","09:40:39","859287706","253930452","5.0.14.0","1","2","demographics","age","0","0","0","0","26","1","2899"
"031220","09:40:39","859287706","253930452","5.0.14.0","1","3","demographics","gender","0","0","0","0","Female","1","6527"
"031220","12:40:38","174864094","670528900","5.0.14.0","1","1","demographics","ProlificCode","0","0","0","0","5e4e9d02df26ed000bed5498","1","15258"
"031220","12:40:38","174864094","670528900","5.0.14.0","1","2","demographics","age","0","0","0","0","33","1","2869"
"031220","12:40:38","174864094","670528900","5.0.14.0","1","3","demographics","gender","0","0","0","0","Female","1","4335"
"031220","08:40:38","248102163","866606636","5.0.14.0","1","1","demographics","ProlificCode","0","0","0","0","5e6449ae5932461d728d215 ","1","73470"
"031220","08:40:38","248102163","866606636","5.0.14.0","1","2","demographics","age","0","0","0","0","20","1","3571"
"031220","08:40:38","248102163","866606636","5.0.14.0","1","3","demographics","gender","0","0","0","0","female","1","4091"
"031220","12:41:59","233021832","28848257","5.0.14.0","1","1","demographics","ProlificCode","0","0","0","0","5e5ca57efdb87e46b455873e","1","7374"
"031220","12:41:59","233021832","28848257","5.0.14.0","1","2","demographics","age","0","0","0","0","18","1","3236"
"031220","12:41:59","233021832","28848257","5.0.14.0","1","3","demographics","gender","0","0","0","0","Male","1","3353"
"031220","12:43:20","297165695","426617681","5.0.14.0","1","1","demographics","ProlificCode","0","0","0","0","5e60f7b720abd6000eaf36ed","1","7510"
"031220","12:43:20","297165695","426617681","5.0.14.0","1","2","demographics","age","0","0","0","0","37","1","13802"
"031220","12:43:20","297165695","426617681","5.0.14.0","1","3","demographics","gender","0","0","0","0","female","1","4106"
"031220","12:44:11","669479088","866347456","5.0.14.0","1","1","demographics","ProlificCode","0","0","0","0","5e3991cfd2bdfc030234b2b2","1","4217"
"031220","12:44:11","669479088","866347456","5.0.14.0","1","2","demographics","age","0","0","0","0","30","1","3487"
"031220","12:44:11","669479088","866347456","5.0.14.0","1","3","demographics","gender","0","0","0","0","female","1","3972"
"031220","12:44:41","912694599","200523557","5.0.14.0","1","1","demographics","ProlificCode","0","0","0","0","5e51866cc946221b5c43b307","1","20330"
"031220","12:44:41","912694599","200523557","5.0.14.0","1","2","demographics","age","0","0","0","0","32","1","4915"
"031220","12:44:41","912694599","200523557","5.0.14.0","1","3","demographics","gender","0","0","0","0","male","1","3742"
"031220","08:45:13","165882499","485422375","5.0.14.0","1","1","demographics","ProlificCode","0","0","0","0","5e457cbe2e142805fd806215","1","6526"
"031220","08:45:13","165882499","485422375","5.0.14.0","1","2","demographics","age","0","0","0","0","36","1","3926"
"031220","08:45:13","165882499","485422375","5.0.14.0","1","3","demographics","gender","0","0","0","0","Male","1","3792"
"031220","12:45:25","99592395","283887317","5.0.14.0","1","1","demographics","ProlificCode","0","0","0","0","5e6529f5e3292629f12004cc","1","74556"
"031220","12:45:25","99592395","283887317","5.0.14.0","1","2","demographics","age","0","0","0","0","20","1","3301"
"031220","12:45:25","99592395","283887317","5.0.14.0","1","3","demographics","gender","0","0","0","0","Female","1","5520"
"031220","23:46:27","725805292","268239626","5.0.14.0","1","1","demographics","ProlificCode","0","0","0","0","5e1a96a4d65aef30705b4f13","1","12473"
"031220","23:46:27","725805292","268239626","5.0.14.0","1","2","demographics","age","0","0","0","0","18","1","2719"
"031220","23:46:27","725805292","268239626","5.0.14.0","1","3","demographics","gender","0","0","0","0","Female ","1","5930"
"031220","12:46:46","560264292","823215414","5.0.14.0","1","1","demographics","ProlificCode","0","0","0","0","5e5bd83514a6a43bbeac2f3c","1","16361"
"031220","12:46:46","560264292","823215414","5.0.14.0","1","2","demographics","age","0","0","0","0","47","1","3211"
"031220","12:46:46","560264292","823215414","5.0.14.0","1","3","demographics","gender","0","0","0","0","Female","1","4903"
"031220","12:47:04","596829","145794944","5.0.14.0","1","1","demographics","ProlificCode","0","0","0","0","5dc71b96d210e45213e92359","1","39802"
"031220","12:47:04","596829","145794944","5.0.14.0","1","2","demographics","age","0","0","0","0","41","1","3384"
"031220","12:47:04","596829","145794944","5.0.14.0","1","3","demographics","gender","0","0","0","0","male","1","5666"
"031220","22:47:32","410366256","851503826","5.0.14.0","1","1","demographics","ProlificCode","0","0","0","0","5e0243440108e5dbafa7655a","1","77842"
"031220","22:47:32","410366256","851503826","5.0.14.0","1","2","demographics","age","0","0","0","0","24","1","3867"
"031220","22:47:32","410366256","851503826","5.0.14.0","1","3","demographics","gender","0","0","0","0","Male","1","3465"
"031220","12:48:53","785561582","111028156","5.0.14.0","1","1","demographics","ProlificCode","0","0","0","0","5e4a7bdc5607634daa90356d","1","6071"
"031220","12:48:53","785561582","111028156","5.0.14.0","1","2","demographics","age","0","0","0","0","18","1","6730"
"031220","12:48:53","785561582","111028156","5.0.14.0","1","3","demographics","gender","0","0","0","0","Female","1","3996"
"031220","12:49:18","241730650","20139443","5.0.14.0","1","1","demographics","ProlificCode","0","0","0","0","5e4e7d733af5db000a6a41a8","1","15437"
"031220","12:49:18","241730650","20139443","5.0.14.0","1","2","demographics","age","0","0","0","0","42","1","2599"
"031220","12:49:18","241730650","20139443","5.0.14.0","1","3","demographics","gender","0","0","0","0","Male","1","3405"
"031220","12:50:25","604585730","389459195","5.0.14.0","1","1","demographics","ProlificCode","0","0","0","0","5c699c62b1b0080001bfca3f","1","12934"
"031220","12:50:25","604585730","389459195","5.0.14.0","1","2","demographics","age","0","0","0","0","40","1","2769"
"031220","12:50:25","604585730","389459195","5.0.14.0","1","3","demographics","gender","0","0","0","0","Male","1","3699"
"031220","12:45:59","290008682","971861402","5.0.14.0","1","1","demographics","ProlificCode","0","0","0","0","5dae1a7fe8e50f001064d0f0","1","13043"
"031220","12:45:59","290008682","971861402","5.0.14.0","1","2","demographics","age","0","0","0","0","40","1","3290"
"031220","12:45:59","290008682","971861402","5.0.14.0","1","3","demographics","gender","0","0","0","0","female","1","5379"
"031220","12:50:49","324574573","246861967","5.0.14.0","1","1","demographics","ProlificCode","0","0","0","0","5e611d1bd283b1017e332f8a","1","7301"
"031220","12:50:49","324574573","246861967","5.0.14.0","1","2","demographics","age","0","0","0","0","52","1","3767"
"031220","12:50:49","324574573","246861967","5.0.14.0","1","3","demographics","gender","0","0","0","0","male","1","3587"
"031220","12:50:44","520894503","588628739","5.0.14.0","1","1","demographics","ProlificCode","0","0","0","0","5da9633472811e0014ed4256@email.prolific.co","1","28288"
"031220","12:50:44","520894503","588628739","5.0.14.0","1","2","demographics","age","0","0","0","0","65","1","5207"
"031220","12:50:44","520894503","588628739","5.0.14.0","1","3","demographics","gender","0","0","0","0","male","1","6296"
"031220","12:50:27","774773092","121816647","5.0.14.0","1","1","demographics","ProlificCode","0","0","0","0","5e5012ec47808406305d6a0d","1","55236"
"031220","12:50:27","774773092","121816647","5.0.14.0","1","2","demographics","age","0","0","0","0","56","1","3741"
"031220","12:50:27","774773092","121816647","5.0.14.0","1","3","demographics","gender","0","0","0","0","male","1","4617"
"031220","12:52:02","987027712","664277148","5.0.14.0","1","1","demographics","ProlificCode","0","0","0","0","ccfc89","1","8262"
"031220","12:52:02","987027712","664277148","5.0.14.0","1","2","demographics","age","0","0","0","0","30","1","2867"
"031220","12:52:02","987027712","664277148","5.0.14.0","1","3","demographics","gender","0","0","0","0","Male","1","3218"
"031220","12:52:29","623377956","337213874","5.0.14.0","1","1","demographics","ProlificCode","0","0","0","0","5d766978f47e6200019a2acf","1","10560"
"031220","12:52:29","623377956","337213874","5.0.14.0","1","2","demographics","age","0","0","0","0","23","1","3170"
"031220","12:52:29","623377956","337213874","5.0.14.0","1","3","demographics","gender","0","0","0","0","Female","1","3890"
"031220","12:54:31","633503531","476019712","5.0.14.0","1","1","demographics","ProlificCode","0","0","0","0","5b3f880e1581c70001e8bee6","1","7720"
"031220","12:54:31","633503531","476019712","5.0.14.0","1","2","demographics","age","0","0","0","0","29","1","3049"
"031220","12:54:31","633503531","476019712","5.0.14.0","1","3","demographics","gender","0","0","0","0","Male","1","2985"
"031220","12:55:39","28814071","542622464","5.0.14.0","1","1","demographics","ProlificCode","0","0","0","0","5e21a6ee80e02e4722a3233f","1","6307"
"031220","12:55:39","28814071","542622464","5.0.14.0","1","2","demographics","age","0","0","0","0","23","1","2712"
"031220","12:55:39","28814071","542622464","5.0.14.0","1","3","demographics","gender","0","0","0","0","male","1","4947"
"031220","12:56:04","100663","571335872","5.0.14.0","1","1","demographics","ProlificCode","0","0","0","0","5e654f55e43f282cb2def9ec","1","12731"
"031220","12:56:04","100663","571335872","5.0.14.0","1","2","demographics","age","0","0","0","0","37","1","4914"
"031220","12:56:04","100663","571335872","5.0.14.0","1","3","demographics","gender","0","0","0","0","M","1","3040"
"031220","12:56:26","559209348","401661972","5.0.14.0","1","1","demographics","ProlificCode","0","0","0","0","5e13301b2fc4789631321ada","1","6690"
"031220","12:56:26","559209348","401661972","5.0.14.0","1","2","demographics","age","0","0","0","0","18","1","5688"
"031220","12:56:26","559209348","401661972","5.0.14.0","1","3","demographics","gender","0","0","0","0","Male","1","5599"
"031220","20:57:07","588641966","910316058","5.0.14.0","1","1","demographics","ProlificCode","0","0","0","0","5be7fef55b7ff700013c22f5","1","38328"
"031220","20:57:07","588641966","910316058","5.0.14.0","1","2","demographics","age","0","0","0","0","33","1","2271"
"031220","20:57:07","588641966","910316058","5.0.14.0","1","3","demographics","gender","0","0","0","0","Female","1","6114"
"031220","12:58:31","504440195","489604722","5.0.14.0","1","1","demographics","ProlificCode","0","0","0","0","5988671b5ff23800011e0fe3","1","10835"
"031220","12:58:31","504440195","489604722","5.0.14.0","1","2","demographics","age","0","0","0","0","21","1","4739"
"031220","12:58:31","504440195","489604722","5.0.14.0","1","3","demographics","gender","0","0","0","0","Male","1","3269"
"031220","12:59:25","537054948","174014356","5.0.14.0","1","1","demographics","ProlificCode","0","0","0","0","5be12624b08fb60001f5680a","1","6713"
"031220","12:59:25","537054948","174014356","5.0.14.0","1","2","demographics","age","0","0","0","0","21","1","2077"
"031220","12:59:25","537054948","174014356","5.0.14.0","1","3","demographics","gender","0","0","0","0","Male","1","3572"
"031220","13:00:28","551097756","20040654","5.0.14.0","1","1","demographics","ProlificCode","0","0","0","0","5e3de3fcf5992705718615cc","1","15541"
"031220","13:00:28","551097756","20040654","5.0.14.0","1","2","demographics","age","0","0","0","0","18","1","8278"
"031220","13:00:28","551097756","20040654","5.0.14.0","1","3","demographics","gender","0","0","0","0","male","1","5786"
"031220","13:01:01","560693737","10742801","5.0.14.0","1","1","demographics","ProlificCode","0","0","0","0","5e5bd0b15bb3123a2e2a2c07","1","5710"
"031220","13:01:01","560693737","10742801","5.0.14.0","1","2","demographics","age","0","0","0","0","20","1","3500"
"031220","13:01:01","560693737","10742801","5.0.14.0","1","3","demographics","gender","0","0","0","0","Female","1","4417"
"031220","13:00:55","778904459","792532062","5.0.14.0","1","1","demographics","ProlificCode","0","0","0","0","5e3411400082f13d625e7880","1","29378"
"031220","13:00:55","778904459","792532062","5.0.14.0","1","2","demographics","age","0","0","0","0","33","1","2519"
"031220","13:00:55","778904459","792532062","5.0.14.0","1","3","demographics","gender","0","0","0","0","Male","1","4289"
"031220","09:02:59","208826789","399478262","5.0.14.0","1","1","demographics","ProlificCode","0","0","0","0","5e54309f0a98c705f68ae8a8","1","9672"
"031220","09:02:59","208826789","399478262","5.0.14.0","1","2","demographics","age","0","0","0","0","40","1","3146"
"031220","09:02:59","208826789","399478262","5.0.14.0","1","3","demographics","gender","0","0","0","0","M","1","2553"
"031220","13:03:23","234944119","148535595","5.0.14.0","1","1","demographics","ProlificCode","0","0","0","0","5e52b76bdf966b2cfcb09500","1","14247"
"031220","13:03:23","234944119","148535595","5.0.14.0","1","2","demographics","age","0","0","0","0","22","1","3855"
"031220","13:03:23","234944119","148535595","5.0.14.0","1","3","demographics","gender","0","0","0","0","male","1","6563"
"031220","13:03:20","371472278","473920726","5.0.14.0","1","1","demographics","ProlificCode","0","0","0","0","5e60f3c47ff627000e5aee58","1","26037"
"031220","13:03:20","371472278","473920726","5.0.14.0","1","2","demographics","age","0","0","0","0","37","1","6887"
"031220","13:03:20","371472278","473920726","5.0.14.0","1","3","demographics","gender","0","0","0","0","Female","1","5401"
"031220","13:04:50","546910643","562612600","5.0.14.0","1","1","demographics","ProlificCode","0","0","0","0","5e5dbc34dc54220e1b71a708","1","19762"
"031220","13:04:50","546910643","562612600","5.0.14.0","1","2","demographics","age","0","0","0","0","29","1","2356"
"031220","13:04:50","546910643","562612600","5.0.14.0","1","3","demographics","gender","0","0","0","0","Male","1","3325"
"031220","13:05:12","21203595","990864464","5.0.14.0","1","1","demographics","ProlificCode","0","0","0","0","5dadbc8a7ac8810019838e8f","1","4165"
"031220","13:05:12","21203595","990864464","5.0.14.0","1","2","demographics","age","0","0","0","0","20","1","5749"
"031220","13:05:12","21203595","990864464","5.0.14.0","1","3","demographics","gender","0","0","0","0","Female","1","3507"
"031220","13:05:00","685950286","885486238","5.0.14.0","1","1","demographics","ProlificCode","0","0","0","0","5e6143aea9267c045bfcf7a2","1","11843"
"031220","13:05:00","685950286","885486238","5.0.14.0","1","2","demographics","age","0","0","0","0","19","1","5647"
"031220","13:05:00","685950286","885486238","5.0.14.0","1","3","demographics","gender","0","0","0","0","Female","1","4921"
"031220","13:05:23","9563617","641741265","5.0.14.0","1","1","demographics","ProlificCode","0","0","0","0","5e56584b888eb7000a1acb2b","1","10646"
"031220","13:05:23","9563617","641741265","5.0.14.0","1","2","demographics","age","0","0","0","0","28","1","9802"
"031220","13:05:23","9563617","641741265","5.0.14.0","1","3","demographics","gender","0","0","0","0","Male","1","2992"
"031220","13:05:43","794742060","740767726","5.0.14.0","1","1","demographics","ProlificCode","0","0","0","0","5e6244bc0b710a0384befbf9","1","11642"
"031220","13:05:43","794742060","740767726","5.0.14.0","1","2","demographics","age","0","0","0","0","27","1","3593"
"031220","13:05:43","794742060","740767726","5.0.14.0","1","3","demographics","gender","0","0","0","0","female","1","5116"
"031220","09:06:48","63321511","435636528","5.0.14.0","1","1","demographics","ProlificCode","0","0","0","0","5e17938e5bcd430947a98c2c","1","14900"
"031220","09:06:48","63321511","435636528","5.0.14.0","1","2","demographics","age","0","0","0","0","31","1","2784"
"031220","09:06:48","63321511","435636528","5.0.14.0","1","3","demographics","gender","0","0","0","0","male","1","4141"
"031220","13:06:56","809536578","646421625","5.0.14.0","1","1","demographics","ProlificCode","0","0","0","0","5e45627ab16e7203d9d44621","1","15990"
"031220","13:06:56","809536578","646421625","5.0.14.0","1","2","demographics","age","0","0","0","0","19","1","3443"
"031220","13:06:56","809536578","646421625","5.0.14.0","1","3","demographics","gender","0","0","0","0","Male","1","3756"
"031220","13:06:47","455824409","79704024","5.0.14.0","1","1","demographics","ProlificCode","0","0","0","0","5e642125757e611ae1a52811","1","86706"
"031220","13:06:47","455824409","79704024","5.0.14.0","1","2","demographics","age","0","0","0","0","19","1","2551"
"031220","13:06:47","455824409","79704024","5.0.14.0","1","3","demographics","gender","0","0","0","0","Male","1","2813"
"031220","09:08:03","850672376","110198938","5.0.14.0","1","1","demographics","ProlificCode","0","0","0","0","5e54309f0a98c705f68ae8a8","1","8145"
"031220","09:08:03","850672376","110198938","5.0.14.0","1","2","demographics","age","0","0","0","0","40","1","3612"
"031220","09:08:03","850672376","110198938","5.0.14.0","1","3","demographics","gender","0","0","0","0","M","1","2315"
"031220","09:07:37","929872149","569085868","5.0.14.0","1","1","demographics","ProlificCode","0","0","0","0","5e3f1b51c62aea17fdef43","1","38011"
"031220","09:07:37","929872149","569085868","5.0.14.0","1","2","demographics","age","0","0","0","0","27","1","3885"
"031220","09:07:37","929872149","569085868","5.0.14.0","1","3","demographics","gender","0","0","0","0","female","1","5431"
"031220","13:08:06","989292698","509665323","5.0.14.0","1","1","demographics","ProlificCode","0","0","0","0","5d5677fd7e82b2000122eb6d","1","26476"
"031220","13:08:06","989292698","509665323","5.0.14.0","1","2","demographics","age","0","0","0","0","30","1","3227"
"031220","13:08:06","989292698","509665323","5.0.14.0","1","3","demographics","gender","0","0","0","0","female","1","18193"
"031220","13:09:57","797253397","464318556","5.0.14.0","1","1","demographics","ProlificCode","0","0","0","0","5e6562de03c81d2e4caa93f0","1","15734"
"031220","13:09:57","797253397","464318556","5.0.14.0","1","2","demographics","age","0","0","0","0","50","1","4274"
"031220","13:09:57","797253397","464318556","5.0.14.0","1","3","demographics","gender","0","0","0","0","female","1","3184"
"031220","13:10:21","19072132","941799189","5.0.14.0","1","1","demographics","ProlificCode","0","0","0","0","5e5d0aadff80ec011ceb1c34","1","24005"
"031220","13:10:21","19072132","941799189","5.0.14.0","1","2","demographics","age","0","0","0","0","24","1","5832"
"031220","13:10:21","19072132","941799189","5.0.14.0","1","3","demographics","gender","0","0","0","0","Female","1","4204"
"031320","00:11:44","124982324","292772677","5.0.14.0","1","1","demographics","ProlificCode","0","0","0","0","5e43fd807e3373285b18426c","1","4620"
"031320","00:11:44","124982324","292772677","5.0.14.0","1","2","demographics","age","0","0","0","0","23","1","1834"
"031320","00:11:44","124982324","292772677","5.0.14.0","1","3","demographics","gender","0","0","0","0","Female","1","5314"
"031220","13:11:42","655500893","995803976","5.0.14.0","1","1","demographics","ProlificCode","0","0","0","0","5e60cd2c25ac9f01135616a2","1","12600"
"031220","13:11:42","655500893","995803976","5.0.14.0","1","2","demographics","age","0","0","0","0","21","1","3129"
"031220","13:11:42","655500893","995803976","5.0.14.0","1","3","demographics","gender","0","0","0","0","Male","1","3149"
"031220","13:12:36","671660762","969348810","5.0.14.0","1","1","demographics","ProlificCode","0","0","0","0","5cf6c8a36b59e3001958c510","1","15741"
"031220","13:12:36","671660762","969348810","5.0.14.0","1","2","demographics","age","0","0","0","0","62","1","5545"
"031220","13:12:36","671660762","969348810","5.0.14.0","1","3","demographics","gender","0","0","0","0","Female","1","4878"
"031220","07:05:05","663484807","944820237","5.0.14.0","1","1","demographics","ProlificCode","0","0","0","0","5e5d1b803676ec022dfdd13b","1","25526"
"031220","07:05:05","663484807","944820237","5.0.14.0","1","2","demographics","age","0","0","0","0","41","1","3990"
"031220","07:05:05","663484807","944820237","5.0.14.0","1","3","demographics","gender","0","0","0","0","female","1","6325"
"031220","13:17:28","926834893","532291606","5.0.14.0","1","1","demographics","ProlificCode","0","0","0","0","5af313aea27d3b00011eb64b","1","4390"
"031220","13:17:28","926834893","532291606","5.0.14.0","1","2","demographics","age","0","0","0","0","31","1","3452"
"031220","13:17:28","926834893","532291606","5.0.14.0","1","3","demographics","gender","0","0","0","0","male","1","3242"
"031220","13:18:19","819495797","919297851","5.0.14.0","1","1","demographics","ProlificCode","0","0","0","0","5e50ecfc5bac4311db8b381b","1","3059"
"031220","13:18:19","819495797","919297851","5.0.14.0","1","2","demographics","age","0","0","0","0","27","1","4410"
"031220","13:18:19","819495797","919297851","5.0.14.0","1","3","demographics","gender","0","0","0","0","female","1","6206"
"031220","13:12:16","371844876","625894970","5.0.14.0","1","1","demographics","ProlificCode","0","0","0","0","5e622465a01a0a0214439d8a","1","372945"
"031220","13:12:16","371844876","625894970","5.0.14.0","1","2","demographics","age","0","0","0","0","40","1","6026"
"031220","13:12:16","371844876","625894970","5.0.14.0","1","3","demographics","gender","0","0","0","0","m","1","3271"
"031220","13:18:25","969936825","680304102","5.0.14.0","1","1","demographics","ProlificCode","0","0","0","0","5e5bb7775cd2ad39cfb28a92","1","46136"
"031220","13:18:25","969936825","680304102","5.0.14.0","1","2","demographics","age","0","0","0","0","19","1","7891"
"031220","13:18:25","969936825","680304102","5.0.14.0","1","3","demographics","gender","0","0","0","0","Female","1","4528"
"031220","13:14:32","62415969","47249179","5.0.14.0","1","1","demographics","ProlificCode","0","0","0","0","5e51d466059e37210a860ab6","1","215352"
"031220","13:14:32","62415969","47249179","5.0.14.0","1","2","demographics","age","0","0","0","0","27","1","2307"
"031220","13:14:32","62415969","47249179","5.0.14.0","1","3","demographics","gender","0","0","0","0","Male","1","4202"
"031220","06:20:04","883437192","694341684","5.0.14.0","1","1","demographics","ProlificCode","0","0","0","0","5e3c6c45e6e969056f637686","1","30108"
"031220","06:20:04","883437192","694341684","5.0.14.0","1","2","demographics","age","0","0","0","0","23 ","1","4594"
"031220","06:20:04","883437192","694341684","5.0.14.0","1","3","demographics","gender","0","0","0","0","female","1","3255"
"031220","13:28:31","979845013","365462619","5.0.14.0","1","1","demographics","ProlificCode","0","0","0","0","5e542e642394ea43e67249ea","1","6107"
"031220","13:28:31","979845013","365462619","5.0.14.0","1","2","demographics","age","0","0","0","0","31","1","4471"
"031220","13:28:31","979845013","365462619","5.0.14.0","1","3","demographics","gender","0","0","0","0","female","1","5110"
"031320","00:33:19","983779520","945853015","5.0.14.0","1","1","demographics","ProlificCode","0","0","0","0","5e52a8ee0033f9000b01e91b","1","4381"
"031320","00:33:19","983779520","945853015","5.0.14.0","1","2","demographics","age","0","0","0","0","23","1","2231"
"031320","00:33:19","983779520","945853015","5.0.14.0","1","3","demographics","gender","0","0","0","0","Male","1","3561"
"031220","13:39:35","685728185","338235231","5.0.14.0","1","1","demographics","ProlificCode","0","0","0","0","5e64d9d36e2ba1249699e520","1","7531"
"031220","13:39:35","685728185","338235231","5.0.14.0","1","2","demographics","age","0","0","0","0","30","1","5132"
"031220","13:39:35","685728185","338235231","5.0.14.0","1","3","demographics","gender","0","0","0","0","Male","1","8042"
"031220","09:02:56","358377851","721802662","5.0.14.0","1","1","demographics","ProlificCode","0","0","0","0","5e55a97aa9fedb0bd6040483","1","16302"
"031220","09:02:56","358377851","721802662","5.0.14.0","1","2","demographics","age","0","0","0","0","18","1","3136"
"031220","09:02:56","358377851","721802662","5.0.14.0","1","3","demographics","gender","0","0","0","0","Male","1","3297"
"031220","10:03:49","851715438","748425390","5.0.14.0","1","1","demographics","ProlificCode","0","0","0","0","5e533e9d1ffa373595a2bcfb","1","15851"
"031220","10:03:49","851715438","748425390","5.0.14.0","1","2","demographics","age","0","0","0","0","29","1","2700"
"031220","10:03:49","851715438","748425390","5.0.14.0","1","3","demographics","gender","0","0","0","0","Male","1","2677"
"031220","08:04:24","194077697","788724516","5.0.14.0","1","1","demographics","ProlificCode","0","0","0","0","5e4f1bc05efe03377ad975e8","1","3822"
"031220","08:04:24","194077697","788724516","5.0.14.0","1","2","demographics","age","0","0","0","0","34","1","2042"
"031220","08:04:24","194077697","788724516","5.0.14.0","1","3","demographics","gender","0","0","0","0","female","1","2143"
"031220","10:04:14","693244823","258655095","5.0.14.0","1","1","demographics","ProlificCode","0","0","0","0","5e6082e81100913cdcf6081f","1","19588"
"031220","10:04:14","693244823","258655095","5.0.14.0","1","2","demographics","age","0","0","0","0","32","1","3088"
"031220","10:04:14","693244823","258655095","5.0.14.0","1","3","demographics","gender","0","0","0","0","Female","1","8488"
"031220","10:04:21","768189167","703381778","5.0.14.0","1","1","demographics","ProlificCode","0","0","0","0","5e663a2e5d447a3ac867e748","1","28361"
"031220","10:04:21","768189167","703381778","5.0.14.0","1","2","demographics","age","0","0","0","0","25","1","10047"
"031220","10:04:21","768189167","703381778","5.0.14.0","1","3","demographics","gender","0","0","0","0","Male","1","5505"
"031220","09:05:17","573286796","344644255","5.0.14.0","1","1","demographics","ProlificCode","0","0","0","0","5e3575a79a728f51d00e5f1a","1","14847"
"031220","09:05:17","573286796","344644255","5.0.14.0","1","2","demographics","age","0","0","0","0","41","1","3898"
"031220","09:05:17","573286796","344644255","5.0.14.0","1","3","demographics","gender","0","0","0","0","Male","1","3885"
"031220","14:05:07","680065690","192142433","5.0.14.0","1","1","demographics","ProlificCode","0","0","0","0","5c55c8619fcbc40001dc49ab","1","63351"
"031220","14:05:07","680065690","192142433","5.0.14.0","1","2","demographics","age","0","0","0","0","18","1","2199"
"031220","14:05:07","680065690","192142433","5.0.14.0","1","3","demographics","gender","0","0","0","0","female","1","2091"
"031220","10:06:10","424477223","547417296","5.0.14.0","1","1","demographics","ProlificCode","0","0","0","0","5e30a2a67dcb99000d808814","1","17173"
"031220","10:06:10","424477223","547417296","5.0.14.0","1","2","demographics","age","0","0","0","0","26","1","4940"
"031220","10:06:10","424477223","547417296","5.0.14.0","1","3","demographics","gender","0","0","0","0","male","1","3861"
"031220","14:06:06","290445095","252220453","5.0.14.0","1","1","demographics","ProlificCode","0","0","0","0","5e52c8852650ea2d71b","1","47784"
"031220","14:06:06","290445095","252220453","5.0.14.0","1","2","demographics","age","0","0","0","0","19","1","2798"
"031220","14:06:06","290445095","252220453","5.0.14.0","1","3","demographics","gender","0","0","0","0","female ","1","5714"
"031220","08:07:04","6003695","509858806","5.0.14.0","1","1","demographics","ProlificCode","0","0","0","0","5e3d775ce78aa1034d81f20d","1","36905"
"031220","08:07:04","6003695","509858806","5.0.14.0","1","2","demographics","age","0","0","0","0","34","1","2956"
"031220","08:07:04","6003695","509858806","5.0.14.0","1","3","demographics","gender","0","0","0","0","female","1","3415"
"031220","14:07:03","553264421","375092257","5.0.14.0","1","1","demographics","ProlificCode","0","0","0","0","5e627b3a77471b01174ebd17","1","50614"
"031220","14:07:03","553264421","375092257","5.0.14.0","1","2","demographics","age","0","0","0","0","22","1","3395"
"031220","14:07:03","553264421","375092257","5.0.14.0","1","3","demographics","gender","0","0","0","0","Male","1","7023"
"031220","10:08:08","542046270","513865277","5.0.14.0","1","1","demographics","ProlificCode","0","0","0","0"," 5e4566e8f64db704b739b757","1","6967"
"031220","10:08:08","542046270","513865277","5.0.14.0","1","2","demographics","age","0","0","0","0","27","1","3651"
"031220","10:08:08","542046270","513865277","5.0.14.0","1","3","demographics","gender","0","0","0","0","Male","1","5249"
"031220","14:06:29","214759686","568623636","5.0.14.0","1","1","demographics","ProlificCode","0","0","0","0","5e4bfba56727ea000e36abec ","1","140420"
"031220","14:06:29","214759686","568623636","5.0.14.0","1","2","demographics","age","0","0","0","0","20","1","8872"
"031220","14:06:29","214759686","568623636","5.0.14.0","1","3","demographics","gender","0","0","0","0","female","1","3615"
"031220","14:08:33","464277185","250817874","5.0.14.0","1","1","demographics","ProlificCode","0","0","0","0","5d8ca1ba53e62800193f9757","1","4964"
"031220","14:08:33","464277185","250817874","5.0.14.0","1","2","demographics","age","0","0","0","0","23","1","6319"
"031220","14:08:33","464277185","250817874","5.0.14.0","1","3","demographics","gender","0","0","0","0","Male","1","6489"
"031220","07:09:21","985276973","209866580","5.0.14.0","1","1","demographics","ProlificCode","0","0","0","0","5d9c7310dc794d0017243e8c","1","5989"
"031220","07:09:21","985276973","209866580","5.0.14.0","1","2","demographics","age","0","0","0","0","37","1","4690"
"031220","07:09:21","985276973","209866580","5.0.14.0","1","3","demographics","gender","0","0","0","0","female","1","3616"
"031220","14:11:56","107533937","613446601","5.0.14.0","1","1","demographics","ProlificCode","0","0","0","0","5e39c4360d41ad1e52de28b2","1","18449"
"031220","14:11:56","107533937","613446601","5.0.14.0","1","2","demographics","age","0","0","0","0","39","1","3909"
"031220","14:11:56","107533937","613446601","5.0.14.0","1","3","demographics","gender","0","0","0","0","Female","1","5303"
"031220","14:11:34","240610899","822995105","5.0.14.0","1","1","demographics","ProlificCode","0","0","0","0","5e4e95b34607d401bfd97b36","1","85308"
"031220","14:11:34","240610899","822995105","5.0.14.0","1","2","demographics","age","0","0","0","0","19","1","3892"
"031220","14:11:34","240610899","822995105","5.0.14.0","1","3","demographics","gender","0","0","0","0","female","1","3240"
"031220","08:13:37","972499827","514045724","5.0.14.0","1","1","demographics","ProlificCode","0","0","0","0","5cd04d27f041d500019058e9","1","13450"
"031220","08:13:37","972499827","514045724","5.0.14.0","1","2","demographics","age","0","0","0","0","31","1","3601"
"031220","08:13:37","972499827","514045724","5.0.14.0","1","3","demographics","gender","0","0","0","0","F","1","3086"
"031220","14:14:17","103354129","717378504","5.0.14.0","1","1","demographics","ProlificCode","0","0","0","0","5e5e8e67524b181b2dec0044","1","26987"
"031220","14:14:17","103354129","717378504","5.0.14.0","1","2","demographics","age","0","0","0","0","33","1","3761"
"031220","14:14:17","103354129","717378504","5.0.14.0","1","3","demographics","gender","0","0","0","0","female","1","4431"
"031220","07:05:58","960614438","422291990","5.0.14.0","1","1","demographics","ProlificCode","0","0","0","0","5e59abf6a2f2c51b5edabbf1","1","8656"
"031220","07:05:58","960614438","422291990","5.0.14.0","1","2","demographics","age","0","0","0","0","37","1","4114"
"031220","07:05:58","960614438","422291990","5.0.14.0","1","3","demographics","gender","0","0","0","0","male","1","5422"
"031220","10:17:06","971706314","83326126","5.0.14.0","1","1","demographics","ProlificCode","0","0","0","0","5c112b5d8124060001bfa35f","1","20667"
"031220","10:17:06","971706314","83326126","5.0.14.0","1","2","demographics","age","0","0","0","0","38","1","4199"
"031220","10:17:06","971706314","83326126","5.0.14.0","1","3","demographics","gender","0","0","0","0","female","1","5123"
"031220","09:16:56","331917110","373858935","5.0.14.0","1","1","demographics","ProlificCode","0","0","0","0","5e134af7a885b9012be5a60b","1","71448"
"031220","09:16:56","331917110","373858935","5.0.14.0","1","2","demographics","age","0","0","0","0","64","1","3225"
"031220","09:16:56","331917110","373858935","5.0.14.0","1","3","demographics","gender","0","0","0","0","male","1","5376"
"031220","10:17:41","743079763","853805174","5.0.14.0","1","1","demographics","ProlificCode","0","0","0","0","5e5f0f0da2255725069e61cc","1","94089"
"031220","10:17:41","743079763","853805174","5.0.14.0","1","2","demographics","age","0","0","0","0","27","1","3199"
"031220","10:17:41","743079763","853805174","5.0.14.0","1","3","demographics","gender","0","0","0","0","Female","1","2730"
"031220","14:20:44","404369571","999285162","5.0.14.0","1","1","demographics","ProlificCode","0","0","0","0","5e4bdb0a5f962e025484358c","1","9915"
"031220","14:20:44","404369571","999285162","5.0.14.0","1","2","demographics","age","0","0","0","0","20 ","1","4643"
"031220","14:20:44","404369571","999285162","5.0.14.0","1","3","demographics","gender","0","0","0","0","Female","1","5643"
"031220","10:25:02","245663721","991318122","5.0.14.0","1","1","demographics","ProlificCode","0","0","0","0","5d810cd0a9311300170dbf8a","1","16931"
"031220","10:25:02","245663721","991318122","5.0.14.0","1","2","demographics","age","0","0","0","0","29","1","7956"
"031220","10:25:02","245663721","991318122","5.0.14.0","1","3","demographics","gender","0","0","0","0","male","1","4464"
"031220","14:28:39","700400010","909306956","5.0.14.0","1","1","demographics","ProlificCode","0","0","0","0","5900f14457d9f20001bc634a","1","9315"
"031220","14:28:39","700400010","909306956","5.0.14.0","1","2","demographics","age","0","0","0","0","19","1","4132"
"031220","14:28:39","700400010","909306956","5.0.14.0","1","3","demographics","gender","0","0","0","0","female","1","4609"
"031220","14:31:01","840282806","644511096","5.0.14.0","1","1","demographics","ProlificCode","0","0","0","0","5e5e8e67524b181b2dec0044","1","13996"
"031220","14:31:01","840282806","644511096","5.0.14.0","1","2","demographics","age","0","0","0","0","33","1","3153"
"031220","14:31:01","840282806","644511096","5.0.14.0","1","3","demographics","gender","0","0","0","0","Female","1","5972"
"031220","15:15:50","969735147","347984914","5.0.14.0","1","1","demographics","ProlificCode","0","0","0","0","5e4d87fef682961ef0ed4593","1","14377"
"031220","15:15:50","969735147","347984914","5.0.14.0","1","2","demographics","age","0","0","0","0","19","1","3840"
"031220","15:15:50","969735147","347984914","5.0.14.0","1","3","demographics","gender","0","0","0","0","male","1","2943"
"031220","15:21:28","934361226","396174257","5.0.14.0","1","1","demographics","ProlificCode","0","0","0","0","5e514faa677c10178f72d490","1","127436"
"031220","15:21:28","934361226","396174257","5.0.14.0","1","2","demographics","age","0","0","0","0","30","1","4939"
"031220","15:21:28","934361226","396174257","5.0.14.0","1","3","demographics","gender","0","0","0","0","female","1","4686"
