"date","time","group","subject","build","blocknum","trialnum","blockcode","trialcode","pretrialpause","posttrialpause","trialduration","trialtimeout","response","correct","latency"
"031220","10:54:33","674273113","323764856","5.0.14.0","1","1","end_of_study_questions_ifirst","awareness","0","0","0","0","more than half","1","7622"
"031220","10:54:33","674273113","323764856","5.0.14.0","1","2","end_of_study_questions_ifirst","influence_general","0","0","0","0","a few","1","2936"
"031220","10:54:33","674273113","323764856","5.0.14.0","1","3","end_of_study_questions_ifirst","intentionality","0","0","0","0","a few","1","1752"
"031220","10:54:33","674273113","323764856","5.0.14.0","1","4","end_of_study_questions_ifirst","unintentionality","0","0","0","0","less than half","1","1724"
"031220","10:54:33","674273113","323764856","5.0.14.0","1","5","end_of_study_questions_ifirst","self_exclusion_1","0","0","0","0","No, exclude my data (please specify why):","1","4718"
"031220","10:54:33","674273113","323764856","5.0.14.0","1","5","end_of_study_questions_ifirst","self_exclusion_1other","0","0","0","0","","1","4718"
"031220","20:54:24","397019712","211285344","5.0.14.0","1","1","end_of_study_questions_ifirst","awareness","0","0","0","0","all","1","22475"
"031220","20:54:24","397019712","211285344","5.0.14.0","1","2","end_of_study_questions_ifirst","influence_general","0","0","0","0","about half","1","7304"
"031220","20:54:24","397019712","211285344","5.0.14.0","1","3","end_of_study_questions_ifirst","intentionality","0","0","0","0","about half","1","7865"
"031220","20:54:24","397019712","211285344","5.0.14.0","1","4","end_of_study_questions_ifirst","unintentionality","0","0","0","0","most","1","6552"
"031220","20:54:24","397019712","211285344","5.0.14.0","1","5","end_of_study_questions_ifirst","self_exclusion_1","0","0","0","0","Yes, use my data","1","16123"
"031220","20:54:24","397019712","211285344","5.0.14.0","1","5","end_of_study_questions_ifirst","self_exclusion_1other","0","0","0","0","","1","16123"
"031220","06:09:38","466998427","141306629","5.0.14.0","1","1","end_of_study_questions_ufirst","awareness","0","0","0","0","all","1","28158"
"031220","06:09:38","466998427","141306629","5.0.14.0","1","2","end_of_study_questions_ufirst","influence_general","0","0","0","0","about half","1","9577"
"031220","06:09:38","466998427","141306629","5.0.14.0","1","3","end_of_study_questions_ufirst","unintentionality","0","0","0","0","less than half","1","8749"
"031220","06:09:38","466998427","141306629","5.0.14.0","1","4","end_of_study_questions_ufirst","intentionality","0","0","0","0","a few","1","6298"
"031220","06:09:38","466998427","141306629","5.0.14.0","1","5","end_of_study_questions_ufirst","self_exclusion_1","0","0","0","0","Yes, use my data","1","7716"
"031220","06:09:38","466998427","141306629","5.0.14.0","1","5","end_of_study_questions_ufirst","self_exclusion_1other","0","0","0","0","","1","7716"
"031220","11:17:02","893264849","100780069","5.0.14.0","1","1","end_of_study_questions_ufirst","awareness","0","0","0","0","all","1","20344"
"031220","11:17:02","893264849","100780069","5.0.14.0","1","2","end_of_study_questions_ufirst","influence_general","0","0","0","0","about half","1","7236"
"031220","11:17:02","893264849","100780069","5.0.14.0","1","3","end_of_study_questions_ufirst","unintentionality","0","0","0","0","more than half","1","8846"
"031220","11:17:02","893264849","100780069","5.0.14.0","1","4","end_of_study_questions_ufirst","intentionality","0","0","0","0","more than half","1","12636"
"031220","11:17:02","893264849","100780069","5.0.14.0","1","5","end_of_study_questions_ufirst","self_exclusion_1","0","0","0","0","Yes, use my data","1","13007"
"031220","11:17:02","893264849","100780069","5.0.14.0","1","5","end_of_study_questions_ufirst","self_exclusion_1other","0","0","0","0","","1","13007"
"031220","11:18:19","762006999","235732843","5.0.14.0","1","1","end_of_study_questions_ufirst","awareness","0","0","0","0","most","1","37876"
"031220","11:18:19","762006999","235732843","5.0.14.0","1","2","end_of_study_questions_ufirst","influence_general","0","0","0","0","a few","1","5886"
"031220","11:18:19","762006999","235732843","5.0.14.0","1","3","end_of_study_questions_ufirst","unintentionality","0","0","0","0","less than half","1","6055"
"031220","11:18:19","762006999","235732843","5.0.14.0","1","4","end_of_study_questions_ufirst","intentionality","0","0","0","0","a few","1","6210"
"031220","11:18:19","762006999","235732843","5.0.14.0","1","5","end_of_study_questions_ufirst","self_exclusion_1","0","0","0","0","Yes, use my data","1","4908"
"031220","11:18:19","762006999","235732843","5.0.14.0","1","5","end_of_study_questions_ufirst","self_exclusion_1other","0","0","0","0","","1","4908"
"031220","11:18:49","338848354","807543404","5.0.14.0","1","1","end_of_study_questions_ifirst","awareness","0","0","0","0","none","1","22997"
"031220","11:18:49","338848354","807543404","5.0.14.0","1","2","end_of_study_questions_ifirst","influence_general","0","0","0","0","none","1","10523"
"031220","11:18:49","338848354","807543404","5.0.14.0","1","3","end_of_study_questions_ifirst","intentionality","0","0","0","0","a few","1","7401"
"031220","11:18:49","338848354","807543404","5.0.14.0","1","4","end_of_study_questions_ifirst","unintentionality","0","0","0","0","none","1","5451"
"031220","11:18:49","338848354","807543404","5.0.14.0","1","5","end_of_study_questions_ifirst","self_exclusion_1","0","0","0","0","Yes, use my data","1","12018"
"031220","11:18:49","338848354","807543404","5.0.14.0","1","5","end_of_study_questions_ifirst","self_exclusion_1other","0","0","0","0","","1","12018"
"031220","11:29:26","783847703","939935663","5.0.14.0","1","1","end_of_study_questions_ufirst","awareness","0","0","0","0","all","1","10327"
"031220","11:29:26","783847703","939935663","5.0.14.0","1","2","end_of_study_questions_ufirst","influence_general","0","0","0","0","about half","1","5849"
"031220","11:29:26","783847703","939935663","5.0.14.0","1","3","end_of_study_questions_ufirst","unintentionality","0","0","0","0","about half","1","3861"
"031220","11:29:26","783847703","939935663","5.0.14.0","1","4","end_of_study_questions_ufirst","intentionality","0","0","0","0","about half","1","5300"
"031220","11:29:26","783847703","939935663","5.0.14.0","1","5","end_of_study_questions_ufirst","self_exclusion_1","0","0","0","0","Yes, use my data","1","9207"
"031220","11:29:26","783847703","939935663","5.0.14.0","1","5","end_of_study_questions_ufirst","self_exclusion_1other","0","0","0","0","","1","9207"
"031320","00:31:38","933229974","27324586","5.0.14.0","1","1","end_of_study_questions_ifirst","awareness","0","0","0","0","all","1","41936"
"031320","00:31:38","933229974","27324586","5.0.14.0","1","2","end_of_study_questions_ifirst","influence_general","0","0","0","0","none","1","7214"
"031320","00:31:38","933229974","27324586","5.0.14.0","1","3","end_of_study_questions_ifirst","intentionality","0","0","0","0","less than half","1","24964"
"031320","00:31:38","933229974","27324586","5.0.14.0","1","4","end_of_study_questions_ifirst","unintentionality","0","0","0","0","a few","1","8053"
"031320","00:31:38","933229974","27324586","5.0.14.0","1","5","end_of_study_questions_ifirst","self_exclusion_1","0","0","0","0","Yes, use my data","1","18836"
"031320","00:31:38","933229974","27324586","5.0.14.0","1","5","end_of_study_questions_ifirst","self_exclusion_1other","0","0","0","0","","1","18836"
"031220","11:34:36","584997702","798482002","5.0.14.0","1","1","end_of_study_questions_ifirst","awareness","0","0","0","0","all","1","20120"
"031220","11:34:36","584997702","798482002","5.0.14.0","1","2","end_of_study_questions_ifirst","influence_general","0","0","0","0","less than half","1","7751"
"031220","11:34:36","584997702","798482002","5.0.14.0","1","3","end_of_study_questions_ifirst","intentionality","0","0","0","0","none","1","11598"
"031220","11:34:36","584997702","798482002","5.0.14.0","1","4","end_of_study_questions_ifirst","unintentionality","0","0","0","0","less than half","1","6471"
"031220","11:34:36","584997702","798482002","5.0.14.0","1","5","end_of_study_questions_ifirst","self_exclusion_1","0","0","0","0","Yes, use my data","1","13706"
"031220","11:34:36","584997702","798482002","5.0.14.0","1","5","end_of_study_questions_ifirst","self_exclusion_1other","0","0","0","0","","1","13706"
"031220","11:34:47","4833775","566602761","5.0.14.0","1","1","end_of_study_questions_ufirst","awareness","0","0","0","0","all","1","19937"
"031220","11:34:47","4833775","566602761","5.0.14.0","1","2","end_of_study_questions_ufirst","influence_general","0","0","0","0","a few","1","7934"
"031220","11:34:47","4833775","566602761","5.0.14.0","1","3","end_of_study_questions_ufirst","unintentionality","0","0","0","0","a few","1","9253"
"031220","11:34:47","4833775","566602761","5.0.14.0","1","4","end_of_study_questions_ufirst","intentionality","0","0","0","0","none","1","7930"
"031220","11:34:47","4833775","566602761","5.0.14.0","1","5","end_of_study_questions_ufirst","self_exclusion_1","0","0","0","0","Yes, use my data","1","21312"
"031220","11:34:47","4833775","566602761","5.0.14.0","1","5","end_of_study_questions_ufirst","self_exclusion_1other","0","0","0","0","","1","21312"
"031220","21:37:14","653759725","307111597","5.0.14.0","1","1","end_of_study_questions_ufirst","awareness","0","0","0","0","most","1","53669"
"031220","21:37:14","653759725","307111597","5.0.14.0","1","2","end_of_study_questions_ufirst","influence_general","0","0","0","0","less than half","1","31615"
"031220","21:37:14","653759725","307111597","5.0.14.0","1","3","end_of_study_questions_ufirst","unintentionality","0","0","0","0","more than half","1","13257"
"031220","21:37:14","653759725","307111597","5.0.14.0","1","4","end_of_study_questions_ufirst","intentionality","0","0","0","0","most","1","11574"
"031220","21:37:14","653759725","307111597","5.0.14.0","1","5","end_of_study_questions_ufirst","self_exclusion_1","0","0","0","0","Yes, use my data","1","34606"
"031220","21:37:14","653759725","307111597","5.0.14.0","1","5","end_of_study_questions_ufirst","self_exclusion_1other","0","0","0","0","","1","34606"
"031220","11:39:07","460324932","190700451","5.0.14.0","1","1","end_of_study_questions_ufirst","awareness","0","0","0","0","all","1","24517"
"031220","11:39:07","460324932","190700451","5.0.14.0","1","2","end_of_study_questions_ufirst","influence_general","0","0","0","0","less than half","1","8380"
"031220","11:39:07","460324932","190700451","5.0.14.0","1","3","end_of_study_questions_ufirst","unintentionality","0","0","0","0","more than half","1","12376"
"031220","11:39:07","460324932","190700451","5.0.14.0","1","4","end_of_study_questions_ufirst","intentionality","0","0","0","0","less than half","1","8359"
"031220","11:39:07","460324932","190700451","5.0.14.0","1","5","end_of_study_questions_ufirst","self_exclusion_1","0","0","0","0","Yes, use my data","1","20556"
"031220","11:39:07","460324932","190700451","5.0.14.0","1","5","end_of_study_questions_ufirst","self_exclusion_1other","0","0","0","0","","1","20556"
"031220","11:41:32","236642377","359842980","5.0.14.0","1","1","end_of_study_questions_ifirst","awareness","0","0","0","0","all","1","11515"
"031220","11:41:32","236642377","359842980","5.0.14.0","1","2","end_of_study_questions_ifirst","influence_general","0","0","0","0","none","1","5160"
"031220","11:41:32","236642377","359842980","5.0.14.0","1","3","end_of_study_questions_ifirst","intentionality","0","0","0","0","none","1","7491"
"031220","11:41:32","236642377","359842980","5.0.14.0","1","4","end_of_study_questions_ifirst","unintentionality","0","0","0","0","none","1","9261"
"031220","11:41:32","236642377","359842980","5.0.14.0","1","5","end_of_study_questions_ifirst","self_exclusion_1","0","0","0","0","Yes, use my data","1","9767"
"031220","11:41:32","236642377","359842980","5.0.14.0","1","5","end_of_study_questions_ifirst","self_exclusion_1other","0","0","0","0","","1","9767"
"031220","11:41:09","473540343","371852658","5.0.14.0","1","1","end_of_study_questions_ifirst","awareness","0","0","0","0","all","1","34179"
"031220","11:41:09","473540343","371852658","5.0.14.0","1","2","end_of_study_questions_ifirst","influence_general","0","0","0","0","most","1","21721"
"031220","11:41:09","473540343","371852658","5.0.14.0","1","3","end_of_study_questions_ifirst","intentionality","0","0","0","0","more than half","1","14598"
"031220","11:41:09","473540343","371852658","5.0.14.0","1","4","end_of_study_questions_ifirst","unintentionality","0","0","0","0","more than half","1","8864"
"031220","11:41:09","473540343","371852658","5.0.14.0","1","5","end_of_study_questions_ifirst","self_exclusion_1","0","0","0","0","Yes, use my data","1","15963"
"031220","11:41:09","473540343","371852658","5.0.14.0","1","5","end_of_study_questions_ifirst","self_exclusion_1other","0","0","0","0","","1","15963"
"031220","11:49:45","985910839","275959242","5.0.14.0","1","1","end_of_study_questions_ifirst","awareness","0","0","0","0","all","1","18386"
"031220","11:49:45","985910839","275959242","5.0.14.0","1","2","end_of_study_questions_ifirst","influence_general","0","0","0","0","none","1","5303"
"031220","11:49:45","985910839","275959242","5.0.14.0","1","3","end_of_study_questions_ifirst","intentionality","0","0","0","0","none","1","8495"
"031220","11:49:45","985910839","275959242","5.0.14.0","1","4","end_of_study_questions_ifirst","unintentionality","0","0","0","0","none","1","5211"
"031220","11:49:45","985910839","275959242","5.0.14.0","1","5","end_of_study_questions_ifirst","self_exclusion_1","0","0","0","0","Yes, use my data","1","16593"
"031220","11:49:45","985910839","275959242","5.0.14.0","1","5","end_of_study_questions_ifirst","self_exclusion_1other","0","0","0","0","","1","16593"
"031220","06:50:32","722474745","851030038","5.0.14.0","1","1","end_of_study_questions_ifirst","awareness","0","0","0","0","most","1","37048"
"031220","06:50:32","722474745","851030038","5.0.14.0","1","2","end_of_study_questions_ifirst","influence_general","0","0","0","0","all","1","6346"
"031220","06:50:32","722474745","851030038","5.0.14.0","1","3","end_of_study_questions_ifirst","intentionality","0","0","0","0","all","1","7363"
"031220","06:50:32","722474745","851030038","5.0.14.0","1","4","end_of_study_questions_ifirst","unintentionality","0","0","0","0","none","1","10464"
"031220","06:50:32","722474745","851030038","5.0.14.0","1","5","end_of_study_questions_ifirst","self_exclusion_1","0","0","0","0","Yes, use my data","1","18257"
"031220","06:50:32","722474745","851030038","5.0.14.0","1","5","end_of_study_questions_ifirst","self_exclusion_1other","0","0","0","0","","1","18257"
"031220","11:51:01","773995000","681665074","5.0.14.0","1","1","end_of_study_questions_ifirst","awareness","0","0","0","0","most","1","18745"
"031220","11:51:01","773995000","681665074","5.0.14.0","1","2","end_of_study_questions_ifirst","influence_general","0","0","0","0","most","1","7275"
"031220","11:51:01","773995000","681665074","5.0.14.0","1","3","end_of_study_questions_ifirst","intentionality","0","0","0","0","more than half","1","8215"
"031220","11:51:01","773995000","681665074","5.0.14.0","1","4","end_of_study_questions_ifirst","unintentionality","0","0","0","0","less than half","1","17655"
"031220","11:51:01","773995000","681665074","5.0.14.0","1","5","end_of_study_questions_ifirst","self_exclusion_1","0","0","0","0","Yes, use my data","1","22028"
"031220","11:51:01","773995000","681665074","5.0.14.0","1","5","end_of_study_questions_ifirst","self_exclusion_1other","0","0","0","0","","1","22028"
"031220","11:51:40","564773130","934184894","5.0.14.0","1","1","end_of_study_questions_ifirst","awareness","0","0","0","0","all","1","25230"
"031220","11:51:40","564773130","934184894","5.0.14.0","1","2","end_of_study_questions_ifirst","influence_general","0","0","0","0","about half","1","8610"
"031220","11:51:40","564773130","934184894","5.0.14.0","1","3","end_of_study_questions_ifirst","intentionality","0","0","0","0","less than half","1","9257"
"031220","11:51:40","564773130","934184894","5.0.14.0","1","4","end_of_study_questions_ifirst","unintentionality","0","0","0","0","more than half","1","7067"
"031220","11:51:40","564773130","934184894","5.0.14.0","1","5","end_of_study_questions_ifirst","self_exclusion_1","0","0","0","0","Yes, use my data","1","11730"
"031220","11:51:40","564773130","934184894","5.0.14.0","1","5","end_of_study_questions_ifirst","self_exclusion_1other","0","0","0","0","","1","11730"
"031220","08:54:00","187565178","657827818","5.0.14.0","1","1","end_of_study_questions_ifirst","awareness","0","0","0","0","all","1","33372"
"031220","08:54:00","187565178","657827818","5.0.14.0","1","2","end_of_study_questions_ifirst","influence_general","0","0","0","0","a few","1","13626"
"031220","08:54:00","187565178","657827818","5.0.14.0","1","3","end_of_study_questions_ifirst","intentionality","0","0","0","0","a few","1","9967"
"031220","08:54:00","187565178","657827818","5.0.14.0","1","4","end_of_study_questions_ifirst","unintentionality","0","0","0","0","none","1","13009"
"031220","08:54:00","187565178","657827818","5.0.14.0","1","5","end_of_study_questions_ifirst","self_exclusion_1","0","0","0","0","Yes, use my data","1","28343"
"031220","08:54:00","187565178","657827818","5.0.14.0","1","5","end_of_study_questions_ifirst","self_exclusion_1other","0","0","0","0","","1","28343"
"031220","11:55:28","971202821","529245839","5.0.14.0","1","1","end_of_study_questions_ufirst","awareness","0","0","0","0","most","1","12358"
"031220","11:55:28","971202821","529245839","5.0.14.0","1","2","end_of_study_questions_ufirst","influence_general","0","0","0","0","none","1","5845"
"031220","11:55:28","971202821","529245839","5.0.14.0","1","3","end_of_study_questions_ufirst","unintentionality","0","0","0","0","none","1","8128"
"031220","11:55:28","971202821","529245839","5.0.14.0","1","4","end_of_study_questions_ufirst","intentionality","0","0","0","0","none","1","4746"
"031220","11:55:28","971202821","529245839","5.0.14.0","1","5","end_of_study_questions_ufirst","self_exclusion_1","0","0","0","0","Yes, use my data","1","6002"
"031220","11:55:28","971202821","529245839","5.0.14.0","1","5","end_of_study_questions_ufirst","self_exclusion_1other","0","0","0","0","","1","6002"
"031220","11:54:48","210909388","783135526","5.0.14.0","1","1","end_of_study_questions_ifirst","awareness","0","0","0","0","all","1","13196"
"031220","11:54:48","210909388","783135526","5.0.14.0","1","2","end_of_study_questions_ifirst","influence_general","0","0","0","0","a few","1","15946"
"031220","11:54:48","210909388","783135526","5.0.14.0","1","3","end_of_study_questions_ifirst","intentionality","0","0","0","0","a few","1","15925"
"031220","11:54:48","210909388","783135526","5.0.14.0","1","4","end_of_study_questions_ifirst","unintentionality","0","0","0","0","most","1","11331"
"031220","11:54:48","210909388","783135526","5.0.14.0","1","5","end_of_study_questions_ifirst","self_exclusion_1","0","0","0","0","Yes, use my data","1","35732"
"031220","11:54:48","210909388","783135526","5.0.14.0","1","5","end_of_study_questions_ifirst","self_exclusion_1other","0","0","0","0","","1","35732"
"031220","11:56:07","420394703","476195033","5.0.14.0","1","1","end_of_study_questions_ufirst","awareness","0","0","0","0","all","1","15343"
"031220","11:56:07","420394703","476195033","5.0.14.0","1","2","end_of_study_questions_ufirst","influence_general","0","0","0","0","about half","1","6180"
"031220","11:56:07","420394703","476195033","5.0.14.0","1","3","end_of_study_questions_ufirst","unintentionality","0","0","0","0","less than half","1","10917"
"031220","11:56:07","420394703","476195033","5.0.14.0","1","4","end_of_study_questions_ufirst","intentionality","0","0","0","0","less than half","1","9896"
"031220","11:56:07","420394703","476195033","5.0.14.0","1","5","end_of_study_questions_ufirst","self_exclusion_1","0","0","0","0","Yes, use my data","1","11892"
"031220","11:56:07","420394703","476195033","5.0.14.0","1","5","end_of_study_questions_ufirst","self_exclusion_1other","0","0","0","0","","1","11892"
"031220","19:56:55","324900586","784622650","5.0.14.0","1","1","end_of_study_questions_ifirst","awareness","0","0","0","0","most","1","11525"
"031220","19:56:55","324900586","784622650","5.0.14.0","1","2","end_of_study_questions_ifirst","influence_general","0","0","0","0","about half","1","7125"
"031220","19:56:55","324900586","784622650","5.0.14.0","1","3","end_of_study_questions_ifirst","intentionality","0","0","0","0","less than half","1","11753"
"031220","19:56:55","324900586","784622650","5.0.14.0","1","4","end_of_study_questions_ifirst","unintentionality","0","0","0","0","a few","1","7860"
"031220","19:56:55","324900586","784622650","5.0.14.0","1","5","end_of_study_questions_ifirst","self_exclusion_1","0","0","0","0","Yes, use my data","1","14853"
"031220","19:56:55","324900586","784622650","5.0.14.0","1","5","end_of_study_questions_ifirst","self_exclusion_1other","0","0","0","0","","1","14853"
"031220","11:57:04","323026927","823364830","5.0.14.0","1","1","end_of_study_questions_ifirst","awareness","0","0","0","0","most","1","14338"
"031220","11:57:04","323026927","823364830","5.0.14.0","1","2","end_of_study_questions_ifirst","influence_general","0","0","0","0","more than half","1","7073"
"031220","11:57:04","323026927","823364830","5.0.14.0","1","3","end_of_study_questions_ifirst","intentionality","0","0","0","0","most","1","6153"
"031220","11:57:04","323026927","823364830","5.0.14.0","1","4","end_of_study_questions_ifirst","unintentionality","0","0","0","0","a few","1","10510"
"031220","11:57:04","323026927","823364830","5.0.14.0","1","5","end_of_study_questions_ifirst","self_exclusion_1","0","0","0","0","Yes, use my data","1","16675"
"031220","11:57:04","323026927","823364830","5.0.14.0","1","5","end_of_study_questions_ifirst","self_exclusion_1other","0","0","0","0","","1","16675"
"031220","11:57:00","368564718","893305361","5.0.14.0","1","1","end_of_study_questions_ufirst","awareness","0","0","0","0","most","1","38090"
"031220","11:57:00","368564718","893305361","5.0.14.0","1","2","end_of_study_questions_ufirst","influence_general","0","0","0","0","less than half","1","10277"
"031220","11:57:00","368564718","893305361","5.0.14.0","1","3","end_of_study_questions_ufirst","unintentionality","0","0","0","0","about half","1","12436"
"031220","11:57:00","368564718","893305361","5.0.14.0","1","4","end_of_study_questions_ufirst","intentionality","0","0","0","0","a few","1","18769"
"031220","11:57:00","368564718","893305361","5.0.14.0","1","5","end_of_study_questions_ufirst","self_exclusion_1","0","0","0","0","Yes, use my data","1","16241"
"031220","11:57:00","368564718","893305361","5.0.14.0","1","5","end_of_study_questions_ufirst","self_exclusion_1other","0","0","0","0","","1","16241"
"031220","11:58:17","98360176","14857997","5.0.14.0","1","1","end_of_study_questions_ufirst","awareness","0","0","0","0","all","1","23363"
"031220","11:58:17","98360176","14857997","5.0.14.0","1","2","end_of_study_questions_ufirst","influence_general","0","0","0","0","less than half","1","10795"
"031220","11:58:17","98360176","14857997","5.0.14.0","1","3","end_of_study_questions_ufirst","unintentionality","0","0","0","0","a few","1","9699"
"031220","11:58:17","98360176","14857997","5.0.14.0","1","4","end_of_study_questions_ufirst","intentionality","0","0","0","0","none","1","13258"
"031220","11:58:17","98360176","14857997","5.0.14.0","1","5","end_of_study_questions_ufirst","self_exclusion_1","0","0","0","0","Yes, use my data","1","19887"
"031220","11:58:17","98360176","14857997","5.0.14.0","1","5","end_of_study_questions_ufirst","self_exclusion_1other","0","0","0","0","","1","19887"
"031220","11:59:58","609538363","889419662","5.0.14.0","1","1","end_of_study_questions_ifirst","awareness","0","0","0","0","all","1","27328"
"031220","11:59:58","609538363","889419662","5.0.14.0","1","2","end_of_study_questions_ifirst","influence_general","0","0","0","0","none","1","7794"
"031220","11:59:58","609538363","889419662","5.0.14.0","1","3","end_of_study_questions_ifirst","intentionality","0","0","0","0","none","1","12911"
"031220","11:59:58","609538363","889419662","5.0.14.0","1","4","end_of_study_questions_ifirst","unintentionality","0","0","0","0","none","1","8127"
"031220","11:59:58","609538363","889419662","5.0.14.0","1","5","end_of_study_questions_ifirst","self_exclusion_1","0","0","0","0","Yes, use my data","1","12305"
"031220","11:59:58","609538363","889419662","5.0.14.0","1","5","end_of_study_questions_ifirst","self_exclusion_1other","0","0","0","0","","1","12305"
"031220","11:58:42","422902133","228402747","5.0.14.0","1","1","end_of_study_questions_ufirst","awareness","0","0","0","0","all","1","21006"
"031220","11:58:42","422902133","228402747","5.0.14.0","1","2","end_of_study_questions_ufirst","influence_general","0","0","0","0","about half","1","11131"
"031220","11:58:42","422902133","228402747","5.0.14.0","1","3","end_of_study_questions_ufirst","unintentionality","0","0","0","0","about half","1","7365"
"031220","11:58:42","422902133","228402747","5.0.14.0","1","4","end_of_study_questions_ufirst","intentionality","0","0","0","0","less than half","1","10950"
"031220","11:58:42","422902133","228402747","5.0.14.0","1","5","end_of_study_questions_ufirst","self_exclusion_1","0","0","0","0","No, exclude my data (please specify why):","1","131211"
"031220","11:58:42","422902133","228402747","5.0.14.0","1","5","end_of_study_questions_ufirst","self_exclusion_1other","0","0","0","0","I figured out the pictures were repeated so whenever I knew there was the puppies for example, I clicked appealing. In the first task, if the chinese symbol had a box, I clicked appealing and sometimes didn't really pay attention to the image.","1","131211"
"031220","23:00:41","470683520","930819324","5.0.14.0","1","1","end_of_study_questions_ifirst","awareness","0","0","0","0","all","1","29151"
"031220","23:00:41","470683520","930819324","5.0.14.0","1","2","end_of_study_questions_ifirst","influence_general","0","0","0","0","a few","1","19490"
"031220","23:00:41","470683520","930819324","5.0.14.0","1","3","end_of_study_questions_ifirst","intentionality","0","0","0","0","none","1","10336"
"031220","23:00:41","470683520","930819324","5.0.14.0","1","4","end_of_study_questions_ifirst","unintentionality","0","0","0","0","a few","1","7669"
"031220","23:00:41","470683520","930819324","5.0.14.0","1","5","end_of_study_questions_ifirst","self_exclusion_1","0","0","0","0","Yes, use my data","1","14205"
"031220","23:00:41","470683520","930819324","5.0.14.0","1","5","end_of_study_questions_ifirst","self_exclusion_1other","0","0","0","0","","1","14205"
"031220","23:02:07","905801122","55070196","5.0.14.0","1","1","end_of_study_questions_ifirst","awareness","0","0","0","0","all","1","36761"
"031220","23:02:07","905801122","55070196","5.0.14.0","1","2","end_of_study_questions_ifirst","influence_general","0","0","0","0","about half","1","7698"
"031220","23:02:07","905801122","55070196","5.0.14.0","1","3","end_of_study_questions_ifirst","intentionality","0","0","0","0","about half","1","7364"
"031220","23:02:07","905801122","55070196","5.0.14.0","1","4","end_of_study_questions_ifirst","unintentionality","0","0","0","0","about half","1","6813"
"031220","23:02:07","905801122","55070196","5.0.14.0","1","5","end_of_study_questions_ifirst","self_exclusion_1","0","0","0","0","Yes, use my data","1","8908"
"031220","23:02:07","905801122","55070196","5.0.14.0","1","5","end_of_study_questions_ifirst","self_exclusion_1other","0","0","0","0","","1","8908"
"031220","12:02:19","596612601","127170777","5.0.14.0","1","1","end_of_study_questions_ufirst","awareness","0","0","0","0","most","1","28299"
"031220","12:02:19","596612601","127170777","5.0.14.0","1","2","end_of_study_questions_ufirst","influence_general","0","0","0","0","none","1","9339"
"031220","12:02:19","596612601","127170777","5.0.14.0","1","3","end_of_study_questions_ufirst","unintentionality","0","0","0","0","none","1","8716"
"031220","12:02:19","596612601","127170777","5.0.14.0","1","4","end_of_study_questions_ufirst","intentionality","0","0","0","0","about half","1","21517"
"031220","12:02:19","596612601","127170777","5.0.14.0","1","5","end_of_study_questions_ufirst","self_exclusion_1","0","0","0","0","Yes, use my data","1","14068"
"031220","12:02:19","596612601","127170777","5.0.14.0","1","5","end_of_study_questions_ufirst","self_exclusion_1other","0","0","0","0","","1","14068"
"031220","12:03:11","22294443","87508304","5.0.14.0","1","1","end_of_study_questions_ifirst","awareness","0","0","0","0","all","1","11109"
"031220","12:03:11","22294443","87508304","5.0.14.0","1","2","end_of_study_questions_ifirst","influence_general","0","0","0","0","more than half","1","8187"
"031220","12:03:11","22294443","87508304","5.0.14.0","1","3","end_of_study_questions_ifirst","intentionality","0","0","0","0","about half","1","7737"
"031220","12:03:11","22294443","87508304","5.0.14.0","1","4","end_of_study_questions_ifirst","unintentionality","0","0","0","0","more than half","1","5398"
"031220","12:03:11","22294443","87508304","5.0.14.0","1","5","end_of_study_questions_ifirst","self_exclusion_1","0","0","0","0","Yes, use my data","1","12909"
"031220","12:03:11","22294443","87508304","5.0.14.0","1","5","end_of_study_questions_ifirst","self_exclusion_1other","0","0","0","0","","1","12909"
"031220","23:04:23","561316969","399554352","5.0.14.0","1","1","end_of_study_questions_ifirst","awareness","0","0","0","0","all","1","27815"
"031220","23:04:23","561316969","399554352","5.0.14.0","1","2","end_of_study_questions_ifirst","influence_general","0","0","0","0","most","1","9187"
"031220","23:04:23","561316969","399554352","5.0.14.0","1","3","end_of_study_questions_ifirst","intentionality","0","0","0","0","about half","1","5832"
"031220","23:04:23","561316969","399554352","5.0.14.0","1","4","end_of_study_questions_ifirst","unintentionality","0","0","0","0","about half","1","2601"
"031220","23:04:23","561316969","399554352","5.0.14.0","1","5","end_of_study_questions_ifirst","self_exclusion_1","0","0","0","0","Yes, use my data","1","10082"
"031220","23:04:23","561316969","399554352","5.0.14.0","1","5","end_of_study_questions_ifirst","self_exclusion_1other","0","0","0","0","","1","10082"
"031220","12:05:07","804774024","40339482","5.0.14.0","1","1","end_of_study_questions_ifirst","awareness","0","0","0","0","all","1","17414"
"031220","12:05:07","804774024","40339482","5.0.14.0","1","2","end_of_study_questions_ifirst","influence_general","0","0","0","0","a few","1","8452"
"031220","12:05:07","804774024","40339482","5.0.14.0","1","3","end_of_study_questions_ifirst","intentionality","0","0","0","0","a few","1","8795"
"031220","12:05:07","804774024","40339482","5.0.14.0","1","4","end_of_study_questions_ifirst","unintentionality","0","0","0","0","a few","1","8413"
"031220","12:05:07","804774024","40339482","5.0.14.0","1","5","end_of_study_questions_ifirst","self_exclusion_1","0","0","0","0","Yes, use my data","1","13600"
"031220","12:05:07","804774024","40339482","5.0.14.0","1","5","end_of_study_questions_ifirst","self_exclusion_1other","0","0","0","0","","1","13600"
"031220","12:05:31","822685828","713140717","5.0.14.0","1","1","end_of_study_questions_ufirst","awareness","0","0","0","0","all","1","21298"
"031220","12:05:31","822685828","713140717","5.0.14.0","1","2","end_of_study_questions_ufirst","influence_general","0","0","0","0","more than half","1","7567"
"031220","12:05:31","822685828","713140717","5.0.14.0","1","3","end_of_study_questions_ufirst","unintentionality","0","0","0","0","less than half","1","9015"
"031220","12:05:31","822685828","713140717","5.0.14.0","1","4","end_of_study_questions_ufirst","intentionality","0","0","0","0","about half","1","10148"
"031220","12:05:31","822685828","713140717","5.0.14.0","1","5","end_of_study_questions_ufirst","self_exclusion_1","0","0","0","0","Yes, use my data","1","10930"
"031220","12:05:31","822685828","713140717","5.0.14.0","1","5","end_of_study_questions_ufirst","self_exclusion_1other","0","0","0","0","","1","10930"
"031220","12:05:46","391440383","144386175","5.0.14.0","1","1","end_of_study_questions_ufirst","awareness","0","0","0","0","most","1","17891"
"031220","12:05:46","391440383","144386175","5.0.14.0","1","2","end_of_study_questions_ufirst","influence_general","0","0","0","0","less than half","1","11130"
"031220","12:05:46","391440383","144386175","5.0.14.0","1","3","end_of_study_questions_ufirst","unintentionality","0","0","0","0","more than half","1","9145"
"031220","12:05:46","391440383","144386175","5.0.14.0","1","4","end_of_study_questions_ufirst","intentionality","0","0","0","0","most","1","15938"
"031220","12:05:46","391440383","144386175","5.0.14.0","1","5","end_of_study_questions_ufirst","self_exclusion_1","0","0","0","0","Yes, use my data","1","11777"
"031220","12:05:46","391440383","144386175","5.0.14.0","1","5","end_of_study_questions_ufirst","self_exclusion_1other","0","0","0","0","","1","11777"
"031220","12:05:49","216670384","239287828","5.0.14.0","1","1","end_of_study_questions_ifirst","awareness","0","0","0","0","more than half","1","33887"
"031220","12:05:49","216670384","239287828","5.0.14.0","1","2","end_of_study_questions_ifirst","influence_general","0","0","0","0","most","1","7127"
"031220","12:05:49","216670384","239287828","5.0.14.0","1","3","end_of_study_questions_ifirst","intentionality","0","0","0","0","a few","1","13015"
"031220","12:05:49","216670384","239287828","5.0.14.0","1","4","end_of_study_questions_ifirst","unintentionality","0","0","0","0","less than half","1","10511"
"031220","12:05:49","216670384","239287828","5.0.14.0","1","5","end_of_study_questions_ifirst","self_exclusion_1","0","0","0","0","Yes, use my data","1","27666"
"031220","12:05:49","216670384","239287828","5.0.14.0","1","5","end_of_study_questions_ifirst","self_exclusion_1other","0","0","0","0","","1","27666"
"031220","12:06:39","670972555","712507149","5.0.14.0","1","1","end_of_study_questions_ufirst","awareness","0","0","0","0","all","1","17391"
"031220","12:06:39","670972555","712507149","5.0.14.0","1","2","end_of_study_questions_ufirst","influence_general","0","0","0","0","about half","1","13809"
"031220","12:06:39","670972555","712507149","5.0.14.0","1","3","end_of_study_questions_ufirst","unintentionality","0","0","0","0","more than half","1","11820"
"031220","12:06:39","670972555","712507149","5.0.14.0","1","4","end_of_study_questions_ufirst","intentionality","0","0","0","0","none","1","15329"
"031220","12:06:39","670972555","712507149","5.0.14.0","1","5","end_of_study_questions_ufirst","self_exclusion_1","0","0","0","0","Yes, use my data","1","15806"
"031220","12:06:39","670972555","712507149","5.0.14.0","1","5","end_of_study_questions_ufirst","self_exclusion_1other","0","0","0","0","","1","15806"
"031220","12:06:45","838613395","155431522","5.0.14.0","1","1","end_of_study_questions_ifirst","awareness","0","0","0","0","all","1","27229"
"031220","12:06:45","838613395","155431522","5.0.14.0","1","2","end_of_study_questions_ifirst","influence_general","0","0","0","0","less than half","1","8361"
"031220","12:06:45","838613395","155431522","5.0.14.0","1","3","end_of_study_questions_ifirst","intentionality","0","0","0","0","a few","1","6723"
"031220","12:06:45","838613395","155431522","5.0.14.0","1","4","end_of_study_questions_ifirst","unintentionality","0","0","0","0","a few","1","5323"
"031220","12:06:45","838613395","155431522","5.0.14.0","1","5","end_of_study_questions_ifirst","self_exclusion_1","0","0","0","0","Yes, use my data","1","20861"
"031220","12:06:45","838613395","155431522","5.0.14.0","1","5","end_of_study_questions_ifirst","self_exclusion_1other","0","0","0","0","","1","20861"
"031220","08:06:58","764670887","806765634","5.0.14.0","1","1","end_of_study_questions_ifirst","awareness","0","0","0","0","all","1","27596"
"031220","08:06:58","764670887","806765634","5.0.14.0","1","2","end_of_study_questions_ifirst","influence_general","0","0","0","0","a few","1","17621"
"031220","08:06:58","764670887","806765634","5.0.14.0","1","3","end_of_study_questions_ifirst","intentionality","0","0","0","0","a few","1","8196"
"031220","08:06:58","764670887","806765634","5.0.14.0","1","4","end_of_study_questions_ifirst","unintentionality","0","0","0","0","a few","1","7900"
"031220","08:06:58","764670887","806765634","5.0.14.0","1","5","end_of_study_questions_ifirst","self_exclusion_1","0","0","0","0","Yes, use my data","1","10480"
"031220","08:06:58","764670887","806765634","5.0.14.0","1","5","end_of_study_questions_ifirst","self_exclusion_1other","0","0","0","0","","1","10480"
"031220","12:09:12","276570987","222387048","5.0.14.0","1","1","end_of_study_questions_ifirst","awareness","0","0","0","0","all","1","9047"
"031220","12:09:12","276570987","222387048","5.0.14.0","1","2","end_of_study_questions_ifirst","influence_general","0","0","0","0","all","1","6954"
"031220","12:09:12","276570987","222387048","5.0.14.0","1","3","end_of_study_questions_ifirst","intentionality","0","0","0","0","more than half","1","5135"
"031220","12:09:12","276570987","222387048","5.0.14.0","1","4","end_of_study_questions_ifirst","unintentionality","0","0","0","0","more than half","1","3230"
"031220","12:09:12","276570987","222387048","5.0.14.0","1","5","end_of_study_questions_ifirst","self_exclusion_1","0","0","0","0","Yes, use my data","1","6358"
"031220","12:09:12","276570987","222387048","5.0.14.0","1","5","end_of_study_questions_ifirst","self_exclusion_1other","0","0","0","0","","1","6358"
"031220","12:09:03","165603955","235898901","5.0.14.0","1","1","end_of_study_questions_ufirst","awareness","0","0","0","0","all","1","23128"
"031220","12:09:03","165603955","235898901","5.0.14.0","1","2","end_of_study_questions_ufirst","influence_general","0","0","0","0","most","1","5824"
"031220","12:09:03","165603955","235898901","5.0.14.0","1","3","end_of_study_questions_ufirst","unintentionality","0","0","0","0","more than half","1","8362"
"031220","12:09:03","165603955","235898901","5.0.14.0","1","4","end_of_study_questions_ufirst","intentionality","0","0","0","0","less than half","1","11249"
"031220","12:09:03","165603955","235898901","5.0.14.0","1","5","end_of_study_questions_ufirst","self_exclusion_1","0","0","0","0","Yes, use my data","1","12506"
"031220","12:09:03","165603955","235898901","5.0.14.0","1","5","end_of_study_questions_ufirst","self_exclusion_1other","0","0","0","0","","1","12506"
"031220","12:09:34","917779840","191743394","5.0.14.0","1","1","end_of_study_questions_ifirst","awareness","0","0","0","0","all","1","11082"
"031220","12:09:34","917779840","191743394","5.0.14.0","1","2","end_of_study_questions_ifirst","influence_general","0","0","0","0","a few","1","5021"
"031220","12:09:34","917779840","191743394","5.0.14.0","1","3","end_of_study_questions_ifirst","intentionality","0","0","0","0","all","1","11975"
"031220","12:09:34","917779840","191743394","5.0.14.0","1","4","end_of_study_questions_ifirst","unintentionality","0","0","0","0","all","1","9191"
"031220","12:09:34","917779840","191743394","5.0.14.0","1","5","end_of_study_questions_ifirst","self_exclusion_1","0","0","0","0","Yes, use my data","1","8328"
"031220","12:09:34","917779840","191743394","5.0.14.0","1","5","end_of_study_questions_ifirst","self_exclusion_1other","0","0","0","0","","1","8328"
"031220","12:09:29","1548609","144843164","5.0.14.0","1","1","end_of_study_questions_ifirst","awareness","0","0","0","0","all","1","15833"
"031220","12:09:29","1548609","144843164","5.0.14.0","1","2","end_of_study_questions_ifirst","influence_general","0","0","0","0","none","1","6978"
"031220","12:09:29","1548609","144843164","5.0.14.0","1","3","end_of_study_questions_ifirst","intentionality","0","0","0","0","none","1","4153"
"031220","12:09:29","1548609","144843164","5.0.14.0","1","4","end_of_study_questions_ifirst","unintentionality","0","0","0","0","none","1","7654"
"031220","12:09:29","1548609","144843164","5.0.14.0","1","5","end_of_study_questions_ifirst","self_exclusion_1","0","0","0","0","Yes, use my data","1","21045"
"031220","12:09:29","1548609","144843164","5.0.14.0","1","5","end_of_study_questions_ifirst","self_exclusion_1other","0","0","0","0","","1","21045"
"031220","12:09:38","492794959","501249961","5.0.14.0","1","1","end_of_study_questions_ufirst","awareness","0","0","0","0","most","1","27537"
"031220","12:09:38","492794959","501249961","5.0.14.0","1","2","end_of_study_questions_ufirst","influence_general","0","0","0","0","most","1","5935"
"031220","12:09:38","492794959","501249961","5.0.14.0","1","3","end_of_study_questions_ufirst","unintentionality","0","0","0","0","most","1","5670"
"031220","12:09:38","492794959","501249961","5.0.14.0","1","4","end_of_study_questions_ufirst","intentionality","0","0","0","0","less than half","1","5871"
"031220","12:09:38","492794959","501249961","5.0.14.0","1","5","end_of_study_questions_ufirst","self_exclusion_1","0","0","0","0","Yes, use my data","1","12023"
"031220","12:09:38","492794959","501249961","5.0.14.0","1","5","end_of_study_questions_ufirst","self_exclusion_1other","0","0","0","0","","1","12023"
"031220","12:09:55","517017822","477027098","5.0.14.0","1","1","end_of_study_questions_ifirst","awareness","0","0","0","0","most","1","7975"
"031220","12:09:55","517017822","477027098","5.0.14.0","1","2","end_of_study_questions_ifirst","influence_general","0","0","0","0","less than half","1","5835"
"031220","12:09:55","517017822","477027098","5.0.14.0","1","3","end_of_study_questions_ifirst","intentionality","0","0","0","0","less than half","1","4985"
"031220","12:09:55","517017822","477027098","5.0.14.0","1","4","end_of_study_questions_ifirst","unintentionality","0","0","0","0","a few","1","3906"
"031220","12:09:55","517017822","477027098","5.0.14.0","1","5","end_of_study_questions_ifirst","self_exclusion_1","0","0","0","0","Yes, use my data","1","12288"
"031220","12:09:55","517017822","477027098","5.0.14.0","1","5","end_of_study_questions_ifirst","self_exclusion_1other","0","0","0","0","","1","12288"
"031220","12:10:01","118891969","416617829","5.0.14.0","1","1","end_of_study_questions_ufirst","awareness","0","0","0","0","all","1","77942"
"031220","12:10:01","118891969","416617829","5.0.14.0","1","2","end_of_study_questions_ufirst","influence_general","0","0","0","0","about half","1","9887"
"031220","12:10:01","118891969","416617829","5.0.14.0","1","3","end_of_study_questions_ufirst","unintentionality","0","0","0","0","about half","1","16537"
"031220","12:10:01","118891969","416617829","5.0.14.0","1","4","end_of_study_questions_ufirst","intentionality","0","0","0","0","none","1","11239"
"031220","12:10:01","118891969","416617829","5.0.14.0","1","5","end_of_study_questions_ufirst","self_exclusion_1","0","0","0","0","Yes, use my data","1","17746"
"031220","12:10:01","118891969","416617829","5.0.14.0","1","5","end_of_study_questions_ufirst","self_exclusion_1other","0","0","0","0","","1","17746"
"031220","12:14:24","122159831","24231941","5.0.14.0","1","1","end_of_study_questions_ufirst","awareness","0","0","0","0","more than half","1","15612"
"031220","12:14:24","122159831","24231941","5.0.14.0","1","2","end_of_study_questions_ufirst","influence_general","0","0","0","0","less than half","1","7088"
"031220","12:14:24","122159831","24231941","5.0.14.0","1","3","end_of_study_questions_ufirst","unintentionality","0","0","0","0","less than half","1","8065"
"031220","12:14:24","122159831","24231941","5.0.14.0","1","4","end_of_study_questions_ufirst","intentionality","0","0","0","0","about half","1","5981"
"031220","12:14:24","122159831","24231941","5.0.14.0","1","5","end_of_study_questions_ufirst","self_exclusion_1","0","0","0","0","Yes, use my data","1","27965"
"031220","12:14:24","122159831","24231941","5.0.14.0","1","5","end_of_study_questions_ufirst","self_exclusion_1other","0","0","0","0","","1","27965"
"031220","12:14:52","899448239","210074995","5.0.14.0","1","1","end_of_study_questions_ufirst","awareness","0","0","0","0","all","1","15296"
"031220","12:14:52","899448239","210074995","5.0.14.0","1","2","end_of_study_questions_ufirst","influence_general","0","0","0","0","none","1","6859"
"031220","12:14:52","899448239","210074995","5.0.14.0","1","3","end_of_study_questions_ufirst","unintentionality","0","0","0","0","none","1","5296"
"031220","12:14:52","899448239","210074995","5.0.14.0","1","4","end_of_study_questions_ufirst","intentionality","0","0","0","0","none","1","4358"
"031220","12:14:52","899448239","210074995","5.0.14.0","1","5","end_of_study_questions_ufirst","self_exclusion_1","0","0","0","0","Yes, use my data","1","14593"
"031220","12:14:52","899448239","210074995","5.0.14.0","1","5","end_of_study_questions_ufirst","self_exclusion_1other","0","0","0","0","","1","14593"
"031220","12:14:38","345505434","110452783","5.0.14.0","1","1","end_of_study_questions_ufirst","awareness","0","0","0","0","all","1","16843"
"031220","12:14:38","345505434","110452783","5.0.14.0","1","2","end_of_study_questions_ufirst","influence_general","0","0","0","0","most","1","5532"
"031220","12:14:38","345505434","110452783","5.0.14.0","1","3","end_of_study_questions_ufirst","unintentionality","0","0","0","0","about half","1","37628"
"031220","12:14:38","345505434","110452783","5.0.14.0","1","4","end_of_study_questions_ufirst","intentionality","0","0","0","0","most","1","8524"
"031220","12:14:38","345505434","110452783","5.0.14.0","1","5","end_of_study_questions_ufirst","self_exclusion_1","0","0","0","0","Yes, use my data","1","12160"
"031220","12:14:38","345505434","110452783","5.0.14.0","1","5","end_of_study_questions_ufirst","self_exclusion_1other","0","0","0","0","","1","12160"
"031220","12:15:15","240528571","258429468","5.0.14.0","1","1","end_of_study_questions_ifirst","awareness","0","0","0","0","all","1","21553"
"031220","12:15:15","240528571","258429468","5.0.14.0","1","2","end_of_study_questions_ifirst","influence_general","0","0","0","0","more than half","1","7594"
"031220","12:15:15","240528571","258429468","5.0.14.0","1","3","end_of_study_questions_ifirst","intentionality","0","0","0","0","more than half","1","10093"
"031220","12:15:15","240528571","258429468","5.0.14.0","1","4","end_of_study_questions_ifirst","unintentionality","0","0","0","0","less than half","1","11615"
"031220","12:15:15","240528571","258429468","5.0.14.0","1","5","end_of_study_questions_ifirst","self_exclusion_1","0","0","0","0","Yes, use my data","1","12365"
"031220","12:15:15","240528571","258429468","5.0.14.0","1","5","end_of_study_questions_ifirst","self_exclusion_1other","0","0","0","0","","1","12365"
"031220","12:14:53","325747893","172893383","5.0.14.0","1","1","end_of_study_questions_ufirst","awareness","0","0","0","0","all","1","43852"
"031220","12:14:53","325747893","172893383","5.0.14.0","1","2","end_of_study_questions_ufirst","influence_general","0","0","0","0","a few","1","9223"
"031220","12:14:53","325747893","172893383","5.0.14.0","1","3","end_of_study_questions_ufirst","unintentionality","0","0","0","0","a few","1","14038"
"031220","12:14:53","325747893","172893383","5.0.14.0","1","4","end_of_study_questions_ufirst","intentionality","0","0","0","0","none","1","18993"
"031220","12:14:53","325747893","172893383","5.0.14.0","1","5","end_of_study_questions_ufirst","self_exclusion_1","0","0","0","0","Yes, use my data","1","19138"
"031220","12:14:53","325747893","172893383","5.0.14.0","1","5","end_of_study_questions_ufirst","self_exclusion_1other","0","0","0","0","","1","19138"
"031220","12:18:52","186820716","269137496","5.0.14.0","1","1","end_of_study_questions_ifirst","awareness","0","0","0","0","all","1","20701"
"031220","12:18:52","186820716","269137496","5.0.14.0","1","2","end_of_study_questions_ifirst","influence_general","0","0","0","0","less than half","1","9838"
"031220","12:18:52","186820716","269137496","5.0.14.0","1","3","end_of_study_questions_ifirst","intentionality","0","0","0","0","a few","1","6695"
"031220","12:18:52","186820716","269137496","5.0.14.0","1","4","end_of_study_questions_ifirst","unintentionality","0","0","0","0","less than half","1","10745"
"031220","12:18:52","186820716","269137496","5.0.14.0","1","5","end_of_study_questions_ifirst","self_exclusion_1","0","0","0","0","Yes, use my data","1","11746"
"031220","12:18:52","186820716","269137496","5.0.14.0","1","5","end_of_study_questions_ifirst","self_exclusion_1other","0","0","0","0","","1","11746"
"031220","12:19:19","215944051","239734667","5.0.14.0","1","1","end_of_study_questions_ufirst","awareness","0","0","0","0","all","1","37504"
"031220","12:19:19","215944051","239734667","5.0.14.0","1","2","end_of_study_questions_ufirst","influence_general","0","0","0","0","most","1","9152"
"031220","12:19:19","215944051","239734667","5.0.14.0","1","3","end_of_study_questions_ufirst","unintentionality","0","0","0","0","more than half","1","13315"
"031220","12:19:19","215944051","239734667","5.0.14.0","1","4","end_of_study_questions_ufirst","intentionality","0","0","0","0","more than half","1","10226"
"031220","12:19:19","215944051","239734667","5.0.14.0","1","5","end_of_study_questions_ufirst","self_exclusion_1","0","0","0","0","Yes, use my data","1","19089"
"031220","12:19:19","215944051","239734667","5.0.14.0","1","5","end_of_study_questions_ufirst","self_exclusion_1other","0","0","0","0","","1","19089"
"031220","12:22:34","862723677","343432499","5.0.14.0","1","1","end_of_study_questions_ufirst","awareness","0","0","0","0","all","1","13862"
"031220","12:22:34","862723677","343432499","5.0.14.0","1","2","end_of_study_questions_ufirst","influence_general","0","0","0","0","more than half","1","7285"
"031220","12:22:34","862723677","343432499","5.0.14.0","1","3","end_of_study_questions_ufirst","unintentionality","0","0","0","0","more than half","1","8265"
"031220","12:22:34","862723677","343432499","5.0.14.0","1","4","end_of_study_questions_ufirst","intentionality","0","0","0","0","about half","1","10302"
"031220","12:22:34","862723677","343432499","5.0.14.0","1","5","end_of_study_questions_ufirst","self_exclusion_1","0","0","0","0","Yes, use my data","1","10537"
"031220","12:22:34","862723677","343432499","5.0.14.0","1","5","end_of_study_questions_ufirst","self_exclusion_1other","0","0","0","0","","1","10537"
"031220","12:22:41","936533601","176684558","5.0.14.0","1","1","end_of_study_questions_ifirst","awareness","0","0","0","0","all","1","21399"
"031220","12:22:41","936533601","176684558","5.0.14.0","1","2","end_of_study_questions_ifirst","influence_general","0","0","0","0","most","1","10449"
"031220","12:22:41","936533601","176684558","5.0.14.0","1","3","end_of_study_questions_ifirst","intentionality","0","0","0","0","about half","1","16163"
"031220","12:22:41","936533601","176684558","5.0.14.0","1","4","end_of_study_questions_ifirst","unintentionality","0","0","0","0","a few","1","5353"
"031220","12:22:41","936533601","176684558","5.0.14.0","1","5","end_of_study_questions_ifirst","self_exclusion_1","0","0","0","0","Yes, use my data","1","10771"
"031220","12:22:41","936533601","176684558","5.0.14.0","1","5","end_of_study_questions_ifirst","self_exclusion_1other","0","0","0","0","","1","10771"
"031220","12:25:46","395523909","255780972","5.0.14.0","1","1","end_of_study_questions_ifirst","awareness","0","0","0","0","all","1","10428"
"031220","12:25:46","395523909","255780972","5.0.14.0","1","2","end_of_study_questions_ifirst","influence_general","0","0","0","0","most","1","4181"
"031220","12:25:46","395523909","255780972","5.0.14.0","1","3","end_of_study_questions_ifirst","intentionality","0","0","0","0","more than half","1","7319"
"031220","12:25:46","395523909","255780972","5.0.14.0","1","4","end_of_study_questions_ifirst","unintentionality","0","0","0","0","about half","1","6310"
"031220","12:25:46","395523909","255780972","5.0.14.0","1","5","end_of_study_questions_ifirst","self_exclusion_1","0","0","0","0","Yes, use my data","1","3770"
"031220","12:25:46","395523909","255780972","5.0.14.0","1","5","end_of_study_questions_ifirst","self_exclusion_1other","0","0","0","0","","1","3770"
"031220","23:24:38","507099536","948858671","5.0.14.0","1","1","end_of_study_questions_ufirst","awareness","0","0","0","0","more than half","1","15405"
"031220","23:24:38","507099536","948858671","5.0.14.0","1","2","end_of_study_questions_ufirst","influence_general","0","0","0","0","about half","1","8998"
"031220","23:24:38","507099536","948858671","5.0.14.0","1","3","end_of_study_questions_ufirst","unintentionality","0","0","0","0","about half","1","6586"
"031220","23:24:38","507099536","948858671","5.0.14.0","1","4","end_of_study_questions_ufirst","intentionality","0","0","0","0","less than half","1","7948"
"031220","23:24:38","507099536","948858671","5.0.14.0","1","5","end_of_study_questions_ufirst","self_exclusion_1","0","0","0","0","No, exclude my data (please specify why):","1","74762"
"031220","23:24:38","507099536","948858671","5.0.14.0","1","5","end_of_study_questions_ufirst","self_exclusion_1other","0","0","0","0","I was falling asleep during the last part so my response times aren't as sharp and I kept missing the pictures and chinese characters.","1","74762"
"031220","12:26:09","361304937","289999943","5.0.14.0","1","1","end_of_study_questions_ufirst","awareness","0","0","0","0","all","1","23951"
"031220","12:26:09","361304937","289999943","5.0.14.0","1","2","end_of_study_questions_ufirst","influence_general","0","0","0","0","a few","1","10176"
"031220","12:26:09","361304937","289999943","5.0.14.0","1","3","end_of_study_questions_ufirst","unintentionality","0","0","0","0","a few","1","9605"
"031220","12:26:09","361304937","289999943","5.0.14.0","1","4","end_of_study_questions_ufirst","intentionality","0","0","0","0","none","1","10888"
"031220","12:26:09","361304937","289999943","5.0.14.0","1","5","end_of_study_questions_ufirst","self_exclusion_1","0","0","0","0","Yes, use my data","1","22463"
"031220","12:26:09","361304937","289999943","5.0.14.0","1","5","end_of_study_questions_ufirst","self_exclusion_1other","0","0","0","0","","1","22463"
"031220","12:26:39","197758346","546484547","5.0.14.0","1","1","end_of_study_questions_ufirst","awareness","0","0","0","0","most","1","17306"
"031220","12:26:39","197758346","546484547","5.0.14.0","1","2","end_of_study_questions_ufirst","influence_general","0","0","0","0","a few","1","8232"
"031220","12:26:39","197758346","546484547","5.0.14.0","1","3","end_of_study_questions_ufirst","unintentionality","0","0","0","0","a few","1","7462"
"031220","12:26:39","197758346","546484547","5.0.14.0","1","4","end_of_study_questions_ufirst","intentionality","0","0","0","0","a few","1","8662"
"031220","12:26:39","197758346","546484547","5.0.14.0","1","5","end_of_study_questions_ufirst","self_exclusion_1","0","0","0","0","Yes, use my data","1","93027"
"031220","12:26:39","197758346","546484547","5.0.14.0","1","5","end_of_study_questions_ufirst","self_exclusion_1other","0","0","0","0","","1","93027"
"031220","12:28:13","247512559","288314001","5.0.14.0","1","1","end_of_study_questions_ufirst","awareness","0","0","0","0","all","1","27642"
"031220","12:28:13","247512559","288314001","5.0.14.0","1","2","end_of_study_questions_ufirst","influence_general","0","0","0","0","less than half","1","6140"
"031220","12:28:13","247512559","288314001","5.0.14.0","1","3","end_of_study_questions_ufirst","unintentionality","0","0","0","0","about half","1","6918"
"031220","12:28:13","247512559","288314001","5.0.14.0","1","4","end_of_study_questions_ufirst","intentionality","0","0","0","0","none","1","7397"
"031220","12:28:13","247512559","288314001","5.0.14.0","1","5","end_of_study_questions_ufirst","self_exclusion_1","0","0","0","0","Yes, use my data","1","17570"
"031220","12:28:13","247512559","288314001","5.0.14.0","1","5","end_of_study_questions_ufirst","self_exclusion_1other","0","0","0","0","","1","17570"
"031220","12:29:13","524699577","199083806","5.0.14.0","1","1","end_of_study_questions_ifirst","awareness","0","0","0","0","all","1","11815"
"031220","12:29:13","524699577","199083806","5.0.14.0","1","2","end_of_study_questions_ifirst","influence_general","0","0","0","0","less than half","1","8344"
"031220","12:29:13","524699577","199083806","5.0.14.0","1","3","end_of_study_questions_ifirst","intentionality","0","0","0","0","a few","1","8732"
"031220","12:29:13","524699577","199083806","5.0.14.0","1","4","end_of_study_questions_ifirst","unintentionality","0","0","0","0","a few","1","4264"
"031220","12:29:13","524699577","199083806","5.0.14.0","1","5","end_of_study_questions_ifirst","self_exclusion_1","0","0","0","0","Yes, use my data","1","15619"
"031220","12:29:13","524699577","199083806","5.0.14.0","1","5","end_of_study_questions_ifirst","self_exclusion_1other","0","0","0","0","","1","15619"
"031220","23:30:24","831732002","277791233","5.0.14.0","1","1","end_of_study_questions_ufirst","awareness","0","0","0","0","all","1","12255"
"031220","23:30:24","831732002","277791233","5.0.14.0","1","2","end_of_study_questions_ufirst","influence_general","0","0","0","0","most","1","6562"
"031220","23:30:24","831732002","277791233","5.0.14.0","1","3","end_of_study_questions_ufirst","unintentionality","0","0","0","0","most","1","7531"
"031220","23:30:24","831732002","277791233","5.0.14.0","1","4","end_of_study_questions_ufirst","intentionality","0","0","0","0","about half","1","11605"
"031220","23:30:24","831732002","277791233","5.0.14.0","1","5","end_of_study_questions_ufirst","self_exclusion_1","0","0","0","0","Yes, use my data","1","18116"
"031220","23:30:24","831732002","277791233","5.0.14.0","1","5","end_of_study_questions_ufirst","self_exclusion_1other","0","0","0","0","","1","18116"
"031220","23:32:37","552240425","293152581","5.0.14.0","1","1","end_of_study_questions_ufirst","awareness","0","0","0","0","most","1","16450"
"031220","23:32:37","552240425","293152581","5.0.14.0","1","2","end_of_study_questions_ufirst","influence_general","0","0","0","0","less than half","1","6799"
"031220","23:32:37","552240425","293152581","5.0.14.0","1","3","end_of_study_questions_ufirst","unintentionality","0","0","0","0","about half","1","7214"
"031220","23:32:37","552240425","293152581","5.0.14.0","1","4","end_of_study_questions_ufirst","intentionality","0","0","0","0","less than half","1","5061"
"031220","23:32:37","552240425","293152581","5.0.14.0","1","5","end_of_study_questions_ufirst","self_exclusion_1","0","0","0","0","Yes, use my data","1","12259"
"031220","23:32:37","552240425","293152581","5.0.14.0","1","5","end_of_study_questions_ufirst","self_exclusion_1other","0","0","0","0","","1","12259"
"031220","12:36:48","39422972","805970026","5.0.14.0","1","1","end_of_study_questions_ifirst","awareness","0","0","0","0","most","1","13278"
"031220","12:36:48","39422972","805970026","5.0.14.0","1","2","end_of_study_questions_ifirst","influence_general","0","0","0","0","most","1","5090"
"031220","12:36:48","39422972","805970026","5.0.14.0","1","3","end_of_study_questions_ifirst","intentionality","0","0","0","0","most","1","6111"
"031220","12:36:48","39422972","805970026","5.0.14.0","1","4","end_of_study_questions_ifirst","unintentionality","0","0","0","0","more than half","1","6566"
"031220","12:36:48","39422972","805970026","5.0.14.0","1","5","end_of_study_questions_ifirst","self_exclusion_1","0","0","0","0","Yes, use my data","1","10517"
"031220","12:36:48","39422972","805970026","5.0.14.0","1","5","end_of_study_questions_ifirst","self_exclusion_1other","0","0","0","0","","1","10517"
"031220","12:38:10","250750858","710120464","5.0.14.0","1","1","end_of_study_questions_ifirst","awareness","0","0","0","0","all","1","19405"
"031220","12:38:10","250750858","710120464","5.0.14.0","1","2","end_of_study_questions_ifirst","influence_general","0","0","0","0","about half","1","10596"
"031220","12:38:10","250750858","710120464","5.0.14.0","1","3","end_of_study_questions_ifirst","intentionality","0","0","0","0","less than half","1","20335"
"031220","12:38:10","250750858","710120464","5.0.14.0","1","4","end_of_study_questions_ifirst","unintentionality","0","0","0","0","less than half","1","10148"
"031220","12:38:10","250750858","710120464","5.0.14.0","1","5","end_of_study_questions_ifirst","self_exclusion_1","0","0","0","0","Yes, use my data","1","30464"
"031220","12:38:10","250750858","710120464","5.0.14.0","1","5","end_of_study_questions_ifirst","self_exclusion_1other","0","0","0","0","","1","30464"
"031220","22:38:48","591803708","3787275","5.0.14.0","1","1","end_of_study_questions_ufirst","awareness","0","0","0","0","all","1","27776"
"031220","22:38:48","591803708","3787275","5.0.14.0","1","2","end_of_study_questions_ufirst","influence_general","0","0","0","0","about half","1","10179"
"031220","22:38:48","591803708","3787275","5.0.14.0","1","3","end_of_study_questions_ufirst","unintentionality","0","0","0","0","a few","1","8095"
"031220","22:38:48","591803708","3787275","5.0.14.0","1","4","end_of_study_questions_ufirst","intentionality","0","0","0","0","a few","1","9195"
"031220","22:38:48","591803708","3787275","5.0.14.0","1","5","end_of_study_questions_ufirst","self_exclusion_1","0","0","0","0","Yes, use my data","1","25570"
"031220","22:38:48","591803708","3787275","5.0.14.0","1","5","end_of_study_questions_ufirst","self_exclusion_1other","0","0","0","0","","1","25570"
"031220","12:40:34","791824182","67897032","5.0.14.0","1","1","end_of_study_questions_ifirst","awareness","0","0","0","0","all","1","16963"
"031220","12:40:34","791824182","67897032","5.0.14.0","1","2","end_of_study_questions_ifirst","influence_general","0","0","0","0","less than half","1","6969"
"031220","12:40:34","791824182","67897032","5.0.14.0","1","3","end_of_study_questions_ifirst","intentionality","0","0","0","0","none","1","8428"
"031220","12:40:34","791824182","67897032","5.0.14.0","1","4","end_of_study_questions_ifirst","unintentionality","0","0","0","0","about half","1","5213"
"031220","12:40:34","791824182","67897032","5.0.14.0","1","5","end_of_study_questions_ifirst","self_exclusion_1","0","0","0","0","Yes, use my data","1","16714"
"031220","12:40:34","791824182","67897032","5.0.14.0","1","5","end_of_study_questions_ifirst","self_exclusion_1other","0","0","0","0","","1","16714"
"031220","12:40:34","660419708","875406840","5.0.14.0","1","1","end_of_study_questions_ifirst","awareness","0","0","0","0","all","1","38438"
"031220","12:40:34","660419708","875406840","5.0.14.0","1","2","end_of_study_questions_ifirst","influence_general","0","0","0","0","a few","1","10527"
"031220","12:40:34","660419708","875406840","5.0.14.0","1","3","end_of_study_questions_ifirst","intentionality","0","0","0","0","a few","1","9678"
"031220","12:40:34","660419708","875406840","5.0.14.0","1","4","end_of_study_questions_ifirst","unintentionality","0","0","0","0","a few","1","17528"
"031220","12:40:34","660419708","875406840","5.0.14.0","1","5","end_of_study_questions_ifirst","self_exclusion_1","0","0","0","0","Yes, use my data","1","17641"
"031220","12:40:34","660419708","875406840","5.0.14.0","1","5","end_of_study_questions_ifirst","self_exclusion_1other","0","0","0","0","","1","17641"
"031220","12:41:36","253827087","245130951","5.0.14.0","1","1","end_of_study_questions_ufirst","awareness","0","0","0","0","most","1","15578"
"031220","12:41:36","253827087","245130951","5.0.14.0","1","2","end_of_study_questions_ufirst","influence_general","0","0","0","0","about half","1","8308"
"031220","12:41:36","253827087","245130951","5.0.14.0","1","3","end_of_study_questions_ufirst","unintentionality","0","0","0","0","less than half","1","8197"
"031220","12:41:36","253827087","245130951","5.0.14.0","1","4","end_of_study_questions_ufirst","intentionality","0","0","0","0","a few","1","7883"
"031220","12:41:36","253827087","245130951","5.0.14.0","1","5","end_of_study_questions_ufirst","self_exclusion_1","0","0","0","0","Yes, use my data","1","11859"
"031220","12:41:36","253827087","245130951","5.0.14.0","1","5","end_of_study_questions_ufirst","self_exclusion_1other","0","0","0","0","","1","11859"
"031220","12:41:34","239091506","47231156","5.0.14.0","1","1","end_of_study_questions_ifirst","awareness","0","0","0","0","most","1","20547"
"031220","12:41:34","239091506","47231156","5.0.14.0","1","2","end_of_study_questions_ifirst","influence_general","0","0","0","0","a few","1","7871"
"031220","12:41:34","239091506","47231156","5.0.14.0","1","3","end_of_study_questions_ifirst","intentionality","0","0","0","0","less than half","1","7481"
"031220","12:41:34","239091506","47231156","5.0.14.0","1","4","end_of_study_questions_ifirst","unintentionality","0","0","0","0","a few","1","10071"
"031220","12:41:34","239091506","47231156","5.0.14.0","1","5","end_of_study_questions_ifirst","self_exclusion_1","0","0","0","0","Yes, use my data","1","21400"
"031220","12:41:34","239091506","47231156","5.0.14.0","1","5","end_of_study_questions_ifirst","self_exclusion_1other","0","0","0","0","","1","21400"
"031220","12:41:59","521530715","202252663","5.0.14.0","1","1","end_of_study_questions_ufirst","awareness","0","0","0","0","all","1","19563"
"031220","12:41:59","521530715","202252663","5.0.14.0","1","2","end_of_study_questions_ufirst","influence_general","0","0","0","0","less than half","1","6182"
"031220","12:41:59","521530715","202252663","5.0.14.0","1","3","end_of_study_questions_ufirst","unintentionality","0","0","0","0","less than half","1","5826"
"031220","12:41:59","521530715","202252663","5.0.14.0","1","4","end_of_study_questions_ufirst","intentionality","0","0","0","0","about half","1","2836"
"031220","12:41:59","521530715","202252663","5.0.14.0","1","5","end_of_study_questions_ufirst","self_exclusion_1","0","0","0","0","Yes, use my data","1","10321"
"031220","12:41:59","521530715","202252663","5.0.14.0","1","5","end_of_study_questions_ufirst","self_exclusion_1other","0","0","0","0","","1","10321"
"031220","12:43:08","989016858","5028058","5.0.14.0","1","1","end_of_study_questions_ifirst","awareness","0","0","0","0","most","1","41687"
"031220","12:43:08","989016858","5028058","5.0.14.0","1","2","end_of_study_questions_ifirst","influence_general","0","0","0","0","most","1","9288"
"031220","12:43:08","989016858","5028058","5.0.14.0","1","3","end_of_study_questions_ifirst","intentionality","0","0","0","0","less than half","1","12929"
"031220","12:43:08","989016858","5028058","5.0.14.0","1","4","end_of_study_questions_ifirst","unintentionality","0","0","0","0","more than half","1","13015"
"031220","12:43:08","989016858","5028058","5.0.14.0","1","5","end_of_study_questions_ifirst","self_exclusion_1","0","0","0","0","Yes, use my data","1","28281"
"031220","12:43:08","989016858","5028058","5.0.14.0","1","5","end_of_study_questions_ifirst","self_exclusion_1other","0","0","0","0","","1","28281"
"031220","12:44:15","928661527","184556628","5.0.14.0","1","1","end_of_study_questions_ifirst","awareness","0","0","0","0","a few","1","30296"
"031220","12:44:15","928661527","184556628","5.0.14.0","1","2","end_of_study_questions_ifirst","influence_general","0","0","0","0","none","1","40246"
"031220","12:44:15","928661527","184556628","5.0.14.0","1","3","end_of_study_questions_ifirst","intentionality","0","0","0","0","none","1","15196"
"031220","12:44:15","928661527","184556628","5.0.14.0","1","4","end_of_study_questions_ifirst","unintentionality","0","0","0","0","none","1","11717"
"031220","12:44:15","928661527","184556628","5.0.14.0","1","5","end_of_study_questions_ifirst","self_exclusion_1","0","0","0","0","No, exclude my data (please specify why):","1","181359"
"031220","12:44:15","928661527","184556628","5.0.14.0","1","5","end_of_study_questions_ifirst","self_exclusion_1other","0","0","0","0","The second part of the study went on for longer than it was indicated. I was unsure if the program was stuck in a loop and I pressed the incorrect keys on the other half of it. I think it would have been more coherent if had a timer of some sort to indicate when it would have been done. On a few slides I pressed the wrong prompt to see if anything would change - therefore creating a bias in the study. For the first part and half of the second part my answers would've been usable.","1","181359"
"031220","12:46:21","154237826","229241887","5.0.14.0","1","1","end_of_study_questions_ufirst","awareness","0","0","0","0","all","1","17523"
"031220","12:46:21","154237826","229241887","5.0.14.0","1","2","end_of_study_questions_ufirst","influence_general","0","0","0","0","less than half","1","40463"
"031220","12:46:21","154237826","229241887","5.0.14.0","1","3","end_of_study_questions_ufirst","unintentionality","0","0","0","0","less than half","1","10148"
"031220","12:46:21","154237826","229241887","5.0.14.0","1","4","end_of_study_questions_ufirst","intentionality","0","0","0","0","a few","1","5474"
"031220","12:46:21","154237826","229241887","5.0.14.0","1","5","end_of_study_questions_ufirst","self_exclusion_1","0","0","0","0","Yes, use my data","1","13031"
"031220","12:46:21","154237826","229241887","5.0.14.0","1","5","end_of_study_questions_ufirst","self_exclusion_1other","0","0","0","0","","1","13031"
"031220","08:46:00","283110612","252715946","5.0.14.0","1","1","end_of_study_questions_ifirst","awareness","0","0","0","0","all","1","18182"
"031220","08:46:00","283110612","252715946","5.0.14.0","1","2","end_of_study_questions_ifirst","influence_general","0","0","0","0","less than half","1","7326"
"031220","08:46:00","283110612","252715946","5.0.14.0","1","3","end_of_study_questions_ifirst","intentionality","0","0","0","0","a few","1","6408"
"031220","08:46:00","283110612","252715946","5.0.14.0","1","4","end_of_study_questions_ifirst","unintentionality","0","0","0","0","a few","1","8895"
"031220","08:46:00","283110612","252715946","5.0.14.0","1","5","end_of_study_questions_ifirst","self_exclusion_1","0","0","0","0","Yes, use my data","1","17326"
"031220","08:46:00","283110612","252715946","5.0.14.0","1","5","end_of_study_questions_ifirst","self_exclusion_1other","0","0","0","0","","1","17326"
"031220","12:47:57","694161036","914144008","5.0.14.0","1","1","end_of_study_questions_ifirst","awareness","0","0","0","0","all","1","21258"
"031220","12:47:57","694161036","914144008","5.0.14.0","1","2","end_of_study_questions_ifirst","influence_general","0","0","0","0","about half","1","7554"
"031220","12:47:57","694161036","914144008","5.0.14.0","1","3","end_of_study_questions_ifirst","intentionality","0","0","0","0","none","1","11828"
"031220","12:47:57","694161036","914144008","5.0.14.0","1","4","end_of_study_questions_ifirst","unintentionality","0","0","0","0","none","1","5499"
"031220","12:47:57","694161036","914144008","5.0.14.0","1","5","end_of_study_questions_ifirst","self_exclusion_1","0","0","0","0","Yes, use my data","1","22246"
"031220","12:47:57","694161036","914144008","5.0.14.0","1","5","end_of_study_questions_ifirst","self_exclusion_1other","0","0","0","0","","1","22246"
"031220","12:47:43","203161401","520621970","5.0.15.0","1","1","end_of_study_questions_ifirst","awareness","0","0","0","0","all","1","27295"
"031220","12:47:43","203161401","520621970","5.0.15.0","1","2","end_of_study_questions_ifirst","influence_general","0","0","0","0","about half","1","11973"
"031220","12:47:43","203161401","520621970","5.0.15.0","1","3","end_of_study_questions_ifirst","intentionality","0","0","0","0","a few","1","12035"
"031220","12:47:43","203161401","520621970","5.0.15.0","1","4","end_of_study_questions_ifirst","unintentionality","0","0","0","0","most","1","20580"
"031220","12:47:43","203161401","520621970","5.0.15.0","1","5","end_of_study_questions_ifirst","self_exclusion_1","0","0","0","0","Yes, use my data","1","26919"
"031220","12:47:43","203161401","520621970","5.0.15.0","1","5","end_of_study_questions_ifirst","self_exclusion_1other","0","0","0","0","","1","26919"
"031220","12:49:30","474181936","672507953","5.0.14.0","1","1","end_of_study_questions_ufirst","awareness","0","0","0","0","all","1","10921"
"031220","12:49:30","474181936","672507953","5.0.14.0","1","2","end_of_study_questions_ufirst","influence_general","0","0","0","0","none","1","7167"
"031220","12:49:30","474181936","672507953","5.0.14.0","1","3","end_of_study_questions_ufirst","unintentionality","0","0","0","0","all","1","8930"
"031220","12:49:30","474181936","672507953","5.0.14.0","1","4","end_of_study_questions_ufirst","intentionality","0","0","0","0","none","1","9133"
"031220","12:49:30","474181936","672507953","5.0.14.0","1","5","end_of_study_questions_ufirst","self_exclusion_1","0","0","0","0","Yes, use my data","1","4181"
"031220","12:49:30","474181936","672507953","5.0.14.0","1","5","end_of_study_questions_ufirst","self_exclusion_1other","0","0","0","0","","1","4181"
"031220","12:50:23","927857480","69882356","5.0.14.0","1","1","end_of_study_questions_ifirst","awareness","0","0","0","0","all","1","12646"
"031220","12:50:23","927857480","69882356","5.0.14.0","1","2","end_of_study_questions_ifirst","influence_general","0","0","0","0","less than half","1","10846"
"031220","12:50:23","927857480","69882356","5.0.14.0","1","3","end_of_study_questions_ifirst","intentionality","0","0","0","0","less than half","1","10457"
"031220","12:50:23","927857480","69882356","5.0.14.0","1","4","end_of_study_questions_ifirst","unintentionality","0","0","0","0","less than half","1","17366"
"031220","12:50:23","927857480","69882356","5.0.14.0","1","5","end_of_study_questions_ifirst","self_exclusion_1","0","0","0","0","Yes, use my data","1","15417"
"031220","12:50:23","927857480","69882356","5.0.14.0","1","5","end_of_study_questions_ifirst","self_exclusion_1other","0","0","0","0","","1","15417"
"031220","12:51:05","174864094","670528900","5.0.14.0","1","1","end_of_study_questions_ifirst","awareness","0","0","0","0","all","1","16718"
"031220","12:51:05","174864094","670528900","5.0.14.0","1","2","end_of_study_questions_ifirst","influence_general","0","0","0","0","all","1","7743"
"031220","12:51:05","174864094","670528900","5.0.14.0","1","3","end_of_study_questions_ifirst","intentionality","0","0","0","0","all","1","6243"
"031220","12:51:05","174864094","670528900","5.0.14.0","1","4","end_of_study_questions_ifirst","unintentionality","0","0","0","0","all","1","5599"
"031220","12:51:05","174864094","670528900","5.0.14.0","1","5","end_of_study_questions_ifirst","self_exclusion_1","0","0","0","0","Yes, use my data","1","9502"
"031220","12:51:05","174864094","670528900","5.0.14.0","1","5","end_of_study_questions_ifirst","self_exclusion_1other","0","0","0","0","","1","9502"
"031220","10:21:05","248533321","865579224","5.0.14.0","1","1","end_of_study_questions_ifirst","awareness","0","0","0","0","all","1","23252"
"031220","10:21:05","248533321","865579224","5.0.14.0","1","2","end_of_study_questions_ifirst","influence_general","0","0","0","0","none","1","8226"
"031220","10:21:05","248533321","865579224","5.0.14.0","1","3","end_of_study_questions_ifirst","intentionality","0","0","0","0","none","1","8254"
"031220","10:21:05","248533321","865579224","5.0.14.0","1","4","end_of_study_questions_ifirst","unintentionality","0","0","0","0","none","1","9829"
"031220","10:21:05","248533321","865579224","5.0.14.0","1","5","end_of_study_questions_ifirst","self_exclusion_1","0","0","0","0","Yes, use my data","1","19043"
"031220","10:21:05","248533321","865579224","5.0.14.0","1","5","end_of_study_questions_ifirst","self_exclusion_1other","0","0","0","0","","1","19043"
"031220","09:51:50","859287706","253930452","5.0.14.0","1","1","end_of_study_questions_ifirst","awareness","0","0","0","0","all","1","19943"
"031220","09:51:50","859287706","253930452","5.0.14.0","1","2","end_of_study_questions_ifirst","influence_general","0","0","0","0","less than half","1","5584"
"031220","09:51:50","859287706","253930452","5.0.14.0","1","3","end_of_study_questions_ifirst","intentionality","0","0","0","0","less than half","1","5852"
"031220","09:51:50","859287706","253930452","5.0.14.0","1","4","end_of_study_questions_ifirst","unintentionality","0","0","0","0","less than half","1","7749"
"031220","09:51:50","859287706","253930452","5.0.14.0","1","5","end_of_study_questions_ifirst","self_exclusion_1","0","0","0","0","Yes, use my data","1","15099"
"031220","09:51:50","859287706","253930452","5.0.14.0","1","5","end_of_study_questions_ifirst","self_exclusion_1other","0","0","0","0","","1","15099"
"031220","12:51:49","728173970","880131073","5.0.14.0","1","1","end_of_study_questions_ufirst","awareness","0","0","0","0","all","1","31674"
"031220","12:51:49","728173970","880131073","5.0.14.0","1","2","end_of_study_questions_ufirst","influence_general","0","0","0","0","more than half","1","6664"
"031220","12:51:49","728173970","880131073","5.0.14.0","1","3","end_of_study_questions_ufirst","unintentionality","0","0","0","0","more than half","1","7582"
"031220","12:51:49","728173970","880131073","5.0.14.0","1","4","end_of_study_questions_ufirst","intentionality","0","0","0","0","a few","1","7477"
"031220","12:51:49","728173970","880131073","5.0.14.0","1","5","end_of_study_questions_ufirst","self_exclusion_1","0","0","0","0","Yes, use my data","1","15210"
"031220","12:51:49","728173970","880131073","5.0.14.0","1","5","end_of_study_questions_ufirst","self_exclusion_1other","0","0","0","0","","1","15210"
"031220","12:53:26","233021832","28848257","5.0.14.0","1","1","end_of_study_questions_ufirst","awareness","0","0","0","0","about half","1","8031"
"031220","12:53:26","233021832","28848257","5.0.14.0","1","2","end_of_study_questions_ufirst","influence_general","0","0","0","0","less than half","1","7156"
"031220","12:53:26","233021832","28848257","5.0.14.0","1","3","end_of_study_questions_ufirst","unintentionality","0","0","0","0","less than half","1","5913"
"031220","12:53:26","233021832","28848257","5.0.14.0","1","4","end_of_study_questions_ufirst","intentionality","0","0","0","0","none","1","7586"
"031220","12:53:26","233021832","28848257","5.0.14.0","1","5","end_of_study_questions_ufirst","self_exclusion_1","0","0","0","0","Yes, use my data","1","9561"
"031220","12:53:26","233021832","28848257","5.0.14.0","1","5","end_of_study_questions_ufirst","self_exclusion_1other","0","0","0","0","","1","9561"
"031220","23:54:14","592348894","669521192","5.0.14.0","1","1","end_of_study_questions_ifirst","awareness","0","0","0","0","most","1","19131"
"031220","23:54:14","592348894","669521192","5.0.14.0","1","2","end_of_study_questions_ifirst","influence_general","0","0","0","0","a few","1","7109"
"031220","23:54:14","592348894","669521192","5.0.14.0","1","3","end_of_study_questions_ifirst","intentionality","0","0","0","0","a few","1","5199"
"031220","23:54:14","592348894","669521192","5.0.14.0","1","4","end_of_study_questions_ifirst","unintentionality","0","0","0","0","a few","1","6582"
"031220","23:54:14","592348894","669521192","5.0.14.0","1","5","end_of_study_questions_ifirst","self_exclusion_1","0","0","0","0","Yes, use my data","1","7320"
"031220","23:54:14","592348894","669521192","5.0.14.0","1","5","end_of_study_questions_ifirst","self_exclusion_1other","0","0","0","0","","1","7320"
"031220","12:53:54","203629428","794110407","5.0.14.0","1","1","end_of_study_questions_ufirst","awareness","0","0","0","0","about half","1","22840"
"031220","12:53:54","203629428","794110407","5.0.14.0","1","2","end_of_study_questions_ufirst","influence_general","0","0","0","0","less than half","1","6382"
"031220","12:53:54","203629428","794110407","5.0.14.0","1","3","end_of_study_questions_ufirst","unintentionality","0","0","0","0","less than half","1","7290"
"031220","12:53:54","203629428","794110407","5.0.14.0","1","4","end_of_study_questions_ufirst","intentionality","0","0","0","0","a few","1","5785"
"031220","12:53:54","203629428","794110407","5.0.14.0","1","5","end_of_study_questions_ufirst","self_exclusion_1","0","0","0","0","Yes, use my data","1","9298"
"031220","12:53:54","203629428","794110407","5.0.14.0","1","5","end_of_study_questions_ufirst","self_exclusion_1other","0","0","0","0","","1","9298"
"031220","08:54:30","248102163","866606636","5.0.14.0","1","1","end_of_study_questions_ifirst","awareness","0","0","0","0","most","1","11064"
"031220","08:54:30","248102163","866606636","5.0.14.0","1","2","end_of_study_questions_ifirst","influence_general","0","0","0","0","about half","1","6304"
"031220","08:54:30","248102163","866606636","5.0.14.0","1","3","end_of_study_questions_ifirst","intentionality","0","0","0","0","a few","1","13294"
"031220","08:54:30","248102163","866606636","5.0.14.0","1","4","end_of_study_questions_ifirst","unintentionality","0","0","0","0","about half","1","4428"
"031220","08:54:30","248102163","866606636","5.0.14.0","1","5","end_of_study_questions_ifirst","self_exclusion_1","0","0","0","0","Yes, use my data","1","15499"
"031220","08:54:30","248102163","866606636","5.0.14.0","1","5","end_of_study_questions_ifirst","self_exclusion_1other","0","0","0","0","","1","15499"
"031220","12:53:54","511218291","810416212","5.0.14.0","1","1","end_of_study_questions_ifirst","awareness","0","0","0","0","all","1","25240"
"031220","12:53:54","511218291","810416212","5.0.14.0","1","2","end_of_study_questions_ifirst","influence_general","0","0","0","0","none","1","10415"
"031220","12:53:54","511218291","810416212","5.0.14.0","1","3","end_of_study_questions_ifirst","intentionality","0","0","0","0","more than half","1","16545"
"031220","12:53:54","511218291","810416212","5.0.14.0","1","4","end_of_study_questions_ifirst","unintentionality","0","0","0","0","less than half","1","18240"
"031220","12:53:54","511218291","810416212","5.0.14.0","1","5","end_of_study_questions_ifirst","self_exclusion_1","0","0","0","0","Yes, use my data","1","21676"
"031220","12:53:54","511218291","810416212","5.0.14.0","1","5","end_of_study_questions_ifirst","self_exclusion_1other","0","0","0","0","","1","21676"
"031220","07:54:22","238880154","260077880","5.0.14.0","1","1","end_of_study_questions_ifirst","awareness","0","0","0","0","all","1","24939"
"031220","07:54:22","238880154","260077880","5.0.14.0","1","2","end_of_study_questions_ifirst","influence_general","0","0","0","0","less than half","1","6376"
"031220","07:54:22","238880154","260077880","5.0.14.0","1","3","end_of_study_questions_ifirst","intentionality","0","0","0","0","most","1","11349"
"031220","07:54:22","238880154","260077880","5.0.14.0","1","4","end_of_study_questions_ifirst","unintentionality","0","0","0","0","a few","1","7744"
"031220","07:54:22","238880154","260077880","5.0.14.0","1","5","end_of_study_questions_ifirst","self_exclusion_1","0","0","0","0","No, exclude my data (please specify why):","1","42038"
"031220","07:54:22","238880154","260077880","5.0.14.0","1","5","end_of_study_questions_ifirst","self_exclusion_1other","0","0","0","0","Sometimes the image flashed too fast for me to see. Like, I blinked, and it was gone.","1","42038"
"031220","12:54:39","774131653","761694891","5.0.14.0","1","1","end_of_study_questions_ufirst","awareness","0","0","0","0","more than half","1","16858"
"031220","12:54:39","774131653","761694891","5.0.14.0","1","2","end_of_study_questions_ufirst","influence_general","0","0","0","0","most","1","20426"
"031220","12:54:39","774131653","761694891","5.0.14.0","1","3","end_of_study_questions_ufirst","unintentionality","0","0","0","0","most","1","11645"
"031220","12:54:39","774131653","761694891","5.0.14.0","1","4","end_of_study_questions_ufirst","intentionality","0","0","0","0","about half","1","5898"
"031220","12:54:39","774131653","761694891","5.0.14.0","1","5","end_of_study_questions_ufirst","self_exclusion_1","0","0","0","0","Yes, use my data","1","23933"
"031220","12:54:39","774131653","761694891","5.0.14.0","1","5","end_of_study_questions_ufirst","self_exclusion_1other","0","0","0","0","","1","23933"
"031220","12:56:14","623377956","337213874","5.0.14.0","1","1","end_of_study_questions_ifirst","awareness","0","0","0","0","","1","8329"
"031220","12:54:51","59148198","549156859","5.0.14.0","1","1","end_of_study_questions_ufirst","awareness","0","0","0","0","all","1","42874"
"031220","12:54:51","59148198","549156859","5.0.14.0","1","2","end_of_study_questions_ufirst","influence_general","0","0","0","0","less than half","1","18965"
"031220","12:54:51","59148198","549156859","5.0.14.0","1","3","end_of_study_questions_ufirst","unintentionality","0","0","0","0","a few","1","21724"
"031220","12:54:51","59148198","549156859","5.0.14.0","1","4","end_of_study_questions_ufirst","intentionality","0","0","0","0","less than half","1","15431"
"031220","12:54:51","59148198","549156859","5.0.14.0","1","5","end_of_study_questions_ufirst","self_exclusion_1","0","0","0","0","Yes, use my data","1","12873"
"031220","12:54:51","59148198","549156859","5.0.14.0","1","5","end_of_study_questions_ufirst","self_exclusion_1other","0","0","0","0","","1","12873"
"031220","12:56:11","669479088","866347456","5.0.14.0","1","1","end_of_study_questions_ifirst","awareness","0","0","0","0","about half","1","23977"
"031220","12:56:11","669479088","866347456","5.0.14.0","1","2","end_of_study_questions_ifirst","influence_general","0","0","0","0","less than half","1","6419"
"031220","12:56:11","669479088","866347456","5.0.14.0","1","3","end_of_study_questions_ifirst","intentionality","0","0","0","0","less than half","1","5733"
"031220","12:56:11","669479088","866347456","5.0.14.0","1","4","end_of_study_questions_ifirst","unintentionality","0","0","0","0","less than half","1","5073"
"031220","12:56:11","669479088","866347456","5.0.14.0","1","5","end_of_study_questions_ifirst","self_exclusion_1","0","0","0","0","Yes, use my data","1","9195"
"031220","12:56:11","669479088","866347456","5.0.14.0","1","5","end_of_study_questions_ifirst","self_exclusion_1other","0","0","0","0","","1","9195"
"031220","12:56:17","297165695","426617681","5.0.14.0","1","1","end_of_study_questions_ufirst","awareness","0","0","0","0","all","1","30611"
"031220","12:56:17","297165695","426617681","5.0.14.0","1","2","end_of_study_questions_ufirst","influence_general","0","0","0","0","none","1","16875"
"031220","12:56:17","297165695","426617681","5.0.14.0","1","3","end_of_study_questions_ufirst","unintentionality","0","0","0","0","none","1","11601"
"031220","12:56:17","297165695","426617681","5.0.14.0","1","4","end_of_study_questions_ufirst","intentionality","0","0","0","0","none","1","6577"
"031220","12:56:17","297165695","426617681","5.0.14.0","1","5","end_of_study_questions_ufirst","self_exclusion_1","0","0","0","0","Yes, use my data","1","13381"
"031220","12:56:17","297165695","426617681","5.0.14.0","1","5","end_of_study_questions_ufirst","self_exclusion_1other","0","0","0","0","","1","13381"
"031220","12:58:37","99592395","283887317","5.0.14.0","1","1","end_of_study_questions_ufirst","awareness","0","0","0","0","all","1","35485"
"031220","12:58:37","99592395","283887317","5.0.14.0","1","2","end_of_study_questions_ufirst","influence_general","0","0","0","0","less than half","1","11265"
"031220","12:58:37","99592395","283887317","5.0.14.0","1","3","end_of_study_questions_ufirst","unintentionality","0","0","0","0","a few","1","10172"
"031220","12:58:37","99592395","283887317","5.0.14.0","1","4","end_of_study_questions_ufirst","intentionality","0","0","0","0","less than half","1","12978"
"031220","12:58:37","99592395","283887317","5.0.14.0","1","5","end_of_study_questions_ufirst","self_exclusion_1","0","0","0","0","Yes, use my data","1","20939"
"031220","12:58:37","99592395","283887317","5.0.14.0","1","5","end_of_study_questions_ufirst","self_exclusion_1other","0","0","0","0","","1","20939"
"031220","13:00:23","560264292","823215414","5.0.14.0","1","1","end_of_study_questions_ifirst","awareness","0","0","0","0","about half","1","15157"
"031220","13:00:23","560264292","823215414","5.0.14.0","1","2","end_of_study_questions_ifirst","influence_general","0","0","0","0","a few","1","7278"
"031220","13:00:23","560264292","823215414","5.0.14.0","1","3","end_of_study_questions_ifirst","intentionality","0","0","0","0","a few","1","5621"
"031220","13:00:23","560264292","823215414","5.0.14.0","1","4","end_of_study_questions_ifirst","unintentionality","0","0","0","0","a few","1","6366"
"031220","13:00:23","560264292","823215414","5.0.14.0","1","5","end_of_study_questions_ifirst","self_exclusion_1","0","0","0","0","Yes, use my data","1","8212"
"031220","13:00:23","560264292","823215414","5.0.14.0","1","5","end_of_study_questions_ifirst","self_exclusion_1other","0","0","0","0","","1","8212"
"031220","13:01:19","604585730","389459195","5.0.14.0","1","1","end_of_study_questions_ufirst","awareness","0","0","0","0","all","1","9957"
"031220","13:01:19","604585730","389459195","5.0.14.0","1","2","end_of_study_questions_ufirst","influence_general","0","0","0","0","a few","1","4832"
"031220","13:01:19","604585730","389459195","5.0.14.0","1","3","end_of_study_questions_ufirst","unintentionality","0","0","0","0","a few","1","4529"
"031220","13:01:19","604585730","389459195","5.0.14.0","1","4","end_of_study_questions_ufirst","intentionality","0","0","0","0","a few","1","5496"
"031220","13:01:19","604585730","389459195","5.0.14.0","1","5","end_of_study_questions_ufirst","self_exclusion_1","0","0","0","0","Yes, use my data","1","2615"
"031220","13:01:19","604585730","389459195","5.0.14.0","1","5","end_of_study_questions_ufirst","self_exclusion_1other","0","0","0","0","","1","2615"
"031220","23:00:34","410366256","851503826","5.0.14.0","1","1","end_of_study_questions_ifirst","awareness","0","0","0","0","all","1","23231"
"031220","23:00:34","410366256","851503826","5.0.14.0","1","2","end_of_study_questions_ifirst","influence_general","0","0","0","0","more than half","1","12771"
"031220","23:00:34","410366256","851503826","5.0.14.0","1","3","end_of_study_questions_ifirst","intentionality","0","0","0","0","about half","1","16954"
"031220","23:00:34","410366256","851503826","5.0.14.0","1","4","end_of_study_questions_ifirst","unintentionality","0","0","0","0","about half","1","4104"
"031220","23:00:34","410366256","851503826","5.0.14.0","1","5","end_of_study_questions_ifirst","self_exclusion_1","0","0","0","0","Yes, use my data","1","19724"
"031220","23:00:34","410366256","851503826","5.0.14.0","1","5","end_of_study_questions_ifirst","self_exclusion_1other","0","0","0","0","","1","19724"
"031220","13:00:51","912694599","200523557","5.0.14.0","1","1","end_of_study_questions_ufirst","awareness","0","0","0","0","most","1","52678"
"031220","13:00:51","912694599","200523557","5.0.14.0","1","2","end_of_study_questions_ufirst","influence_general","0","0","0","0","less than half","1","6786"
"031220","13:00:51","912694599","200523557","5.0.14.0","1","3","end_of_study_questions_ufirst","unintentionality","0","0","0","0","a few","1","6802"
"031220","13:00:51","912694599","200523557","5.0.14.0","1","4","end_of_study_questions_ufirst","intentionality","0","0","0","0","a few","1","7462"
"031220","13:00:51","912694599","200523557","5.0.14.0","1","5","end_of_study_questions_ufirst","self_exclusion_1","0","0","0","0","Yes, use my data","1","9269"
"031220","13:00:51","912694599","200523557","5.0.14.0","1","5","end_of_study_questions_ufirst","self_exclusion_1other","0","0","0","0","","1","9269"
"031220","12:57:08","290008682","971861402","5.0.14.0","1","1","end_of_study_questions_ifirst","awareness","0","0","0","0","all","1","11008"
"031220","12:57:08","290008682","971861402","5.0.14.0","1","2","end_of_study_questions_ifirst","influence_general","0","0","0","0","all","1","4588"
"031220","12:57:08","290008682","971861402","5.0.14.0","1","3","end_of_study_questions_ifirst","intentionality","0","0","0","0","all","1","4328"
"031220","12:57:08","290008682","971861402","5.0.14.0","1","4","end_of_study_questions_ifirst","unintentionality","0","0","0","0","none","1","5713"
"031220","12:57:08","290008682","971861402","5.0.14.0","1","5","end_of_study_questions_ifirst","self_exclusion_1","0","0","0","0","Yes, use my data","1","6656"
"031220","12:57:08","290008682","971861402","5.0.14.0","1","5","end_of_study_questions_ifirst","self_exclusion_1other","0","0","0","0","","1","6656"
"031220","13:01:28","785561582","111028156","5.0.14.0","1","1","end_of_study_questions_ifirst","awareness","0","0","0","0","all","1","26287"
"031220","13:01:28","785561582","111028156","5.0.14.0","1","2","end_of_study_questions_ifirst","influence_general","0","0","0","0","a few","1","7750"
"031220","13:01:28","785561582","111028156","5.0.14.0","1","3","end_of_study_questions_ifirst","intentionality","0","0","0","0","a few","1","12408"
"031220","13:01:28","785561582","111028156","5.0.14.0","1","4","end_of_study_questions_ifirst","unintentionality","0","0","0","0","less than half","1","9492"
"031220","13:01:28","785561582","111028156","5.0.14.0","1","5","end_of_study_questions_ifirst","self_exclusion_1","0","0","0","0","Yes, use my data","1","7221"
"031220","13:01:28","785561582","111028156","5.0.14.0","1","5","end_of_study_questions_ifirst","self_exclusion_1other","0","0","0","0","","1","7221"
"031220","13:01:30","596829","145794944","5.0.14.0","1","1","end_of_study_questions_ifirst","awareness","0","0","0","0","most","1","23173"
"031220","13:01:30","596829","145794944","5.0.14.0","1","2","end_of_study_questions_ifirst","influence_general","0","0","0","0","about half","1","7352"
"031220","13:01:30","596829","145794944","5.0.14.0","1","3","end_of_study_questions_ifirst","intentionality","0","0","0","0","about half","1","10079"
"031220","13:01:30","596829","145794944","5.0.14.0","1","4","end_of_study_questions_ifirst","unintentionality","0","0","0","0","a few","1","7691"
"031220","13:01:30","596829","145794944","5.0.14.0","1","5","end_of_study_questions_ifirst","self_exclusion_1","0","0","0","0","Yes, use my data","1","21507"
"031220","13:01:30","596829","145794944","5.0.14.0","1","5","end_of_study_questions_ifirst","self_exclusion_1other","0","0","0","0","","1","21507"
"031220","09:01:09","165882499","485422375","5.0.14.0","1","1","end_of_study_questions_ufirst","awareness","0","0","0","0","all","1","34065"
"031220","09:01:09","165882499","485422375","5.0.14.0","1","2","end_of_study_questions_ufirst","influence_general","0","0","0","0","a few","1","12022"
"031220","09:01:09","165882499","485422375","5.0.14.0","1","3","end_of_study_questions_ufirst","unintentionality","0","0","0","0","less than half","1","24197"
"031220","09:01:09","165882499","485422375","5.0.14.0","1","4","end_of_study_questions_ufirst","intentionality","0","0","0","0","a few","1","15255"
"031220","09:01:09","165882499","485422375","5.0.14.0","1","5","end_of_study_questions_ufirst","self_exclusion_1","0","0","0","0","Yes, use my data","1","12937"
"031220","09:01:09","165882499","485422375","5.0.14.0","1","5","end_of_study_questions_ufirst","self_exclusion_1other","0","0","0","0","","1","12937"
"031220","13:02:43","324574573","246861967","5.0.14.0","1","1","end_of_study_questions_ufirst","awareness","0","0","0","0","more than half","1","15417"
"031220","13:02:43","324574573","246861967","5.0.14.0","1","2","end_of_study_questions_ufirst","influence_general","0","0","0","0","most","1","5578"
"031220","13:02:43","324574573","246861967","5.0.14.0","1","3","end_of_study_questions_ufirst","unintentionality","0","0","0","0","most","1","5822"
"031220","13:02:43","324574573","246861967","5.0.14.0","1","4","end_of_study_questions_ufirst","intentionality","0","0","0","0","less than half","1","7519"
"031220","13:02:43","324574573","246861967","5.0.14.0","1","5","end_of_study_questions_ufirst","self_exclusion_1","0","0","0","0","Yes, use my data","1","13060"
"031220","13:02:43","324574573","246861967","5.0.14.0","1","5","end_of_study_questions_ufirst","self_exclusion_1other","0","0","0","0","","1","13060"
"031220","13:03:02","774773092","121816647","5.0.14.0","1","1","end_of_study_questions_ufirst","awareness","0","0","0","0","all","1","24161"
"031220","13:03:02","774773092","121816647","5.0.14.0","1","2","end_of_study_questions_ufirst","influence_general","0","0","0","0","all","1","11144"
"031220","13:03:02","774773092","121816647","5.0.14.0","1","3","end_of_study_questions_ufirst","unintentionality","0","0","0","0","most","1","10802"
"031220","13:03:02","774773092","121816647","5.0.14.0","1","4","end_of_study_questions_ufirst","intentionality","0","0","0","0","most","1","10289"
"031220","13:03:02","774773092","121816647","5.0.14.0","1","5","end_of_study_questions_ufirst","self_exclusion_1","0","0","0","0","Yes, use my data","1","12343"
"031220","13:03:02","774773092","121816647","5.0.14.0","1","5","end_of_study_questions_ufirst","self_exclusion_1other","0","0","0","0","","1","12343"
"031220","13:03:21","987027712","664277148","5.0.14.0","1","1","end_of_study_questions_ifirst","awareness","0","0","0","0","all","1","66963"
"031220","13:03:21","987027712","664277148","5.0.14.0","1","2","end_of_study_questions_ifirst","influence_general","0","0","0","0","none","1","26852"
"031220","13:03:21","987027712","664277148","5.0.14.0","1","3","end_of_study_questions_ifirst","intentionality","0","0","0","0","none","1","5467"
"031220","13:03:21","987027712","664277148","5.0.14.0","1","4","end_of_study_questions_ifirst","unintentionality","0","0","0","0","none","1","6159"
"031220","13:03:21","987027712","664277148","5.0.14.0","1","5","end_of_study_questions_ifirst","self_exclusion_1","0","0","0","0","Yes, use my data","1","36807"
"031220","13:03:21","987027712","664277148","5.0.14.0","1","5","end_of_study_questions_ifirst","self_exclusion_1other","0","0","0","0","","1","36807"
"031320","00:01:37","725805292","268239626","5.0.14.0","1","1","end_of_study_questions_ifirst","awareness","0","0","0","0","all","1","24268"
"031320","00:01:37","725805292","268239626","5.0.14.0","1","2","end_of_study_questions_ifirst","influence_general","0","0","0","0","none","1","6344"
"031320","00:01:37","725805292","268239626","5.0.14.0","1","3","end_of_study_questions_ifirst","intentionality","0","0","0","0","none","1","8611"
"031320","00:01:37","725805292","268239626","5.0.14.0","1","4","end_of_study_questions_ifirst","unintentionality","0","0","0","0","none","1","25789"
"031320","00:01:37","725805292","268239626","5.0.14.0","1","5","end_of_study_questions_ifirst","self_exclusion_1","0","0","0","0","No, exclude my data (please specify why):","1","193709"
"031320","00:01:37","725805292","268239626","5.0.14.0","1","5","end_of_study_questions_ifirst","self_exclusion_1other","0","0","0","0","You can use my data if this was supposed to happen however I believe there were technical issues with the images. The images (including the chinese characters) would pop up very quickly and then would be replaced by a white and black square. I had to pay very close attention to catch the images and sometimes I woud forget what I saw.","1","193709"
"031220","13:05:56","633503531","476019712","5.0.14.0","1","1","end_of_study_questions_ifirst","awareness","0","0","0","0","all","1","21708"
"031220","13:05:56","633503531","476019712","5.0.14.0","1","2","end_of_study_questions_ifirst","influence_general","0","0","0","0","more than half","1","5243"
"031220","13:05:56","633503531","476019712","5.0.14.0","1","3","end_of_study_questions_ifirst","intentionality","0","0","0","0","more than half","1","10805"
