"date","time","subject","blockcode","blocknum","trialcode","trialnum","values.primestim","values.targetstim","correct","latency","trial.prime_positive.totalpercentcorrect","trial.prime_negative.totalpercentcorrect"
"031220","10:50:38","323764856","practice","1","prime_positive_practice","4","0","0","0","157","0","0"
"031220","10:50:38","323764856","practice","1","prime_positive_practice","5","0","0","1","322","0","0"
"031220","10:50:38","323764856","practice","1","prime_negative_practice","6","0","0","0","614","0","0"
"031220","10:50:38","323764856","practice","1","prime_positive_practice","7","0","0","1","799","0","0"
"031220","10:50:38","323764856","practice","1","prime_positive_practice","8","0","0","1","370","0","0"
"031220","10:50:38","323764856","practice","1","prime_negative_practice","9","0","0","1","774","0","0"
"031220","10:50:38","323764856","practice","1","prime_positive_practice","10","0","0","0","553","0","0"
"031220","10:50:38","323764856","practice","1","prime_negative_practice","11","0","0","0","0","0","0"
"031220","10:50:38","323764856","test","2","prime_positive","2","8","71","0","203","0","0"
"031220","10:50:38","323764856","test","2","prime_positive","3","5","72","0","0","0","0"
"031220","20:41:08","211285344","practice","1","prime_positive_practice","4","0","0","0","5100","0","0"
"031220","20:41:08","211285344","practice","1","prime_negative_practice","5","0","0","1","1516","0","0"
"031220","20:41:08","211285344","practice","1","prime_positive_practice","6","0","0","0","1104","0","0"
"031220","20:41:08","211285344","practice","1","prime_positive_practice","7","0","0","1","741","0","0"
"031220","20:41:08","211285344","practice","1","prime_negative_practice","8","0","0","1","1650","0","0"
"031220","20:41:08","211285344","practice","1","prime_positive_practice","9","0","0","1","758","0","0"
"031220","20:41:08","211285344","practice","1","prime_negative_practice","10","0","0","0","1343","0","0"
"031220","20:41:08","211285344","practice","1","prime_negative_practice","11","0","0","1","1013","0","0"
"031220","20:41:08","211285344","practice","1","prime_positive_practice","12","0","0","1","1177","0","0"
"031220","20:41:08","211285344","practice","1","prime_negative_practice","13","0","0","1","731","0","0"
"031220","20:41:08","211285344","test","2","prime_negative","2","5","65","0","1138","0","0"
"031220","20:41:08","211285344","test","2","prime_positive","3","12","11","1","742","100","0"
"031220","20:41:08","211285344","test","2","prime_positive","4","5","27","1","981","100","0"
"031220","20:41:08","211285344","test","2","prime_negative","5","1","23","1","551","100","50"
"031220","20:41:08","211285344","test","2","prime_positive","6","4","16","1","717","100","50"
"031220","20:41:08","211285344","test","2","prime_positive","7","3","20","0","761","75","50"
"031220","20:41:08","211285344","test","2","prime_negative","8","8","7","0","748","75","33"
"031220","20:41:08","211285344","test","2","prime_negative","9","6","57","0","3029","75","25"
"031220","20:41:08","211285344","test","2","prime_negative","10","11","62","0","1604","75","20"
"031220","20:41:08","211285344","test","2","prime_negative","11","2","33","1","666","75","33"
"031220","20:41:08","211285344","test","2","prime_positive","12","2","64","0","1267","60","33"
"031220","20:41:08","211285344","test","2","prime_positive","13","11","60","0","887","50","33"
"031220","20:41:08","211285344","test","2","prime_positive","14","1","45","0","971","42","33"
"031220","20:41:08","211285344","test","2","prime_positive","15","9","17","1","812","50","33"
"031220","20:41:08","211285344","test","2","prime_positive","16","10","35","1","1860","55","33"
"031220","20:41:08","211285344","test","2","prime_positive","17","12","42","1","1120","60","33"
"031220","20:41:08","211285344","test","2","prime_negative","18","12","46","1","1014","60","42"
"031220","20:41:08","211285344","test","2","prime_positive","19","4","48","0","970","54","42"
"031220","20:41:08","211285344","test","2","prime_positive","20","11","1","1","832","58","42"
"031220","20:41:08","211285344","test","2","prime_negative","21","1","10","1","2520","58","50"
"031220","20:41:08","211285344","test","2","prime_negative","22","11","4","1","729","58","55"
"031220","20:41:08","211285344","test","2","prime_negative","23","2","12","0","901","58","50"
"031220","20:41:08","211285344","test","2","prime_positive","24","2","25","0","1315","53","50"
"031220","20:41:08","211285344","test","2","prime_negative","25","4","37","0","590","53","45"
"031220","20:41:08","211285344","test","2","prime_negative","26","6","38","1","585","53","50"
"031220","20:41:08","211285344","test","2","prime_positive","27","8","54","1","777","57","50"
"031220","20:41:08","211285344","test","2","prime_positive","28","3","14","0","722","53","50"
"031220","20:41:08","211285344","test","2","prime_positive","29","6","40","1","779","56","50"
"031220","20:41:08","211285344","test","2","prime_positive","30","5","61","1","1096","58","50"
"031220","20:41:08","211285344","test","2","prime_positive","31","7","50","1","1292","61","50"
"031220","20:41:08","211285344","test","2","prime_positive","32","1","43","1","798","63","50"
"031220","20:41:08","211285344","test","2","prime_positive","33","10","5","1","879","65","50"
"031220","20:41:08","211285344","test","2","prime_negative","34","9","51","0","1055","65","46"
"031220","20:41:08","211285344","test","2","prime_positive","35","9","3","1","1760","66","46"
"031220","20:41:08","211285344","test","2","prime_positive","36","3","72","0","1180","63","46"
"031220","20:41:08","211285344","test","2","prime_negative","37","10","22","1","1336","63","50"
"031220","20:41:08","211285344","test","2","prime_positive","38","8","49","0","1004","60","50"
"031220","20:41:08","211285344","test","2","prime_positive","39","11","53","1","864","62","50"
"031220","20:41:08","211285344","test","2","prime_negative","40","3","8","0","1600","62","46"
"031220","20:41:08","211285344","test","2","prime_positive","41","1","30","1","1090","64","46"
"031220","20:41:08","211285344","test","2","prime_negative","42","12","34","1","781","64","50"
"031220","20:41:08","211285344","test","2","prime_negative","43","8","9","1","1539","64","52"
"031220","20:41:08","211285344","test","2","prime_negative","44","7","47","0","910","64","50"
"031220","20:41:08","211285344","test","2","prime_positive","45","5","41","1","777","65","50"
"031220","20:41:08","211285344","test","2","prime_negative","46","5","21","1","1048","65","52"
"031220","20:41:08","211285344","test","2","prime_negative","47","4","66","1","961","65","55"
"031220","20:41:08","211285344","test","2","prime_negative","48","1","70","0","649","65","52"
"031220","20:41:08","211285344","test","2","prime_positive","49","4","18","1","3108","66","52"
"031220","20:41:08","211285344","test","2","prime_negative","50","6","2","1","628","66","54"
"031220","20:41:08","211285344","test","2","prime_negative","51","10","32","1","728","66","56"
"031220","20:41:08","211285344","test","2","prime_negative","52","2","31","1","990","66","58"
"031220","20:41:08","211285344","test","2","prime_negative","53","7","13","0","741","66","56"
"031220","20:41:08","211285344","test","2","prime_positive","54","12","59","0","927","64","56"
"031220","20:41:08","211285344","test","2","prime_negative","55","11","67","1","704","64","57"
"031220","20:41:08","211285344","test","2","prime_negative","56","8","15","1","2647","64","59"
"031220","20:41:08","211285344","test","2","prime_positive","57","7","26","1","687","65","59"
"031220","20:41:08","211285344","test","2","prime_negative","58","5","39","1","797","65","60"
"031220","20:41:08","211285344","test","2","prime_positive","59","6","52","0","665","63","60"
"031220","20:41:08","211285344","test","2","prime_positive","60","2","63","1","705","64","60"
"031220","20:41:08","211285344","test","2","prime_negative","61","3","69","1","751","64","62"
"031220","20:41:08","211285344","test","2","prime_positive","62","10","28","0","669","62","62"
"031220","20:41:08","211285344","test","2","prime_positive","63","6","55","0","576","60","62"
"031220","20:41:08","211285344","test","2","prime_positive","64","1","27","1","502","61","62"
"031220","20:41:08","211285344","test","2","prime_positive","65","12","35","1","602","62","62"
"031220","20:41:08","211285344","test","2","prime_negative","66","12","21","1","1408","62","63"
"031220","20:41:08","211285344","test","2","prime_negative","67","9","8","1","1393","62","64"
"031220","20:41:08","211285344","test","2","prime_negative","68","4","31","0","564","62","62"
"031220","20:41:08","211285344","test","2","prime_positive","69","11","3","0","813","61","62"
"031220","20:41:08","211285344","test","2","prime_negative","70","3","67","1","733","61","63"
"031220","20:41:08","211285344","test","2","prime_negative","71","5","65","0","688","61","61"
"031220","20:41:08","211285344","test","2","prime_negative","72","10","56","0","538","61","60"
"031220","20:41:08","211285344","test","2","prime_negative","73","12","60","0","593","61","58"
"031220","05:57:25","141306629","practice","1","prime_positive_practice","4","0","0","0","6529","0","0"
"031220","05:57:25","141306629","practice","1","prime_negative_practice","5","0","0","1","3539","0","0"
"031220","05:57:25","141306629","practice","1","prime_positive_practice","6","0","0","0","1699","0","0"
"031220","05:57:25","141306629","practice","1","prime_positive_practice","7","0","0","1","2199","0","0"
"031220","05:57:25","141306629","practice","1","prime_positive_practice","8","0","0","1","1697","0","0"
"031220","05:57:25","141306629","practice","1","prime_negative_practice","9","0","0","1","1241","0","0"
"031220","05:57:25","141306629","practice","1","prime_negative_practice","10","0","0","0","1405","0","0"
"031220","05:57:25","141306629","practice","1","prime_negative_practice","11","0","0","1","1459","0","0"
"031220","05:57:25","141306629","practice","1","prime_positive_practice","12","0","0","1","1267","0","0"
"031220","05:57:25","141306629","practice","1","prime_negative_practice","13","0","0","1","1104","0","0"
"031220","05:57:25","141306629","test","2","prime_positive","2","11","59","1","1385","100","0"
"031220","05:57:25","141306629","test","2","prime_negative","3","12","28","1","1387","100","100"
"031220","05:57:25","141306629","test","2","prime_negative","4","4","27","1","917","100","100"
"031220","05:57:25","141306629","test","2","prime_negative","5","10","15","1","1229","100","100"
"031220","05:57:25","141306629","test","2","prime_positive","6","7","6","0","783","50","100"
"031220","05:57:25","141306629","test","2","prime_negative","7","3","34","0","1073","50","75"
"031220","05:57:25","141306629","test","2","prime_negative","8","9","9","1","1759","50","80"
"031220","05:57:25","141306629","test","2","prime_positive","9","9","68","1","1527","66","80"
"031220","05:57:25","141306629","test","2","prime_positive","10","2","64","0","1386","50","80"
"031220","05:57:25","141306629","test","2","prime_negative","11","5","50","1","1200","50","83"
"031220","05:57:25","141306629","test","2","prime_negative","12","7","44","1","2350","50","85"
"031220","05:57:25","141306629","test","2","prime_negative","13","9","26","0","2452","50","75"
"031220","05:57:25","141306629","test","2","prime_negative","14","2","11","1","792","50","77"
"031220","05:57:25","141306629","test","2","prime_negative","15","6","29","1","1085","50","80"
"031220","05:57:25","141306629","test","2","prime_positive","16","5","41","1","833","60","80"
"031220","05:57:25","141306629","test","2","prime_positive","17","12","53","1","747","66","80"
"031220","05:57:25","141306629","test","2","prime_negative","18","4","46","0","897","66","72"
"031220","05:57:25","141306629","test","2","prime_positive","19","10","57","0","951","57","72"
"031220","05:57:25","141306629","test","2","prime_negative","20","12","58","0","903","57","66"
"031220","05:57:25","141306629","test","2","prime_negative","21","8","61","0","850","57","61"
"031220","05:57:25","141306629","test","2","prime_negative","22","10","43","1","906","57","64"
"031220","05:57:25","141306629","test","2","prime_negative","23","11","48","1","769","57","66"
"031220","05:57:25","141306629","test","2","prime_positive","24","11","66","0","733","50","66"
"031220","05:57:25","141306629","test","2","prime_negative","25","7","19","0","737","50","62"
"031220","05:57:25","141306629","test","2","prime_positive","26","3","13","1","630","55","62"
"031220","05:57:25","141306629","test","2","prime_positive","27","8","47","1","676","60","62"
"031220","05:57:25","141306629","test","2","prime_positive","28","9","18","0","713","54","62"
"031220","05:57:25","141306629","test","2","prime_negative","29","3","12","1","762","54","64"
"031220","05:57:25","141306629","test","2","prime_negative","30","5","40","1","825","54","66"
"031220","05:57:25","141306629","test","2","prime_positive","31","2","2","0","1412","50","66"
"031220","05:57:25","141306629","test","2","prime_positive","32","7","4","0","799","46","66"
"031220","05:57:25","141306629","test","2","prime_negative","33","1","33","1","1329","46","68"
"031220","05:57:25","141306629","test","2","prime_negative","34","11","17","0","1766","46","65"
"031220","05:57:25","141306629","test","2","prime_positive","35","5","32","0","975","42","65"
"031220","05:57:25","141306629","test","2","prime_negative","36","1","22","0","1344","42","61"
"031220","05:57:25","141306629","test","2","prime_positive","37","6","5","1","1043","46","61"
"031220","05:57:25","141306629","test","2","prime_positive","38","1","23","1","797","50","61"
"031220","05:57:25","141306629","test","2","prime_positive","39","4","25","1","685","52","61"
"031220","05:57:25","141306629","test","2","prime_negative","40","5","30","1","635","52","63"
"031220","05:57:25","141306629","test","2","prime_positive","41","10","65","0","627","50","63"
"031220","05:57:25","141306629","test","2","prime_positive","42","12","56","0","609","47","63"
"031220","05:57:25","141306629","test","2","prime_negative","43","8","70","1","600","47","65"
"031220","05:57:25","141306629","test","2","prime_positive","44","3","8","1","666","50","65"
"031220","05:57:25","141306629","test","2","prime_positive","45","10","35","1","562","52","65"
"031220","05:57:25","141306629","test","2","prime_negative","46","6","49","1","473","52","66"
"031220","05:57:25","141306629","test","2","prime_positive","47","4","54","0","440","50","66"
"031220","05:57:25","141306629","test","2","prime_positive","48","8","20","0","972","47","66"
"031220","05:57:25","141306629","test","2","prime_positive","49","5","21","1","1046","50","66"
"031220","05:57:25","141306629","test","2","prime_positive","50","7","10","1","601","52","66"
"031220","05:57:25","141306629","test","2","prime_negative","51","10","31","1","682","52","68"
"031220","05:57:25","141306629","test","2","prime_negative","52","12","51","1","638","52","69"
"031220","05:57:25","141306629","test","2","prime_negative","53","2","60","1","557","52","70"
"031220","05:57:25","141306629","test","2","prime_positive","54","2","52","0","557","50","70"
"031220","05:57:25","141306629","test","2","prime_positive","55","12","55","1","375","51","70"
"031220","05:57:25","141306629","test","2","prime_positive","56","11","67","1","394","53","70"
"031220","05:57:25","141306629","test","2","prime_positive","57","6","42","0","291","51","70"
"031220","05:57:25","141306629","test","2","prime_positive","58","9","63","0","375","50","70"
"031220","05:57:25","141306629","test","2","prime_positive","59","1","1","1","370","51","70"
"031220","05:57:25","141306629","test","2","prime_negative","60","3","62","1","282","51","71"
"031220","05:57:25","141306629","test","2","prime_negative","61","9","7","1","326","51","72"
"031220","05:57:25","141306629","test","2","prime_negative","62","7","39","1","410","51","73"
"031220","05:57:25","141306629","test","2","prime_negative","63","4","3","1","460","51","74"
"031220","05:57:25","141306629","test","2","prime_negative","64","4","31","1","386","51","75"
"031220","05:57:25","141306629","test","2","prime_positive","65","6","13","0","514","50","75"
"031220","05:57:25","141306629","test","2","prime_negative","66","9","8","1","618","50","75"
"031220","05:57:25","141306629","test","2","prime_negative","67","5","27","0","459","50","73"
"031220","05:57:25","141306629","test","2","prime_negative","68","12","16","1","512","50","74"
"031220","05:57:25","141306629","test","2","prime_positive","69","2","64","1","408","51","74"
"031220","05:57:25","141306629","test","2","prime_positive","70","8","59","1","490","52","74"
"031220","05:57:25","141306629","test","2","prime_negative","71","1","49","1","933","52","75"
"031220","05:57:25","141306629","test","2","prime_positive","72","10","10","1","3647","54","75"
"031220","05:57:25","141306629","test","2","prime_positive","73","1","4","0","696","52","75"
"031220","11:02:33","100780069","practice","1","prime_positive_practice","4","0","0","0","1575","0","0"
"031220","11:02:33","100780069","practice","1","prime_negative_practice","5","0","0","1","1701","0","0"
"031220","11:02:33","100780069","practice","1","prime_positive_practice","6","0","0","0","1469","0","0"
"031220","11:02:33","100780069","practice","1","prime_negative_practice","7","0","0","1","1520","0","0"
"031220","11:02:33","100780069","practice","1","prime_negative_practice","8","0","0","0","2201","0","0"
"031220","11:02:33","100780069","practice","1","prime_negative_practice","9","0","0","0","3171","0","0"
"031220","11:02:33","100780069","practice","1","prime_positive_practice","10","0","0","1","1462","0","0"
"031220","11:02:33","100780069","practice","1","prime_positive_practice","11","0","0","0","1933","0","0"
"031220","11:02:33","100780069","practice","1","prime_positive_practice","12","0","0","0","3097","0","0"
"031220","11:02:33","100780069","practice","1","prime_negative_practice","13","0","0","0","1671","0","0"
"031220","11:02:33","100780069","test","2","prime_positive","2","7","49","1","2741","100","0"
"031220","11:02:33","100780069","test","2","prime_positive","3","4","71","0","2813","50","0"
"031220","11:02:33","100780069","test","2","prime_positive","4","9","54","1","2546","66","0"
"031220","11:02:33","100780069","test","2","prime_negative","5","11","2","1","985","66","100"
"031220","11:02:33","100780069","test","2","prime_positive","6","6","20","0","1799","50","100"
"031220","11:02:33","100780069","test","2","prime_positive","7","3","50","0","1969","40","100"
"031220","11:02:33","100780069","test","2","prime_negative","8","5","3","0","1425","40","50"
"031220","11:02:33","100780069","test","2","prime_positive","9","5","13","1","1330","50","50"
"031220","11:02:33","100780069","test","2","prime_positive","10","11","22","0","1032","42","50"
"031220","11:02:33","100780069","test","2","prime_negative","11","12","70","1","1174","42","66"
"031220","11:02:33","100780069","test","2","prime_positive","12","5","36","1","968","50","66"
"031220","11:02:33","100780069","test","2","prime_negative","13","3","44","0","773","50","50"
"031220","11:02:33","100780069","test","2","prime_negative","14","7","4","0","1909","50","40"
"031220","11:02:33","100780069","test","2","prime_negative","15","2","46","1","736","50","50"
"031220","11:02:33","100780069","test","2","prime_positive","16","7","10","1","2186","55","50"
"031220","11:02:33","100780069","test","2","prime_negative","17","4","19","0","988","55","42"
"031220","11:02:33","100780069","test","2","prime_negative","18","7","57","0","2106","55","37"
"031220","11:02:33","100780069","test","2","prime_positive","19","8","21","0","860","50","37"
"031220","11:02:33","100780069","test","2","prime_negative","20","12","27","1","712","50","44"
"031220","11:02:33","100780069","test","2","prime_positive","21","2","33","1","1234","54","44"
"031220","11:02:33","100780069","test","2","prime_negative","22","1","48","0","792","54","40"
"031220","11:02:33","100780069","test","2","prime_negative","23","5","45","0","955","54","36"
"031220","11:02:33","100780069","test","2","prime_negative","24","11","69","1","1307","54","41"
"031220","11:02:33","100780069","test","2","prime_positive","25","1","26","0","847","50","41"
"031220","11:02:33","100780069","test","2","prime_positive","26","10","64","0","2634","46","41"
"031220","11:02:33","100780069","test","2","prime_negative","27","9","15","0","1062","46","38"
"031220","11:02:33","100780069","test","2","prime_negative","28","10","31","1","1217","46","42"
"031220","11:02:33","100780069","test","2","prime_negative","29","4","40","1","709","46","46"
"031220","11:02:33","100780069","test","2","prime_negative","30","6","30","1","1300","46","50"
"031220","11:02:33","100780069","test","2","prime_positive","31","11","9","1","747","50","50"
"031220","11:02:33","100780069","test","2","prime_positive","32","4","43","0","2501","46","50"
"031220","11:02:33","100780069","test","2","prime_positive","33","6","23","1","1324","50","50"
"031220","11:02:33","100780069","test","2","prime_negative","34","2","47","0","878","50","47"
"031220","11:02:33","100780069","test","2","prime_positive","35","3","1","0","815","47","47"
"031220","11:02:33","100780069","test","2","prime_positive","36","9","56","0","575","44","47"
"031220","11:02:33","100780069","test","2","prime_negative","37","3","32","0","818","44","44"
"031220","11:02:33","100780069","test","2","prime_negative","38","8","18","1","807","44","47"
"031220","11:02:33","100780069","test","2","prime_positive","39","12","51","0","653","42","47"
"031220","11:02:33","100780069","test","2","prime_negative","40","3","39","1","2721","42","50"
"031220","11:02:33","100780069","test","2","prime_positive","41","2","52","0","1024","40","50"
"031220","11:02:33","100780069","test","2","prime_positive","42","9","8","1","2897","42","50"
"031220","11:02:33","100780069","test","2","prime_negative","43","9","62","0","835","42","47"
"031220","11:02:33","100780069","test","2","prime_positive","44","12","67","1","3210","45","47"
"031220","11:02:33","100780069","test","2","prime_negative","45","12","59","0","646","45","45"
"031220","11:02:33","100780069","test","2","prime_negative","46","8","66","1","1283","45","47"
"031220","11:02:33","100780069","test","2","prime_negative","47","2","6","1","877","45","50"
"031220","11:02:33","100780069","test","2","prime_positive","48","4","24","1","702","47","50"
"031220","11:02:33","100780069","test","2","prime_positive","49","5","42","0","808","45","50"
"031220","11:02:33","100780069","test","2","prime_negative","50","1","12","1","1682","45","52"
"031220","11:02:33","100780069","test","2","prime_negative","51","11","34","0","728","45","50"
"031220","11:02:33","100780069","test","2","prime_positive","52","8","53","0","1026","44","50"
"031220","11:02:33","100780069","test","2","prime_positive","53","6","35","0","2046","42","50"
"031220","11:02:33","100780069","test","2","prime_negative","54","7","61","1","1828","42","51"
"031220","11:02:33","100780069","test","2","prime_positive","55","7","29","1","716","44","51"
"031220","11:02:33","100780069","test","2","prime_negative","56","5","55","0","981","44","50"
"031220","11:02:33","100780069","test","2","prime_negative","57","6","65","0","1394","44","48"
"031220","11:02:33","100780069","test","2","prime_negative","58","10","72","0","1165","44","46"
"031220","11:02:33","100780069","test","2","prime_negative","59","4","63","0","893","44","45"
"031220","11:02:33","100780069","test","2","prime_positive","60","10","38","1","993","46","45"
"031220","11:02:33","100780069","test","2","prime_negative","61","6","37","0","668","46","43"
"031220","11:02:33","100780069","test","2","prime_positive","62","3","14","0","1765","44","43"
"031220","11:02:33","100780069","test","2","prime_negative","63","4","28","0","483","44","42"
"031220","11:02:33","100780069","test","2","prime_negative","64","11","9","1","700","44","44"
"031220","11:02:33","100780069","test","2","prime_negative","65","5","55","0","432","44","42"
"031220","11:02:33","100780069","test","2","prime_positive","66","1","59","1","1602","46","42"
"031220","11:02:33","100780069","test","2","prime_positive","67","11","51","0","629","45","42"
"031220","11:02:33","100780069","test","2","prime_positive","68","1","38","1","978","46","42"
"031220","11:02:33","100780069","test","2","prime_positive","69","11","31","0","716","45","42"
"031220","11:02:33","100780069","test","2","prime_negative","70","12","33","0","1004","45","41"
"031220","11:02:33","100780069","test","2","prime_positive","71","4","46","1","895","47","41"
"031220","11:02:33","100780069","test","2","prime_positive","72","5","56","0","782","45","41"
"031220","11:02:33","100780069","test","2","prime_positive","73","7","39","1","780","47","41"
"031220","11:07:26","235732843","practice","1","prime_positive_practice","4","0","0","1","1879","0","0"
"031220","11:07:26","235732843","practice","1","prime_positive_practice","5","0","0","1","255","0","0"
"031220","11:07:26","235732843","practice","1","prime_positive_practice","6","0","0","1","249","0","0"
"031220","11:07:26","235732843","practice","1","prime_negative_practice","7","0","0","0","409","0","0"
"031220","11:07:26","235732843","practice","1","prime_negative_practice","8","0","0","0","530","0","0"
"031220","11:07:26","235732843","practice","1","prime_positive_practice","9","0","0","0","861","0","0"
"031220","11:07:26","235732843","practice","1","prime_negative_practice","10","0","0","1","858","0","0"
"031220","11:07:26","235732843","practice","1","prime_negative_practice","11","0","0","0","661","0","0"
"031220","11:07:26","235732843","practice","1","prime_positive_practice","12","0","0","0","577","0","0"
"031220","11:07:26","235732843","practice","1","prime_negative_practice","13","0","0","0","558","0","0"
"031220","11:07:26","235732843","test","2","prime_positive","2","5","26","1","1727","100","0"
"031220","11:07:26","235732843","test","2","prime_positive","3","9","50","1","255","100","0"
"031220","11:07:26","235732843","test","2","prime_positive","4","12","38","1","465","100","0"
"031220","11:07:26","235732843","test","2","prime_negative","5","12","56","0","268","100","0"
"031220","11:07:26","235732843","test","2","prime_negative","6","9","39","0","351","100","0"
"031220","11:07:26","235732843","test","2","prime_negative","7","6","14","0","370","100","0"
"031220","11:07:26","235732843","test","2","prime_positive","8","4","35","0","642","75","0"
"031220","11:07:26","235732843","test","2","prime_negative","9","11","4","0","514","75","0"
"031220","11:07:26","235732843","test","2","prime_negative","10","3","5","0","314","75","0"
"031220","11:07:26","235732843","test","2","prime_positive","11","7","49","1","383","80","0"
"031220","11:07:26","235732843","test","2","prime_negative","12","10","33","0","389","80","0"
"031220","11:07:26","235732843","test","2","prime_positive","13","11","51","1","259","83","0"
"031220","11:07:26","235732843","test","2","prime_positive","14","10","58","1","354","85","0"
"031220","11:07:26","235732843","test","2","prime_positive","15","12","20","1","428","87","0"
"031220","11:07:26","235732843","test","2","prime_positive","16","7","30","1","1010","88","0"
"031220","11:07:26","235732843","test","2","prime_positive","17","11","29","1","300","90","0"
"031220","11:07:26","235732843","test","2","prime_positive","18","2","25","0","438","81","0"
"031220","11:07:26","235732843","test","2","prime_positive","19","1","6","1","254","83","0"
"031220","11:07:26","235732843","test","2","prime_positive","20","9","24","1","276","84","0"
"031220","11:07:26","235732843","test","2","prime_positive","21","6","37","0","337","78","0"
"031220","11:07:26","235732843","test","2","prime_positive","22","10","71","1","425","80","0"
"031220","11:07:26","235732843","test","2","prime_positive","23","5","55","1","817","81","0"
"031220","11:07:26","235732843","test","2","prime_positive","24","3","44","1","238","82","0"
"031220","11:07:26","235732843","test","2","prime_positive","25","4","18","1","3480","83","0"
"031220","11:07:26","235732843","test","2","prime_positive","26","8","8","1","1416","84","0"
"031220","11:07:26","235732843","test","2","prime_positive","27","9","67","0","725","80","0"
"031220","11:07:26","235732843","test","2","prime_negative","28","1","41","1","851","80","14"
"031220","11:07:26","235732843","test","2","prime_negative","29","7","48","1","645","80","25"
"031220","11:07:26","235732843","test","2","prime_positive","30","11","53","1","964","80","25"
"031220","11:07:26","235732843","test","2","prime_positive","31","6","27","1","531","81","25"
"031220","11:07:26","235732843","test","2","prime_negative","32","2","7","1","751","81","33"
"031220","11:07:26","235732843","test","2","prime_negative","33","5","34","0","384","81","30"
"031220","11:07:26","235732843","test","2","prime_positive","34","2","62","0","1526","78","30"
"031220","11:07:26","235732843","test","2","prime_negative","35","1","68","1","621","78","36"
"031220","11:07:26","235732843","test","2","prime_positive","36","12","11","0","772","75","36"
"031220","11:07:26","235732843","test","2","prime_negative","37","3","43","1","1085","75","41"
"031220","11:07:26","235732843","test","2","prime_negative","38","6","69","1","416","75","46"
"031220","11:07:26","235732843","test","2","prime_negative","39","8","63","0","665","75","42"
"031220","11:07:26","235732843","test","2","prime_negative","40","11","31","1","899","75","46"
"031220","11:07:26","235732843","test","2","prime_positive","41","5","10","1","456","76","46"
"031220","11:07:26","235732843","test","2","prime_positive","42","8","54","1","524","76","46"
"031220","11:07:26","235732843","test","2","prime_negative","43","4","59","0","868","76","43"
"031220","11:07:26","235732843","test","2","prime_negative","44","9","57","0","769","76","41"
"031220","11:07:26","235732843","test","2","prime_negative","45","12","36","1","468","76","44"
"031220","11:07:26","235732843","test","2","prime_negative","46","10","21","1","509","76","47"
"031220","11:07:26","235732843","test","2","prime_negative","47","3","23","1","1206","76","50"
"031220","11:07:26","235732843","test","2","prime_negative","48","10","32","0","860","76","47"
"031220","11:07:26","235732843","test","2","prime_negative","49","5","47","0","795","76","45"
"031220","11:07:26","235732843","test","2","prime_positive","50","7","60","0","802","74","45"
"031220","11:07:26","235732843","test","2","prime_negative","51","11","72","0","716","74","43"
"031220","11:07:26","235732843","test","2","prime_negative","52","12","17","1","554","74","45"
"031220","11:07:26","235732843","test","2","prime_positive","53","4","45","0","591","71","45"
"031220","11:07:26","235732843","test","2","prime_positive","54","1","42","1","387","72","45"
"031220","11:07:26","235732843","test","2","prime_negative","55","7","19","1","445","72","48"
"031220","11:07:26","235732843","test","2","prime_positive","56","10","52","1","529","73","48"
"031220","11:07:26","235732843","test","2","prime_negative","57","8","65","1","624","73","50"
"031220","11:07:26","235732843","test","2","prime_negative","58","6","70","1","705","73","51"
"031220","11:07:26","235732843","test","2","prime_negative","59","4","16","1","468","73","53"
"031220","11:07:26","235732843","test","2","prime_negative","60","2","46","1","855","73","55"
"031220","11:07:26","235732843","test","2","prime_positive","61","3","61","1","579","74","55"
"031220","11:07:26","235732843","test","2","prime_positive","62","11","13","1","538","75","55"
"031220","11:07:26","235732843","test","2","prime_positive","63","2","12","0","334","72","55"
"031220","11:07:26","235732843","test","2","prime_positive","64","5","42","0","509","70","55"
"031220","11:07:26","235732843","test","2","prime_positive","65","4","23","1","572","71","55"
"031220","11:07:26","235732843","test","2","prime_negative","66","9","32","1","529","71","56"
"031220","11:07:26","235732843","test","2","prime_positive","67","6","25","1","1059","72","56"
"031220","11:07:26","235732843","test","2","prime_negative","68","1","1","0","457","72","54"
"031220","11:07:26","235732843","test","2","prime_negative","69","9","57","0","1306","72","53"
"031220","11:07:26","235732843","test","2","prime_negative","70","11","24","1","631","72","54"
"031220","11:07:26","235732843","test","2","prime_negative","71","12","22","0","694","72","52"
"031220","11:07:26","235732843","test","2","prime_negative","72","6","27","1","534","72","54"
"031220","11:07:26","235732843","test","2","prime_negative","73","2","29","1","468","72","55"
"031220","11:07:09","807543404","practice","1","prime_positive_practice","4","0","0","0","1962","0","0"
"031220","11:07:09","807543404","practice","1","prime_negative_practice","5","0","0","1","837","0","0"
"031220","11:07:09","807543404","practice","1","prime_positive_practice","6","0","0","0","605","0","0"
"031220","11:07:09","807543404","practice","1","prime_negative_practice","7","0","0","1","378","0","0"
"031220","11:07:09","807543404","practice","1","prime_negative_practice","8","0","0","1","481","0","0"
"031220","11:07:09","807543404","practice","1","prime_positive_practice","9","0","0","0","384","0","0"
"031220","11:07:09","807543404","practice","1","prime_negative_practice","10","0","0","1","1086","0","0"
"031220","11:07:09","807543404","practice","1","prime_positive_practice","11","0","0","0","662","0","0"
"031220","11:07:09","807543404","practice","1","prime_negative_practice","12","0","0","1","462","0","0"
"031220","11:07:09","807543404","practice","1","prime_positive_practice","13","0","0","0","462","0","0"
"031220","11:07:09","807543404","test","2","prime_negative","2","6","22","1","821","0","100"
"031220","11:07:09","807543404","test","2","prime_negative","3","10","45","1","441","0","100"
"031220","11:07:09","807543404","test","2","prime_negative","4","1","31","1","372","0","100"
"031220","11:07:09","807543404","test","2","prime_negative","5","3","72","1","363","0","100"
"031220","11:07:09","807543404","test","2","prime_positive","6","11","1","0","357","0","100"
"031220","11:07:09","807543404","test","2","prime_positive","7","1","18","0","365","0","100"
"031220","11:07:09","807543404","test","2","prime_negative","8","12","66","1","362","0","100"
"031220","11:07:09","807543404","test","2","prime_positive","9","6","38","0","326","0","100"
"031220","11:07:09","807543404","test","2","prime_negative","10","9","23","1","374","0","100"
"031220","11:07:09","807543404","test","2","prime_negative","11","2","25","1","259","0","100"
"031220","11:07:09","807543404","test","2","prime_negative","12","6","27","1","388","0","100"
"031220","11:07:09","807543404","test","2","prime_negative","13","8","62","1","284","0","100"
"031220","11:07:09","807543404","test","2","prime_positive","14","2","44","1","698","25","100"
"031220","11:07:09","807543404","test","2","prime_negative","15","7","59","1","413","25","100"
"031220","11:07:09","807543404","test","2","prime_negative","16","10","37","1","547","25","100"
"031220","11:07:09","807543404","test","2","prime_positive","17","5","65","0","438","20","100"
"031220","11:07:09","807543404","test","2","prime_negative","18","9","13","1","299","20","100"
"031220","11:07:09","807543404","test","2","prime_negative","19","4","15","1","469","20","100"
"031220","11:07:09","807543404","test","2","prime_negative","20","3","17","1","298","20","100"
"031220","11:07:09","807543404","test","2","prime_negative","21","11","71","1","329","20","100"
"031220","11:07:09","807543404","test","2","prime_positive","22","3","50","0","400","16","100"
"031220","11:07:09","807543404","test","2","prime_negative","23","5","51","1","317","16","100"
"031220","11:07:09","807543404","test","2","prime_positive","24","4","47","0","809","14","100"
"031220","11:07:09","807543404","test","2","prime_negative","25","12","61","1","318","14","100"
"031220","11:07:09","807543404","test","2","prime_positive","26","9","3","0","674","12","100"
"031220","11:07:09","807543404","test","2","prime_positive","27","12","19","0","754","11","100"
"031220","11:07:09","807543404","test","2","prime_negative","28","2","16","1","288","11","100"
"031220","11:07:09","807543404","test","2","prime_positive","29","6","57","0","610","10","100"
"031220","11:07:09","807543404","test","2","prime_positive","30","7","14","0","381","9","100"
"031220","11:07:09","807543404","test","2","prime_positive","31","11","70","0","405","8","100"
"031220","11:07:09","807543404","test","2","prime_positive","32","8","69","0","481","7","100"
"031220","11:07:09","807543404","test","2","prime_positive","33","1","43","1","396","14","100"
"031220","11:07:09","807543404","test","2","prime_negative","34","1","32","1","481","14","100"
"031220","11:07:09","807543404","test","2","prime_negative","35","6","68","1","288","14","100"
"031220","11:07:09","807543404","test","2","prime_negative","36","3","41","1","274","14","100"
"031220","11:07:09","807543404","test","2","prime_positive","37","3","56","0","354","13","100"
"031220","11:07:09","807543404","test","2","prime_positive","38","5","28","0","292","12","100"
"031220","11:07:09","807543404","test","2","prime_negative","39","1","39","1","436","12","100"
"031220","11:07:09","807543404","test","2","prime_positive","40","10","10","0","341","11","100"
"031220","11:07:09","807543404","test","2","prime_negative","41","2","34","1","297","11","100"
"031220","11:07:09","807543404","test","2","prime_negative","42","11","30","1","522","11","100"
"031220","11:07:09","807543404","test","2","prime_positive","43","4","35","0","376","11","100"
"031220","11:07:09","807543404","test","2","prime_positive","44","2","46","1","628","15","100"
"031220","11:07:09","807543404","test","2","prime_negative","45","12","11","1","444","15","100"
"031220","11:07:09","807543404","test","2","prime_negative","46","10","26","1","1407","15","100"
"031220","11:07:09","807543404","test","2","prime_negative","47","7","53","1","410","15","100"
"031220","11:07:09","807543404","test","2","prime_positive","48","6","20","0","439","15","100"
"031220","11:07:09","807543404","test","2","prime_positive","49","7","64","0","335","14","100"
"031220","11:07:09","807543404","test","2","prime_positive","50","5","48","0","282","13","100"
"031220","11:07:09","807543404","test","2","prime_positive","51","3","8","0","239","13","100"
"031220","11:07:09","807543404","test","2","prime_positive","52","2","29","1","371","16","100"
"031220","11:07:09","807543404","test","2","prime_positive","53","12","36","0","889","16","100"
"031220","11:07:09","807543404","test","2","prime_positive","54","4","9","0","419","15","100"
"031220","11:07:09","807543404","test","2","prime_negative","55","5","54","1","317","15","100"
"031220","11:07:09","807543404","test","2","prime_positive","56","11","33","0","519","14","100"
"031220","11:07:09","807543404","test","2","prime_negative","57","4","4","1","412","14","100"
"031220","11:07:09","807543404","test","2","prime_negative","58","9","42","1","314","14","100"
"031220","11:07:09","807543404","test","2","prime_positive","59","10","49","0","284","14","100"
"031220","11:07:09","807543404","test","2","prime_positive","60","1","55","0","279","13","100"
"031220","11:07:09","807543404","test","2","prime_negative","61","8","52","1","368","13","100"
"031220","11:07:09","807543404","test","2","prime_positive","62","8","67","0","338","13","100"
"031220","11:07:09","807543404","test","2","prime_positive","63","9","5","0","352","12","100"
"031220","11:07:09","807543404","test","2","prime_positive","64","8","54","0","331","12","100"
"031220","11:07:09","807543404","test","2","prime_negative","65","12","52","1","242","12","100"
"031220","11:07:09","807543404","test","2","prime_positive","66","7","61","0","217","12","100"
"031220","11:07:09","807543404","test","2","prime_positive","67","3","3","0","284","11","100"
"031220","11:07:09","807543404","test","2","prime_negative","68","3","35","1","132","11","100"
"031220","11:07:09","807543404","test","2","prime_positive","69","9","27","0","335","11","100"
"031220","11:07:09","807543404","test","2","prime_negative","70","9","36","1","275","11","100"
"031220","11:07:09","807543404","test","2","prime_positive","71","10","65","0","280","11","100"
"031220","11:07:09","807543404","test","2","prime_negative","72","11","31","1","333","11","100"
"031220","11:07:09","807543404","test","2","prime_negative","73","1","22","1","143","11","100"
"031320","00:14:39","450679190","practice","1","prime_negative_practice","4","0","0","1","2903","0","0"
"031320","00:14:39","450679190","practice","1","prime_positive_practice","5","0","0","0","4310","0","0"
"031320","00:14:39","450679190","practice","1","prime_positive_practice","6","0","0","0","1834","0","0"
"031320","00:14:39","450679190","practice","1","prime_positive_practice","7","0","0","1","868","0","0"
"031320","00:14:39","450679190","practice","1","prime_negative_practice","8","0","0","0","2262","0","0"
"031320","00:14:39","450679190","practice","1","prime_positive_practice","9","0","0","0","1067","0","0"
"031320","00:14:39","450679190","practice","1","prime_negative_practice","10","0","0","0","804","0","0"
"031320","00:14:39","450679190","practice","1","prime_positive_practice","11","0","0","1","448","0","0"
"031320","00:14:39","450679190","practice","1","prime_negative_practice","12","0","0","0","549","0","0"
"031320","00:14:39","450679190","practice","1","prime_negative_practice","13","0","0","0","1224","0","0"
"031320","00:14:39","450679190","test","2","prime_negative","2","12","71","0","887","0","0"
"031320","00:14:39","450679190","test","2","prime_negative","3","7","45","1","650","0","50"
"031320","00:14:39","450679190","test","2","prime_positive","4","8","65","1","993","100","50"
"031320","00:14:39","450679190","test","2","prime_positive","5","4","14","1","597","100","50"
"031320","00:14:39","450679190","test","2","prime_positive","6","7","54","1","1083","100","50"
"031320","00:14:39","450679190","test","2","prime_positive","7","12","50","1","836","100","50"
"031320","00:14:39","450679190","test","2","prime_positive","8","2","9","0","507","80","50"
"031320","00:14:39","450679190","test","2","prime_negative","9","10","16","1","1022","80","66"
"031320","00:14:39","450679190","test","2","prime_negative","10","5","28","0","1006","80","50"
"031320","00:14:39","450679190","test","2","prime_positive","11","9","20","1","491","83","50"
"031320","00:14:39","450679190","test","2","prime_negative","12","11","18","0","477","83","40"
"031320","00:14:39","450679190","test","2","prime_positive","13","5","26","1","538","85","40"
"031320","00:14:39","450679190","test","2","prime_negative","14","4","23","0","1164","85","33"
"031320","00:14:39","450679190","test","2","prime_negative","15","1","6","1","530","85","42"
"031320","00:14:39","450679190","test","2","prime_negative","16","10","51","0","515","85","37"
"031320","00:14:39","450679190","test","2","prime_negative","17","12","25","1","570","85","44"
"031320","00:14:39","450679190","test","2","prime_positive","18","7","29","1","680","87","44"
"031320","00:14:39","450679190","test","2","prime_negative","19","4","31","1","785","87","50"
"031320","00:14:39","450679190","test","2","prime_positive","20","6","10","0","3220","77","50"
"031320","00:14:39","450679190","test","2","prime_positive","21","12","12","1","1257","80","50"
"031320","00:14:39","450679190","test","2","prime_positive","22","3","60","1","583","81","50"
"031320","00:14:39","450679190","test","2","prime_negative","23","11","35","0","432","81","45"
"031320","00:14:39","450679190","test","2","prime_positive","24","5","2","1","418","83","45"
"031320","00:14:39","450679190","test","2","prime_negative","25","2","57","0","304","83","41"
"031320","00:14:39","450679190","test","2","prime_negative","26","5","27","0","723","83","38"
"031320","00:14:39","450679190","test","2","prime_positive","27","4","63","1","257","84","38"
"031320","00:14:39","450679190","test","2","prime_positive","28","11","1","1","435","85","38"
"031320","00:14:39","450679190","test","2","prime_negative","29","3","33","0","434","85","35"
"031320","00:14:39","450679190","test","2","prime_positive","30","9","67","1","393","86","35"
"031320","00:14:39","450679190","test","2","prime_positive","31","10","70","1","771","87","35"
"031320","00:14:39","450679190","test","2","prime_positive","32","2","13","0","364","82","35"
"031320","00:14:39","450679190","test","2","prime_negative","33","8","47","0","1035","82","33"
"031320","00:14:39","450679190","test","2","prime_positive","34","8","21","1","591","83","33"
"031320","00:14:39","450679190","test","2","prime_positive","35","1","17","1","780","84","33"
"031320","00:14:39","450679190","test","2","prime_negative","36","9","61","0","806","84","31"
"031320","00:14:39","450679190","test","2","prime_negative","37","7","7","1","445","84","35"
"031320","00:14:39","450679190","test","2","prime_negative","38","6","66","0","634","84","33"
"031320","00:14:39","450679190","test","2","prime_positive","39","8","8","1","373","85","33"
"031320","00:14:39","450679190","test","2","prime_positive","40","9","39","1","225","85","33"
"031320","00:14:39","450679190","test","2","prime_negative","41","1","3","0","939","85","31"
"031320","00:14:39","450679190","test","2","prime_negative","42","1","30","0","1030","85","30"
"031320","00:14:39","450679190","test","2","prime_positive","43","7","52","1","240","86","30"
"031320","00:14:39","450679190","test","2","prime_negative","44","9","59","0","286","86","28"
"031320","00:14:39","450679190","test","2","prime_negative","45","12","44","1","642","86","31"
"031320","00:14:39","450679190","test","2","prime_negative","46","6","19","0","304","86","30"
"031320","00:14:39","450679190","test","2","prime_positive","47","12","40","1","389","86","30"
"031320","00:14:39","450679190","test","2","prime_positive","48","5","72","1","632","87","30"
"031320","00:14:39","450679190","test","2","prime_negative","49","10","4","0","1436","87","29"
"031320","00:14:39","450679190","test","2","prime_positive","50","4","58","1","1369","88","29"
"031320","00:14:39","450679190","test","2","prime_negative","51","4","43","1","341","88","32"
"031320","00:14:39","450679190","test","2","prime_positive","52","10","68","1","256","88","32"
"031320","00:14:39","450679190","test","2","prime_positive","53","11","41","1","436","88","32"
"031320","00:14:39","450679190","test","2","prime_negative","54","2","53","0","385","88","30"
"031320","00:14:39","450679190","test","2","prime_negative","55","8","62","1","432","88","33"
"031320","00:14:39","450679190","test","2","prime_negative","56","7","11","1","945","88","35"
"031320","00:14:39","450679190","test","2","prime_negative","57","11","42","0","384","88","34"
"031320","00:14:39","450679190","test","2","prime_positive","58","3","37","1","367","89","34"
"031320","00:14:39","450679190","test","2","prime_positive","59","1","56","1","721","89","34"
"031320","00:14:39","450679190","test","2","prime_negative","60","3","32","0","366","89","33"
"031320","00:14:39","450679190","test","2","prime_negative","61","5","64","1","511","89","35"
"031320","00:14:39","450679190","test","2","prime_positive","62","6","22","0","502","86","35"
"031320","00:14:39","450679190","test","2","prime_negative","63","8","38","0","489","86","34"
"031320","00:14:39","450679190","test","2","prime_positive","64","2","3","0","554","83","34"
"031320","00:14:39","450679190","test","2","prime_positive","65","9","67","1","288","84","34"
"031320","00:14:39","450679190","test","2","prime_negative","66","12","15","0","977","84","33"
"031320","00:14:39","450679190","test","2","prime_positive","67","6","35","1","224","84","33"
"031320","00:14:39","450679190","test","2","prime_positive","68","8","26","1","1129","85","33"
"031320","00:14:39","450679190","test","2","prime_negative","69","6","24","0","318","85","32"
"031320","00:14:39","450679190","test","2","prime_negative","70","4","66","1","230","85","34"
"031320","00:14:39","450679190","test","2","prime_positive","71","7","17","1","308","85","34"
"031320","00:14:39","450679190","test","2","prime_positive","72","2","32","0","654","83","34"
"031320","00:14:39","450679190","test","2","prime_negative","73","7","57","1","363","83","36"
"031220","11:17:07","939935663","practice","1","prime_negative_practice","4","0","0","0","3053","0","0"
"031220","11:17:07","939935663","practice","1","prime_positive_practice","5","0","0","0","2908","0","0"
"031220","11:17:07","939935663","practice","1","prime_negative_practice","6","0","0","1","2056","0","0"
"031220","11:17:07","939935663","practice","1","prime_negative_practice","7","0","0","1","923","0","0"
"031220","11:17:07","939935663","practice","1","prime_positive_practice","8","0","0","1","624","0","0"
"031220","11:17:07","939935663","practice","1","prime_negative_practice","9","0","0","1","766","0","0"
"031220","11:17:07","939935663","practice","1","prime_positive_practice","10","0","0","1","700","0","0"
"031220","11:17:07","939935663","practice","1","prime_positive_practice","11","0","0","1","824","0","0"
"031220","11:17:07","939935663","practice","1","prime_positive_practice","12","0","0","0","701","0","0"
"031220","11:17:07","939935663","practice","1","prime_negative_practice","13","0","0","1","577","0","0"
"031220","11:17:07","939935663","test","2","prime_positive","2","10","33","1","904","100","0"
"031220","11:17:07","939935663","test","2","prime_positive","3","4","30","0","476","50","0"
"031220","11:17:07","939935663","test","2","prime_negative","4","2","25","1","537","50","100"
"031220","11:17:07","939935663","test","2","prime_negative","5","12","7","1","358","50","100"
"031220","11:17:07","939935663","test","2","prime_negative","6","7","65","0","523","50","66"
"031220","11:17:07","939935663","test","2","prime_negative","7","9","16","1","553","50","75"
"031220","11:17:07","939935663","test","2","prime_negative","8","5","26","0","575","50","60"
"031220","11:17:07","939935663","test","2","prime_negative","9","11","53","1","597","50","66"
"031220","11:17:07","939935663","test","2","prime_positive","10","1","28","1","608","66","66"
"031220","11:17:07","939935663","test","2","prime_positive","11","8","57","0","314","50","66"
"031220","11:17:07","939935663","test","2","prime_negative","12","10","27","1","325","50","71"
"031220","11:17:07","939935663","test","2","prime_positive","13","9","41","0","193","40","71"
"031220","11:17:07","939935663","test","2","prime_negative","14","7","62","1","576","40","75"
"031220","11:17:07","939935663","test","2","prime_positive","15","2","43","1","379","50","75"
"031220","11:17:07","939935663","test","2","prime_positive","16","12","10","1","396","57","75"
"031220","11:17:07","939935663","test","2","prime_positive","17","12","72","0","400","50","75"
"031220","11:17:07","939935663","test","2","prime_negative","18","4","54","1","416","50","77"
"031220","11:17:07","939935663","test","2","prime_negative","19","6","29","1","515","50","80"
"031220","11:17:07","939935663","test","2","prime_negative","20","3","44","0","716","50","72"
"031220","11:17:07","939935663","test","2","prime_positive","21","7","19","1","376","55","72"
"031220","11:17:07","939935663","test","2","prime_negative","22","8","52","0","408","55","66"
"031220","11:17:07","939935663","test","2","prime_positive","23","8","64","1","424","60","66"
"031220","11:17:07","939935663","test","2","prime_positive","24","1","42","0","355","54","66"
"031220","11:17:07","939935663","test","2","prime_negative","25","10","23","1","549","54","69"
"031220","11:17:07","939935663","test","2","prime_positive","26","9","21","1","320","58","69"
"031220","11:17:07","939935663","test","2","prime_positive","27","2","1","1","580","61","69"
"031220","11:17:07","939935663","test","2","prime_positive","28","11","36","1","455","64","69"
"031220","11:17:07","939935663","test","2","prime_positive","29","10","67","1","508","66","69"
"031220","11:17:07","939935663","test","2","prime_negative","30","12","20","1","394","66","71"
"031220","11:17:07","939935663","test","2","prime_positive","31","5","18","0","444","62","71"
"031220","11:17:07","939935663","test","2","prime_positive","32","4","56","0","694","58","71"
"031220","11:17:07","939935663","test","2","prime_positive","33","3","40","1","524","61","71"
"031220","11:17:07","939935663","test","2","prime_positive","34","6","47","1","516","63","71"
"031220","11:17:07","939935663","test","2","prime_negative","35","9","51","0","466","63","66"
"031220","11:17:07","939935663","test","2","prime_positive","36","9","35","1","444","65","66"
"031220","11:17:07","939935663","test","2","prime_negative","37","5","46","0","439","65","62"
"031220","11:17:07","939935663","test","2","prime_negative","38","11","9","1","399","65","64"
"031220","11:17:07","939935663","test","2","prime_negative","39","2","55","0","557","65","61"
"031220","11:17:07","939935663","test","2","prime_positive","40","12","31","1","400","66","61"
"031220","11:17:07","939935663","test","2","prime_negative","41","1","6","1","695","66","63"
"031220","11:17:07","939935663","test","2","prime_positive","42","3","5","1","527","68","63"
"031220","11:17:07","939935663","test","2","prime_negative","43","9","71","0","484","68","60"
"031220","11:17:07","939935663","test","2","prime_positive","44","8","69","1","445","69","60"
"031220","11:17:07","939935663","test","2","prime_negative","45","5","50","0","375","69","57"
"031220","11:17:07","939935663","test","2","prime_negative","46","7","15","1","394","69","59"
"031220","11:17:07","939935663","test","2","prime_negative","47","1","3","0","413","69","56"
"031220","11:17:07","939935663","test","2","prime_positive","48","1","2","0","685","66","56"
"031220","11:17:07","939935663","test","2","prime_negative","49","11","12","1","510","66","58"
"031220","11:17:07","939935663","test","2","prime_positive","50","10","11","1","848","68","58"
"031220","11:17:07","939935663","test","2","prime_negative","51","6","49","1","405","68","60"
"031220","11:17:07","939935663","test","2","prime_positive","52","4","45","1","573","69","60"
"031220","11:17:07","939935663","test","2","prime_negative","53","4","8","1","647","69","61"
"031220","11:17:07","939935663","test","2","prime_negative","54","2","22","1","713","69","62"
"031220","11:17:07","939935663","test","2","prime_positive","55","5","61","0","563","66","62"
"031220","11:17:07","939935663","test","2","prime_negative","56","10","17","1","707","66","64"
"031220","11:17:07","939935663","test","2","prime_positive","57","7","13","1","1108","67","64"
"031220","11:17:07","939935663","test","2","prime_positive","58","2","60","0","429","65","64"
"031220","11:17:07","939935663","test","2","prime_positive","59","6","70","1","442","66","64"
"031220","11:17:07","939935663","test","2","prime_negative","60","3","24","1","516","66","65"
"031220","11:17:07","939935663","test","2","prime_negative","61","12","68","1","676","66","66"
"031220","11:17:07","939935663","test","2","prime_positive","62","11","59","1","679","67","66"
"031220","11:17:07","939935663","test","2","prime_negative","63","8","63","1","836","67","67"
"031220","11:17:07","939935663","test","2","prime_negative","64","8","64","1","484","67","68"
"031220","11:17:07","939935663","test","2","prime_negative","65","5","54","1","399","67","69"
"031220","11:17:07","939935663","test","2","prime_negative","66","1","56","1","583","67","70"
"031220","11:17:07","939935663","test","2","prime_positive","67","4","13","0","734","65","70"
"031220","11:17:07","939935663","test","2","prime_positive","68","1","36","1","473","66","70"
"031220","11:17:07","939935663","test","2","prime_positive","69","12","33","1","725","67","70"
"031220","11:17:07","939935663","test","2","prime_positive","70","9","41","0","554","65","70"
"031220","11:17:07","939935663","test","2","prime_positive","71","7","18","0","630","63","70"
"031220","11:17:07","939935663","test","2","prime_negative","72","9","51","1","569","63","71"
"031220","11:17:07","939935663","test","2","prime_negative","73","11","28","0","492","63","69"
"031320","00:17:36","27324586","practice","1","prime_negative_practice","4","0","0","1","5125","0","0"
"031320","00:17:36","27324586","practice","1","prime_positive_practice","5","0","0","1","2428","0","0"
"031320","00:17:36","27324586","practice","1","prime_positive_practice","6","0","0","1","2042","0","0"
"031320","00:17:36","27324586","practice","1","prime_negative_practice","7","0","0","0","1573","0","0"
"031320","00:17:36","27324586","practice","1","prime_negative_practice","8","0","0","1","5500","0","0"
"031320","00:17:36","27324586","practice","1","prime_positive_practice","9","0","0","0","1369","0","0"
"031320","00:17:36","27324586","practice","1","prime_negative_practice","10","0","0","1","951","0","0"
"031320","00:17:36","27324586","practice","1","prime_positive_practice","11","0","0","1","910","0","0"
"031320","00:17:36","27324586","practice","1","prime_positive_practice","12","0","0","1","1056","0","0"
"031320","00:17:36","27324586","practice","1","prime_negative_practice","13","0","0","1","1634","0","0"
"031320","00:17:36","27324586","test","2","prime_negative","2","12","38","0","1151","0","0"
"031320","00:17:36","27324586","test","2","prime_positive","3","12","31","1","871","100","0"
"031320","00:17:36","27324586","test","2","prime_positive","4","1","21","0","2541","50","0"
"031320","00:17:36","27324586","test","2","prime_positive","5","6","2","0","1107","33","0"
"031320","00:17:36","27324586","test","2","prime_positive","6","7","33","1","993","50","0"
"031320","00:17:36","27324586","test","2","prime_negative","7","1","14","1","1020","50","50"
"031320","00:17:36","27324586","test","2","prime_positive","8","2","12","1","1041","60","50"
"031320","00:17:36","27324586","test","2","prime_negative","9","2","10","1","947","60","66"
"031320","00:17:36","27324586","test","2","prime_positive","10","8","24","1","922","66","66"
"031320","00:17:36","27324586","test","2","prime_negative","11","3","54","1","658","66","75"
"031320","00:17:36","27324586","test","2","prime_positive","12","4","66","1","941","71","75"
"031320","00:17:36","27324586","test","2","prime_negative","13","7","39","0","586","71","60"
"031320","00:17:36","27324586","test","2","prime_negative","14","8","5","0","1250","71","50"
"031320","00:17:36","27324586","test","2","prime_negative","15","10","40","0","1284","71","42"
"031320","00:17:36","27324586","test","2","prime_positive","16","12","43","0","816","62","42"
"031320","00:17:36","27324586","test","2","prime_negative","17","6","47","1","2071","62","50"
"031320","00:17:36","27324586","test","2","prime_negative","18","4","55","1","790","62","55"
"031320","00:17:36","27324586","test","2","prime_positive","19","8","51","1","865","66","55"
"031320","00:17:36","27324586","test","2","prime_positive","20","4","26","1","622","70","55"
"031320","00:17:36","27324586","test","2","prime_positive","21","2","62","0","1376","63","55"
"031320","00:17:36","27324586","test","2","prime_positive","22","7","46","0","1153","58","55"
"031320","00:17:36","27324586","test","2","prime_positive","23","3","36","0","928","53","55"
"031320","00:17:36","27324586","test","2","prime_positive","24","10","9","0","1259","50","55"
"031320","00:17:36","27324586","test","2","prime_positive","25","1","37","1","551","53","55"
"031320","00:17:36","27324586","test","2","prime_negative","26","12","63","1","1219","53","60"
"031320","00:17:36","27324586","test","2","prime_negative","27","1","61","1","3663","53","63"
"031320","00:17:36","27324586","test","2","prime_positive","28","11","17","0","1265","50","63"
"031320","00:17:36","27324586","test","2","prime_negative","29","7","60","0","1296","50","58"
"031320","00:17:36","27324586","test","2","prime_negative","30","5","69","0","1655","50","53"
"031320","00:17:36","27324586","test","2","prime_negative","31","8","25","1","918","50","57"
"031320","00:17:36","27324586","test","2","prime_positive","32","9","13","1","1443","52","57"
"031320","00:17:36","27324586","test","2","prime_negative","33","10","56","1","1186","52","60"
"031320","00:17:36","27324586","test","2","prime_positive","34","5","6","0","2023","50","60"
"031320","00:17:36","27324586","test","2","prime_negative","35","3","7","1","780","50","62"
"031320","00:17:36","27324586","test","2","prime_negative","36","2","44","1","1643","50","64"
"031320","00:17:36","27324586","test","2","prime_negative","37","9","52","1","1103","50","66"
"031320","00:17:36","27324586","test","2","prime_negative","38","11","68","0","863","50","63"
"031320","00:17:36","27324586","test","2","prime_negative","39","4","22","1","569","50","65"
"031320","00:17:36","27324586","test","2","prime_positive","40","6","45","0","1238","47","65"
"031320","00:17:36","27324586","test","2","prime_negative","41","11","19","1","901","47","66"
"031320","00:17:36","27324586","test","2","prime_positive","42","11","11","1","555","50","66"
"031320","00:17:36","27324586","test","2","prime_negative","43","1","65","0","961","50","63"
"031320","00:17:36","27324586","test","2","prime_negative","44","8","72","1","753","50","65"
"031320","00:17:36","27324586","test","2","prime_negative","45","6","34","1","1058","50","66"
"031320","00:17:36","27324586","test","2","prime_negative","46","10","32","1","882","50","68"
"031320","00:17:36","27324586","test","2","prime_positive","47","2","15","0","726","47","68"
"031320","00:17:36","27324586","test","2","prime_negative","48","12","16","0","922","47","65"
"031320","00:17:36","27324586","test","2","prime_positive","49","10","71","0","817","45","65"
"031320","00:17:36","27324586","test","2","prime_positive","50","7","48","0","1470","43","65"
"031320","00:17:36","27324586","test","2","prime_negative","51","3","70","0","762","43","62"
"031320","00:17:36","27324586","test","2","prime_negative","52","2","67","1","983","43","64"
"031320","00:17:36","27324586","test","2","prime_positive","53","12","35","1","736","45","64"
"031320","00:17:36","27324586","test","2","prime_negative","54","7","23","0","941","45","62"
"031320","00:17:36","27324586","test","2","prime_negative","55","5","28","1","1304","45","63"
"031320","00:17:36","27324586","test","2","prime_positive","56","4","8","0","774","44","63"
"031320","00:17:36","27324586","test","2","prime_positive","57","5","53","1","769","46","63"
"031320","00:17:36","27324586","test","2","prime_positive","58","6","57","1","1833","48","63"
"031320","00:17:36","27324586","test","2","prime_positive","59","3","3","0","900","46","63"
"031320","00:17:36","27324586","test","2","prime_negative","60","9","20","1","911","46","64"
"031320","00:17:36","27324586","test","2","prime_positive","61","1","4","0","1164","44","64"
"031320","00:17:36","27324586","test","2","prime_positive","62","8","27","1","745","46","64"
"031320","00:17:36","27324586","test","2","prime_negative","63","8","64","1","1082","46","65"
"031320","00:17:36","27324586","test","2","prime_negative","64","7","69","0","928","46","63"
"031320","00:17:36","27324586","test","2","prime_negative","65","11","49","1","843","46","64"
"031320","00:17:36","27324586","test","2","prime_positive","66","9","1","0","1162","45","64"
"031320","00:17:36","27324586","test","2","prime_positive","67","3","8","0","1018","43","64"
"031320","00:17:36","27324586","test","2","prime_negative","68","9","61","0","1400","43","62"
"031320","00:17:36","27324586","test","2","prime_positive","69","4","3","1","1225","45","62"
"031320","00:17:36","27324586","test","2","prime_positive","70","12","37","1","967","47","62"
"031320","00:17:36","27324586","test","2","prime_negative","71","12","38","0","1607","47","61"
"031320","00:17:36","27324586","test","2","prime_positive","72","6","57","0","2038","45","61"
"031320","00:17:36","27324586","test","2","prime_positive","73","8","58","0","1494","44","61"
"031220","11:22:09","566602761","practice","1","prime_positive_practice","4","0","0","0","2857","0","0"
"031220","11:22:09","566602761","practice","1","prime_negative_practice","5","0","0","1","3839","0","0"
"031220","11:22:09","566602761","practice","1","prime_positive_practice","6","0","0","1","1449","0","0"
"031220","11:22:09","566602761","practice","1","prime_negative_practice","7","0","0","0","1037","0","0"
"031220","11:22:09","566602761","practice","1","prime_negative_practice","8","0","0","0","1142","0","0"
"031220","11:22:09","566602761","practice","1","prime_negative_practice","9","0","0","0","509","0","0"
"031220","11:22:09","566602761","practice","1","prime_positive_practice","10","0","0","1","1285","0","0"
"031220","11:22:09","566602761","practice","1","prime_positive_practice","11","0","0","1","2828","0","0"
"031220","11:22:09","566602761","practice","1","prime_positive_practice","12","0","0","0","613","0","0"
"031220","11:22:09","566602761","practice","1","prime_negative_practice","13","0","0","0","628","0","0"
"031220","11:22:09","566602761","test","2","prime_positive","2","4","17","1","2373","100","0"
"031220","11:22:09","566602761","test","2","prime_positive","3","10","32","0","1186","50","0"
"031220","11:22:09","566602761","test","2","prime_negative","4","3","7","0","643","50","0"
"031220","11:22:09","566602761","test","2","prime_positive","5","11","14","1","4344","66","0"
"031220","11:22:09","566602761","test","2","prime_positive","6","3","19","0","927","50","0"
"031220","11:22:09","566602761","test","2","prime_positive","7","12","64","0","1324","40","0"
"031220","11:22:09","566602761","test","2","prime_negative","8","12","16","0","1259","40","0"
"031220","11:22:09","566602761","test","2","prime_negative","9","6","39","1","791","40","33"
"031220","11:22:09","566602761","test","2","prime_positive","10","8","5","1","981","50","33"
"031220","11:22:09","566602761","test","2","prime_negative","11","2","2","1","1331","50","50"
"031220","11:22:09","566602761","test","2","prime_negative","12","9","67","0","748","50","40"
"031220","11:22:09","566602761","test","2","prime_negative","13","11","20","0","882","50","33"
"031220","11:22:09","566602761","test","2","prime_positive","14","2","40","0","2580","42","33"
"031220","11:22:09","566602761","test","2","prime_positive","15","10","48","1","442","50","33"
"031220","11:22:09","566602761","test","2","prime_positive","16","5","65","0","795","44","33"
"031220","11:22:09","566602761","test","2","prime_negative","17","7","35","0","826","44","28"
"031220","11:22:09","566602761","test","2","prime_positive","18","9","58","0","1223","40","28"
"031220","11:22:09","566602761","test","2","prime_positive","19","11","1","0","1437","36","28"
"031220","11:22:09","566602761","test","2","prime_negative","20","10","66","1","932","36","37"
"031220","11:22:09","566602761","test","2","prime_negative","21","12","22","1","716","36","44"
"031220","11:22:09","566602761","test","2","prime_positive","22","2","46","1","642","41","44"
"031220","11:22:09","566602761","test","2","prime_positive","23","3","69","0","501","38","44"
"031220","11:22:09","566602761","test","2","prime_positive","24","4","43","0","879","35","44"
"031220","11:22:09","566602761","test","2","prime_positive","25","6","9","1","537","40","44"
"031220","11:22:09","566602761","test","2","prime_positive","26","8","11","0","1005","37","44"
"031220","11:22:09","566602761","test","2","prime_negative","27","3","21","1","2219","37","50"
"031220","11:22:09","566602761","test","2","prime_negative","28","9","4","0","783","37","45"
"031220","11:22:09","566602761","test","2","prime_negative","29","5","45","0","1156","37","41"
"031220","11:22:09","566602761","test","2","prime_negative","30","2","24","1","712","37","46"
"031220","11:22:09","566602761","test","2","prime_negative","31","4","38","1","1135","37","50"
"031220","11:22:09","566602761","test","2","prime_negative","32","8","68","0","800","37","46"
"031220","11:22:09","566602761","test","2","prime_positive","33","12","49","0","1180","35","46"
"031220","11:22:09","566602761","test","2","prime_positive","34","7","18","0","712","33","46"
"031220","11:22:09","566602761","test","2","prime_positive","35","1","26","1","1265","36","46"
"031220","11:22:09","566602761","test","2","prime_negative","36","7","61","0","687","36","43"
"031220","11:22:09","566602761","test","2","prime_negative","37","11","71","0","744","36","41"
"031220","11:22:09","566602761","test","2","prime_negative","38","1","6","1","725","36","44"
"031220","11:22:09","566602761","test","2","prime_positive","39","9","44","0","545","35","44"
"031220","11:22:09","566602761","test","2","prime_positive","40","4","28","0","1262","33","44"
"031220","11:22:09","566602761","test","2","prime_negative","41","6","33","0","1056","33","42"
"031220","11:22:09","566602761","test","2","prime_negative","42","9","42","0","696","33","40"
"031220","11:22:09","566602761","test","2","prime_negative","43","11","62","0","695","33","38"
"031220","11:22:09","566602761","test","2","prime_negative","44","5","10","0","860","33","36"
"031220","11:22:09","566602761","test","2","prime_negative","45","1","29","1","454","33","39"
"031220","11:22:09","566602761","test","2","prime_positive","46","12","51","1","1837","36","39"
"031220","11:22:09","566602761","test","2","prime_negative","47","3","57","1","1232","36","41"
"031220","11:22:09","566602761","test","2","prime_positive","48","8","34","0","517","34","41"
"031220","11:22:09","566602761","test","2","prime_negative","49","2","54","1","1043","34","44"
"031220","11:22:09","566602761","test","2","prime_negative","50","6","13","0","1200","34","42"
"031220","11:22:09","566602761","test","2","prime_positive","51","6","30","1","1511","37","42"
"031220","11:22:09","566602761","test","2","prime_positive","52","3","55","0","1315","36","42"
"031220","11:22:09","566602761","test","2","prime_negative","53","8","47","0","2067","36","40"
"031220","11:22:09","566602761","test","2","prime_negative","54","12","60","1","988","36","42"
"031220","11:22:09","566602761","test","2","prime_positive","55","2","72","1","580","38","42"
"031220","11:22:09","566602761","test","2","prime_negative","56","10","27","1","597","38","44"
"031220","11:22:09","566602761","test","2","prime_positive","57","5","50","0","661","37","44"
"031220","11:22:09","566602761","test","2","prime_positive","58","10","59","0","1015","35","44"
"031220","11:22:09","566602761","test","2","prime_positive","59","1","53","0","660","34","44"
"031220","11:22:09","566602761","test","2","prime_negative","60","4","52","0","1416","34","43"
"031220","11:22:09","566602761","test","2","prime_positive","61","11","8","0","652","33","43"
"031220","11:22:09","566602761","test","2","prime_negative","62","7","15","1","678","33","45"
"031220","11:22:09","566602761","test","2","prime_negative","63","6","36","1","539","33","46"
"031220","11:22:09","566602761","test","2","prime_positive","64","7","24","1","776","35","46"
"031220","11:22:09","566602761","test","2","prime_negative","65","2","67","0","613","35","45"
"031220","11:22:09","566602761","test","2","prime_positive","66","1","50","0","663","34","45"
"031220","11:22:09","566602761","test","2","prime_positive","67","11","66","1","692","36","45"
"031220","11:22:09","566602761","test","2","prime_negative","68","1","26","0","574","36","44"
"031220","11:22:09","566602761","test","2","prime_negative","69","7","9","1","570","36","45"
"031220","11:22:09","566602761","test","2","prime_positive","70","2","31","0","612","35","45"
"031220","11:22:09","566602761","test","2","prime_positive","71","4","42","1","1985","37","45"
"031220","11:22:09","566602761","test","2","prime_positive","72","12","65","1","1777","38","45"
"031220","11:22:09","566602761","test","2","prime_negative","73","5","8","0","487","38","44"
"031220","11:23:17","798482002","practice","1","prime_negative_practice","4","0","0","0","5636","0","0"
"031220","11:23:17","798482002","practice","1","prime_positive_practice","5","0","0","1","1700","0","0"
"031220","11:23:17","798482002","practice","1","prime_positive_practice","6","0","0","0","1069","0","0"
"031220","11:23:17","798482002","practice","1","prime_positive_practice","7","0","0","1","1113","0","0"
"031220","11:23:17","798482002","practice","1","prime_negative_practice","8","0","0","1","778","0","0"
"031220","11:23:17","798482002","practice","1","prime_negative_practice","9","0","0","1","866","0","0"
"031220","11:23:17","798482002","practice","1","prime_negative_practice","10","0","0","1","880","0","0"
"031220","11:23:17","798482002","practice","1","prime_positive_practice","11","0","0","0","689","0","0"
"031220","11:23:17","798482002","practice","1","prime_negative_practice","12","0","0","0","1132","0","0"
"031220","11:23:17","798482002","practice","1","prime_positive_practice","13","0","0","1","838","0","0"
"031220","11:23:17","798482002","test","2","prime_positive","2","3","60","0","1527","0","0"
"031220","11:23:17","798482002","test","2","prime_positive","3","9","52","1","1033","50","0"
"031220","11:23:17","798482002","test","2","prime_positive","4","7","64","1","850","66","0"
"031220","11:23:17","798482002","test","2","prime_positive","5","6","39","0","812","50","0"
"031220","11:23:17","798482002","test","2","prime_positive","6","2","11","1","894","60","0"
"031220","11:23:17","798482002","test","2","prime_negative","7","1","31","0","899","60","0"
"031220","11:23:17","798482002","test","2","prime_negative","8","8","40","0","1072","60","0"
"031220","11:23:17","798482002","test","2","prime_negative","9","2","70","0","1173","60","0"
"031220","11:23:17","798482002","test","2","prime_negative","10","4","56","1","748","60","25"
"031220","11:23:17","798482002","test","2","prime_positive","11","12","27","0","755","50","25"
"031220","11:23:17","798482002","test","2","prime_positive","12","4","55","0","1245","42","25"
"031220","11:23:17","798482002","test","2","prime_positive","13","7","49","1","1045","50","25"
"031220","11:23:17","798482002","test","2","prime_negative","14","6","72","1","963","50","40"
"031220","11:23:17","798482002","test","2","prime_positive","15","11","9","0","981","44","40"
"031220","11:23:17","798482002","test","2","prime_negative","16","11","35","1","3208","44","50"
"031220","11:23:17","798482002","test","2","prime_positive","17","8","1","1","1139","50","50"
"031220","11:23:17","798482002","test","2","prime_positive","18","3","43","0","704","45","50"
"031220","11:23:17","798482002","test","2","prime_positive","19","9","10","1","677","50","50"
"031220","11:23:17","798482002","test","2","prime_positive","20","10","53","0","1085","46","50"
"031220","11:23:17","798482002","test","2","prime_negative","21","10","47","1","789","46","57"
"031220","11:23:17","798482002","test","2","prime_negative","22","10","3","1","719","46","62"
"031220","11:23:17","798482002","test","2","prime_positive","23","4","29","0","775","42","62"
"031220","11:23:17","798482002","test","2","prime_negative","24","3","16","1","978","42","66"
"031220","11:23:17","798482002","test","2","prime_positive","25","1","41","1","620","46","66"
"031220","11:23:17","798482002","test","2","prime_positive","26","5","8","1","533","50","66"
"031220","11:23:17","798482002","test","2","prime_negative","27","4","20","1","709","50","70"
"031220","11:23:17","798482002","test","2","prime_positive","28","12","5","0","581","47","70"
"031220","11:23:17","798482002","test","2","prime_negative","29","8","6","0","589","47","63"
"031220","11:23:17","798482002","test","2","prime_positive","30","6","44","1","843","50","63"
"031220","11:23:17","798482002","test","2","prime_negative","31","6","12","1","659","50","66"
"031220","11:23:17","798482002","test","2","prime_negative","32","7","17","0","648","50","61"
"031220","11:23:17","798482002","test","2","prime_positive","33","2","26","1","667","52","61"
"031220","11:23:17","798482002","test","2","prime_positive","34","2","61","1","2065","55","61"
"031220","11:23:17","798482002","test","2","prime_positive","35","11","51","1","933","57","61"
"031220","11:23:17","798482002","test","2","prime_negative","36","12","58","1","648","57","64"
"031220","11:23:17","798482002","test","2","prime_positive","37","1","34","0","629","54","64"
"031220","11:23:17","798482002","test","2","prime_positive","38","5","30","0","600","52","64"
"031220","11:23:17","798482002","test","2","prime_positive","39","6","50","1","834","54","64"
"031220","11:23:17","798482002","test","2","prime_negative","40","5","24","0","721","54","60"
"031220","11:23:17","798482002","test","2","prime_negative","41","11","13","0","890","54","56"
"031220","11:23:17","798482002","test","2","prime_negative","42","2","32","1","996","54","58"
"031220","11:23:17","798482002","test","2","prime_negative","43","9","15","1","670","54","61"
"031220","11:23:17","798482002","test","2","prime_negative","44","1","71","1","669","54","63"
"031220","11:23:17","798482002","test","2","prime_positive","45","12","2","0","491","52","63"
"031220","11:23:17","798482002","test","2","prime_negative","46","9","23","0","624","52","60"
"031220","11:23:17","798482002","test","2","prime_positive","47","10","37","1","588","53","60"
"031220","11:23:17","798482002","test","2","prime_negative","48","5","42","1","716","53","61"
"031220","11:23:17","798482002","test","2","prime_negative","49","11","54","1","775","53","63"
"031220","11:23:17","798482002","test","2","prime_negative","50","3","45","0","773","53","60"
"031220","11:23:17","798482002","test","2","prime_negative","51","7","21","1","753","53","62"
"031220","11:23:17","798482002","test","2","prime_positive","52","8","68","0","1773","51","62"
"031220","11:23:17","798482002","test","2","prime_negative","53","12","36","0","1238","51","60"
"031220","11:23:17","798482002","test","2","prime_positive","54","7","59","1","657","53","60"
"031220","11:23:17","798482002","test","2","prime_positive","55","9","38","1","1127","55","60"
"031220","11:23:17","798482002","test","2","prime_positive","56","3","63","1","854","56","60"
"031220","11:23:17","798482002","test","2","prime_negative","57","2","65","1","718","56","61"
"031220","11:23:17","798482002","test","2","prime_positive","58","4","19","0","1154","54","61"
"031220","11:23:17","798482002","test","2","prime_positive","59","12","69","1","666","56","61"
"031220","11:23:17","798482002","test","2","prime_negative","60","6","62","1","720","56","62"
"031220","11:23:17","798482002","test","2","prime_negative","61","1","7","0","755","56","60"
"031220","11:23:17","798482002","test","2","prime_positive","62","4","28","1","642","57","60"
"031220","11:23:17","798482002","test","2","prime_negative","63","4","57","1","511","57","62"
"031220","11:23:17","798482002","test","2","prime_negative","64","10","3","1","785","57","63"
"031220","11:23:17","798482002","test","2","prime_negative","65","8","43","0","709","57","61"
"031220","11:23:17","798482002","test","2","prime_positive","66","1","71","1","983","58","61"
"031220","11:23:17","798482002","test","2","prime_positive","67","2","14","1","493","60","61"
"031220","11:23:17","798482002","test","2","prime_negative","68","11","21","1","538","60","62"
"031220","11:23:17","798482002","test","2","prime_positive","69","11","54","0","664","58","62"
"031220","11:23:17","798482002","test","2","prime_negative","70","1","17","0","527","58","60"
"031220","11:23:17","798482002","test","2","prime_negative","71","12","40","1","721","58","61"
"031220","11:23:17","798482002","test","2","prime_negative","72","8","18","1","559","58","62"
"031220","11:23:17","798482002","test","2","prime_negative","73","7","58","1","696","58","63"
"031220","21:19:07","307111597","practice","1","prime_positive_practice","4","0","0","1","7228","0","0"
"031220","21:19:07","307111597","practice","1","prime_negative_practice","5","0","0","1","3891","0","0"
"031220","21:19:07","307111597","practice","1","prime_positive_practice","6","0","0","1","4231","0","0"
"031220","21:19:07","307111597","practice","1","prime_positive_practice","7","0","0","1","2572","0","0"
"031220","21:19:07","307111597","practice","1","prime_negative_practice","8","0","0","0","8401","0","0"
"031220","21:19:07","307111597","practice","1","prime_negative_practice","9","0","0","1","4599","0","0"
"031220","21:19:07","307111597","practice","1","prime_positive_practice","10","0","0","1","2224","0","0"
"031220","21:19:07","307111597","practice","1","prime_positive_practice","11","0","0","1","1015","0","0"
"031220","21:19:07","307111597","practice","1","prime_negative_practice","12","0","0","0","656","0","0"
"031220","21:19:07","307111597","practice","1","prime_negative_practice","13","0","0","0","1289","0","0"
"031220","21:19:07","307111597","test","2","prime_positive","2","3","63","1","737","100","0"
"031220","21:19:07","307111597","test","2","prime_negative","3","12","65","1","1994","100","100"
"031220","21:19:07","307111597","test","2","prime_positive","4","6","25","1","738","100","100"
"031220","21:19:07","307111597","test","2","prime_negative","5","9","49","0","925","100","50"
"031220","21:19:07","307111597","test","2","prime_positive","6","9","54","1","1563","100","50"
"031220","21:19:07","307111597","test","2","prime_positive","7","7","12","0","1633","75","50"
"031220","21:19:07","307111597","test","2","prime_positive","8","8","61","0","2234","60","50"
"031220","21:19:07","307111597","test","2","prime_positive","9","2","21","1","1788","66","50"
"031220","21:19:07","307111597","test","2","prime_negative","10","11","42","1","587","66","66"
"031220","21:19:07","307111597","test","2","prime_positive","11","11","40","1","797","71","66"
"031220","21:19:07","307111597","test","2","prime_negative","12","2","50","0","365","71","50"
"031220","21:19:07","307111597","test","2","prime_negative","13","10","24","0","1959","71","40"
"031220","21:19:07","307111597","test","2","prime_negative","14","1","70","0","1803","71","33"
"031220","21:19:07","307111597","test","2","prime_negative","15","5","14","0","4447","71","28"
"031220","21:19:07","307111597","test","2","prime_positive","16","11","18","1","1799","75","28"
"031220","21:19:07","307111597","test","2","prime_positive","17","7","27","1","3153","77","28"
"031220","21:19:07","307111597","test","2","prime_positive","18","4","72","1","1026","80","28"
"031220","21:19:07","307111597","test","2","prime_positive","19","12","67","1","1796","81","28"
"031220","21:19:07","307111597","test","2","prime_negative","20","4","22","1","1850","81","37"
"031220","21:19:07","307111597","test","2","prime_negative","21","8","31","0","588","81","33"
"031220","21:19:07","307111597","test","2","prime_positive","22","6","3","0","3962","75","33"
"031220","21:19:07","307111597","test","2","prime_negative","23","11","34","0","2286","75","30"
"031220","21:19:07","307111597","test","2","prime_positive","24","10","5","1","619","76","30"
"031220","21:19:07","307111597","test","2","prime_positive","25","5","8","1","617","78","30"
"031220","21:19:07","307111597","test","2","prime_negative","26","6","13","0","784","78","27"
"031220","21:19:07","307111597","test","2","prime_negative","27","5","11","0","2009","78","25"
"031220","21:19:07","307111597","test","2","prime_negative","28","1","58","0","1230","78","23"
"031220","21:19:07","307111597","test","2","prime_negative","29","7","52","1","615","78","28"
"031220","21:19:07","307111597","test","2","prime_negative","30","12","33","1","2230","78","33"
"031220","21:19:07","307111597","test","2","prime_negative","31","3","20","0","495","78","31"
"031220","21:19:07","307111597","test","2","prime_positive","32","9","48","1","1309","80","31"
"031220","21:19:07","307111597","test","2","prime_positive","33","3","39","1","567","81","31"
"031220","21:19:07","307111597","test","2","prime_negative","34","9","51","0","1485","81","29"
"031220","21:19:07","307111597","test","2","prime_positive","35","8","6","1","580","82","29"
"031220","21:19:07","307111597","test","2","prime_negative","36","2","55","1","1907","82","33"
"031220","21:19:07","307111597","test","2","prime_negative","37","10","47","0","1253","82","31"
"031220","21:19:07","307111597","test","2","prime_positive","38","1","53","1","518","83","31"
"031220","21:19:07","307111597","test","2","prime_positive","39","2","45","1","550","84","31"
"031220","21:19:07","307111597","test","2","prime_positive","40","5","19","1","533","85","31"
"031220","21:19:07","307111597","test","2","prime_positive","41","12","15","0","1722","80","31"
"031220","21:19:07","307111597","test","2","prime_negative","42","12","4","0","417","80","30"
"031220","21:19:07","307111597","test","2","prime_positive","43","8","37","1","465","81","30"
"031220","21:19:07","307111597","test","2","prime_positive","44","4","30","1","393","82","30"
"031220","21:19:07","307111597","test","2","prime_negative","45","9","38","0","508","82","28"
"031220","21:19:07","307111597","test","2","prime_positive","46","10","66","1","468","83","28"
"031220","21:19:07","307111597","test","2","prime_positive","47","2","43","1","659","84","28"
"031220","21:19:07","307111597","test","2","prime_positive","48","6","62","1","407","84","28"
"031220","21:19:07","307111597","test","2","prime_negative","49","5","16","1","790","84","31"
"031220","21:19:07","307111597","test","2","prime_positive","50","1","71","1","421","85","31"
"031220","21:19:07","307111597","test","2","prime_negative","51","7","36","1","421","85","34"
"031220","21:19:07","307111597","test","2","prime_negative","52","3","29","0","322","85","33"
"031220","21:19:07","307111597","test","2","prime_negative","53","8","10","0","452","85","32"
"031220","21:19:07","307111597","test","2","prime_negative","54","4","68","0","654","85","30"
"031220","21:19:07","307111597","test","2","prime_negative","55","6","69","0","518","85","29"
"031220","21:19:07","307111597","test","2","prime_negative","56","1","1","0","419","85","28"
"031220","21:19:07","307111597","test","2","prime_positive","57","9","60","1","784","85","28"
"031220","21:19:07","307111597","test","2","prime_positive","58","11","26","0","479","82","28"
"031220","21:19:07","307111597","test","2","prime_negative","59","10","44","0","1036","82","27"
"031220","21:19:07","307111597","test","2","prime_positive","60","3","59","1","580","83","27"
"031220","21:19:07","307111597","test","2","prime_positive","61","7","46","1","530","83","27"
"031220","21:19:07","307111597","test","2","prime_positive","62","6","7","1","539","84","27"
"031220","21:19:07","307111597","test","2","prime_negative","63","2","41","0","2939","84","26"
"031220","21:19:07","307111597","test","2","prime_positive","64","10","56","1","524","84","26"
"031220","21:19:07","307111597","test","2","prime_negative","65","11","13","1","842","84","29"
"031220","21:19:07","307111597","test","2","prime_negative","66","1","30","0","488","84","28"
"031220","21:19:07","307111597","test","2","prime_negative","67","11","72","0","430","84","27"
"031220","21:19:07","307111597","test","2","prime_negative","68","10","46","0","1125","84","26"
"031220","21:19:07","307111597","test","2","prime_positive","69","8","31","1","471","85","26"
"031220","21:19:07","307111597","test","2","prime_positive","70","12","5","0","2201","82","26"
"031220","21:19:07","307111597","test","2","prime_positive","71","3","60","1","515","83","26"
"031220","21:19:07","307111597","test","2","prime_negative","72","8","22","0","480","83","25"
"031220","21:19:07","307111597","test","2","prime_negative","73","3","45","0","573","83","25"
"031220","11:27:36","190700451","practice","1","prime_negative_practice","4","0","0","0","4412","0","0"
"031220","11:27:36","190700451","practice","1","prime_negative_practice","5","0","0","0","3656","0","0"
"031220","11:27:36","190700451","practice","1","prime_negative_practice","6","0","0","1","996","0","0"
"031220","11:27:36","190700451","practice","1","prime_positive_practice","7","0","0","0","1796","0","0"
"031220","11:27:36","190700451","practice","1","prime_positive_practice","8","0","0","1","1167","0","0"
"031220","11:27:36","190700451","practice","1","prime_negative_practice","9","0","0","1","1123","0","0"
"031220","11:27:36","190700451","practice","1","prime_positive_practice","10","0","0","1","1672","0","0"
"031220","11:27:36","190700451","practice","1","prime_negative_practice","11","0","0","1","1100","0","0"
"031220","11:27:36","190700451","practice","1","prime_positive_practice","12","0","0","1","698","0","0"
"031220","11:27:36","190700451","practice","1","prime_positive_practice","13","0","0","1","999","0","0"
"031220","11:27:36","190700451","test","2","prime_negative","2","11","55","1","785","0","100"
"031220","11:27:36","190700451","test","2","prime_negative","3","3","71","1","828","0","100"
"031220","11:27:36","190700451","test","2","prime_positive","4","1","37","1","849","100","100"
"031220","11:27:36","190700451","test","2","prime_positive","5","9","4","0","967","50","100"
"031220","11:27:36","190700451","test","2","prime_negative","6","8","41","1","985","50","100"
"031220","11:27:36","190700451","test","2","prime_negative","7","6","28","0","925","50","75"
"031220","11:27:36","190700451","test","2","prime_negative","8","4","27","1","837","50","80"
"031220","11:27:36","190700451","test","2","prime_positive","9","5","54","1","1133","66","80"
"031220","11:27:36","190700451","test","2","prime_negative","10","9","59","0","1151","66","66"
"031220","11:27:36","190700451","test","2","prime_negative","11","10","7","1","760","66","71"
"031220","11:27:36","190700451","test","2","prime_negative","12","2","43","0","697","66","62"
"031220","11:27:36","190700451","test","2","prime_positive","13","11","70","1","821","75","62"
"031220","11:27:36","190700451","test","2","prime_negative","14","1","40","1","725","75","66"
"031220","11:27:36","190700451","test","2","prime_negative","15","4","3","0","1240","75","60"
"031220","11:27:36","190700451","test","2","prime_positive","16","4","6","1","723","80","60"
"031220","11:27:36","190700451","test","2","prime_negative","17","7","26","0","1439","80","54"
"031220","11:27:36","190700451","test","2","prime_positive","18","12","63","1","933","83","54"
"031220","11:27:36","190700451","test","2","prime_negative","19","8","46","1","584","83","58"
"031220","11:27:36","190700451","test","2","prime_positive","20","10","53","1","910","85","58"
"031220","11:27:36","190700451","test","2","prime_positive","21","1","47","1","754","87","58"
"031220","11:27:36","190700451","test","2","prime_positive","22","11","11","1","724","88","58"
"031220","11:27:36","190700451","test","2","prime_negative","23","3","61","0","931","88","53"
"031220","11:27:36","190700451","test","2","prime_positive","24","7","51","0","761","80","53"
"031220","11:27:36","190700451","test","2","prime_positive","25","5","42","1","768","81","53"
"031220","11:27:36","190700451","test","2","prime_negative","26","5","5","0","580","81","50"
"031220","11:27:36","190700451","test","2","prime_negative","27","9","17","1","964","81","53"
"031220","11:27:36","190700451","test","2","prime_positive","28","8","72","0","630","75","53"
"031220","11:27:36","190700451","test","2","prime_positive","29","12","52","1","1155","76","53"
"031220","11:27:36","190700451","test","2","prime_positive","30","2","49","1","636","78","53"
"031220","11:27:36","190700451","test","2","prime_negative","31","6","12","0","663","78","50"
"031220","11:27:36","190700451","test","2","prime_negative","32","11","15","1","756","78","52"
"031220","11:27:36","190700451","test","2","prime_negative","33","10","18","0","1154","78","50"
"031220","11:27:36","190700451","test","2","prime_positive","34","6","50","0","772","73","50"
"031220","11:27:36","190700451","test","2","prime_positive","35","9","16","1","1025","75","50"
"031220","11:27:36","190700451","test","2","prime_positive","36","4","58","0","682","70","50"
"031220","11:27:36","190700451","test","2","prime_positive","37","3","1","0","823","66","50"
"031220","11:27:36","190700451","test","2","prime_positive","38","10","35","1","520","68","50"
"031220","11:27:36","190700451","test","2","prime_negative","39","12","57","1","659","68","52"
"031220","11:27:36","190700451","test","2","prime_negative","40","8","33","1","784","68","55"
"031220","11:27:36","190700451","test","2","prime_positive","41","9","34","0","626","65","55"
"031220","11:27:36","190700451","test","2","prime_negative","42","1","32","1","976","65","57"
"031220","11:27:36","190700451","test","2","prime_negative","43","6","20","1","733","65","59"
"031220","11:27:36","190700451","test","2","prime_negative","44","9","10","0","713","65","56"
"031220","11:27:36","190700451","test","2","prime_positive","45","7","44","0","498","61","56"
"031220","11:27:36","190700451","test","2","prime_negative","46","12","45","0","834","61","54"
"031220","11:27:36","190700451","test","2","prime_negative","47","4","14","0","535","61","52"
"031220","11:27:36","190700451","test","2","prime_positive","48","8","39","1","578","63","52"
"031220","11:27:36","190700451","test","2","prime_positive","49","10","24","1","448","65","52"
"031220","11:27:36","190700451","test","2","prime_negative","50","2","19","0","632","65","50"
"031220","11:27:36","190700451","test","2","prime_negative","51","5","67","1","573","65","51"
"031220","11:27:36","190700451","test","2","prime_negative","52","3","31","1","527","65","53"
"031220","11:27:36","190700451","test","2","prime_positive","53","6","30","0","613","62","53"
"031220","11:27:36","190700451","test","2","prime_positive","54","12","64","1","503","64","53"
"031220","11:27:36","190700451","test","2","prime_positive","55","5","8","1","721","65","53"
"031220","11:27:36","190700451","test","2","prime_positive","56","1","25","1","680","66","53"
"031220","11:27:36","190700451","test","2","prime_positive","57","2","29","1","499","67","53"
"031220","11:27:36","190700451","test","2","prime_negative","58","7","69","0","444","67","51"
"031220","11:27:36","190700451","test","2","prime_positive","59","11","2","1","640","68","51"
"031220","11:27:36","190700451","test","2","prime_positive","60","4","60","1","540","70","51"
"031220","11:27:36","190700451","test","2","prime_negative","61","10","65","1","463","70","53"
"031220","11:27:36","190700451","test","2","prime_positive","62","3","13","1","978","70","53"
"031220","11:27:36","190700451","test","2","prime_negative","63","11","66","1","603","70","54"
"031220","11:27:36","190700451","test","2","prime_positive","64","9","28","1","623","71","54"
"031220","11:27:36","190700451","test","2","prime_positive","65","1","50","0","478","69","54"
"031220","11:27:36","190700451","test","2","prime_positive","66","2","71","1","763","70","54"
"031220","11:27:36","190700451","test","2","prime_positive","67","10","63","0","660","68","54"
"031220","11:27:36","190700451","test","2","prime_negative","68","3","39","1","472","68","56"
"031220","11:27:36","190700451","test","2","prime_negative","69","1","31","0","761","68","54"
"031220","11:27:36","190700451","test","2","prime_positive","70","6","17","0","863","66","54"
"031220","11:27:36","190700451","test","2","prime_negative","71","10","41","0","742","66","52"
"031220","11:27:36","190700451","test","2","prime_negative","72","11","64","0","619","66","51"
"031220","11:27:36","190700451","test","2","prime_negative","73","12","4","0","583","66","50"
"031220","11:28:45","371852658","practice","1","prime_positive_practice","4","0","0","1","2655","0","0"
"031220","11:28:45","371852658","practice","1","prime_negative_practice","5","0","0","1","6433","0","0"
"031220","11:28:45","371852658","practice","1","prime_negative_practice","6","0","0","0","4020","0","0"
"031220","11:28:45","371852658","practice","1","prime_positive_practice","7","0","0","1","3569","0","0"
"031220","11:28:45","371852658","practice","1","prime_positive_practice","8","0","0","1","3873","0","0"
"031220","11:28:45","371852658","practice","1","prime_positive_practice","9","0","0","1","3357","0","0"
"031220","11:28:45","371852658","practice","1","prime_negative_practice","10","0","0","0","2792","0","0"
"031220","11:28:45","371852658","practice","1","prime_negative_practice","11","0","0","0","5786","0","0"
"031220","11:28:45","371852658","practice","1","prime_positive_practice","12","0","0","0","2456","0","0"
"031220","11:28:45","371852658","practice","1","prime_negative_practice","13","0","0","0","2290","0","0"
"031220","11:28:45","371852658","test","2","prime_positive","2","4","24","1","1870","100","0"
"031220","11:28:45","371852658","test","2","prime_positive","3","12","7","0","1998","50","0"
"031220","11:28:45","371852658","test","2","prime_negative","4","10","9","0","1116","50","0"
"031220","11:28:45","371852658","test","2","prime_negative","5","2","48","0","2262","50","0"
"031220","11:28:45","371852658","test","2","prime_positive","6","11","16","1","1231","66","0"
"031220","11:28:45","371852658","test","2","prime_positive","7","10","1","1","1283","75","0"
"031220","11:28:45","371852658","test","2","prime_negative","8","8","65","1","2244","75","33"
"031220","11:28:45","371852658","test","2","prime_negative","9","1","14","0","853","75","25"
"031220","11:28:45","371852658","test","2","prime_negative","10","6","64","0","1624","75","20"
"031220","11:28:45","371852658","test","2","prime_negative","11","11","45","0","1790","75","16"
"031220","11:28:45","371852658","test","2","prime_positive","12","6","50","0","1396","60","16"
"031220","11:28:45","371852658","test","2","prime_positive","13","2","49","1","1242","66","16"
"031220","11:28:45","371852658","test","2","prime_negative","14","12","63","1","1789","66","28"
"031220","11:28:45","371852658","test","2","prime_positive","15","9","26","1","1853","71","28"
"031220","11:28:45","371852658","test","2","prime_negative","16","4","22","0","1233","71","25"
"031220","11:28:45","371852658","test","2","prime_positive","17","10","70","1","1272","75","25"
"031220","11:28:45","371852658","test","2","prime_positive","18","4","18","0","931","66","25"
"031220","11:28:45","371852658","test","2","prime_negative","19","7","42","0","1115","66","22"
"031220","11:28:45","371852658","test","2","prime_negative","20","10","72","0","917","66","20"
"031220","11:28:45","371852658","test","2","prime_positive","21","2","25","0","1558","60","20"
"031220","11:28:45","371852658","test","2","prime_negative","22","5","19","0","1000","60","18"
"031220","11:28:45","371852658","test","2","prime_negative","23","3","51","0","1253","60","16"
"031220","11:28:45","371852658","test","2","prime_positive","24","11","53","0","1488","54","16"
"031220","11:28:45","371852658","test","2","prime_positive","25","7","52","0","1006","50","16"
"031220","11:28:45","371852658","test","2","prime_negative","26","11","71","0","980","50","15"
"031220","11:28:45","371852658","test","2","prime_positive","27","6","56","1","990","53","15"
"031220","11:28:45","371852658","test","2","prime_negative","28","12","47","1","1733","53","21"
"031220","11:28:45","371852658","test","2","prime_negative","29","8","11","0","502","53","20"
"031220","11:28:45","371852658","test","2","prime_negative","30","6","4","0","953","53","18"
