"date","time","group","subject","build","blocknum","trialnum","blockcode","trialcode","pretrialpause","posttrialpause","windowcenter","trialduration","trialtimeout","blocktimeout","response","correct","latency","inwindow"
"071218","15:28:01","94479736","148697371","4.0.10.0","1","1","end_of_study_questions_ufirst","awareness","0","0","0","0","0","0","most","1","28446","0"
"071218","15:28:01","94479736","148697371","4.0.10.0","1","2","end_of_study_questions_ufirst","influence_general","0","0","0","0","0","0","most","1","5740","0"
"071218","15:28:01","94479736","148697371","4.0.10.0","1","3","end_of_study_questions_ufirst","unintentionality","0","0","0","0","0","0","more than half","1","7636","0"
"071218","15:28:01","94479736","148697371","4.0.10.0","1","4","end_of_study_questions_ufirst","intentionality","0","0","0","0","0","0","most","1","14191","0"
"071218","15:28:01","94479736","148697371","4.0.10.0","1","5","end_of_study_questions_ufirst","self_exclusion_1","0","0","0","0","0","0","Yes, use my data","1","8059","0"
"071218","15:28:01","94479736","148697371","4.0.10.0","1","5","end_of_study_questions_ufirst","self_exclusion_1other","0","0","0","0","0","0","","1","8059","0"
"071218","15:31:11","697148441","493020342","4.0.10.0","1","1","end_of_study_questions_ifirst","awareness","0","0","0","0","0","0","all","1","16311","0"
"071218","15:31:11","697148441","493020342","4.0.10.0","1","2","end_of_study_questions_ifirst","influence_general","0","0","0","0","0","0","less than half","1","5185","0"
"071218","15:31:11","697148441","493020342","4.0.10.0","1","3","end_of_study_questions_ifirst","intentionality","0","0","0","0","0","0","a few","1","4667","0"
"071218","15:31:11","697148441","493020342","4.0.10.0","1","4","end_of_study_questions_ifirst","unintentionality","0","0","0","0","0","0","more than half","1","4519","0"
"071218","15:31:11","697148441","493020342","4.0.10.0","1","5","end_of_study_questions_ifirst","self_exclusion_1","0","0","0","0","0","0","Yes, use my data","1","10741","0"
"071218","15:31:11","697148441","493020342","4.0.10.0","1","5","end_of_study_questions_ifirst","self_exclusion_1other","0","0","0","0","0","0","","1","10741","0"
"071218","15:30:21","45790130","787416013","4.0.10.0","1","1","end_of_study_questions_ufirst","awareness","0","0","0","0","0","0","about half","1","62134","0"
"071218","15:30:21","45790130","787416013","4.0.10.0","1","2","end_of_study_questions_ufirst","influence_general","0","0","0","0","0","0","none","1","12158","0"
"071218","15:30:21","45790130","787416013","4.0.10.0","1","3","end_of_study_questions_ufirst","unintentionality","0","0","0","0","0","0","less than half","1","11860","0"
"071218","15:30:21","45790130","787416013","4.0.10.0","1","4","end_of_study_questions_ufirst","intentionality","0","0","0","0","0","0","none","1","8942","0"
"071218","15:30:21","45790130","787416013","4.0.10.0","1","5","end_of_study_questions_ufirst","self_exclusion_1","0","0","0","0","0","0","Yes, use my data","1","6926","0"
"071218","15:30:21","45790130","787416013","4.0.10.0","1","5","end_of_study_questions_ufirst","self_exclusion_1other","0","0","0","0","0","0","","1","6926","0"
"071218","15:32:31","832467329","883659666","4.0.10.0","1","1","end_of_study_questions_ifirst","awareness","0","0","0","0","0","0","about half","1","13171","0"
"071218","15:32:31","832467329","883659666","4.0.10.0","1","2","end_of_study_questions_ifirst","influence_general","0","0","0","0","0","0","about half","1","4762","0"
"071218","15:32:31","832467329","883659666","4.0.10.0","1","3","end_of_study_questions_ifirst","intentionality","0","0","0","0","0","0","about half","1","4911","0"
"071218","15:32:31","832467329","883659666","4.0.10.0","1","4","end_of_study_questions_ifirst","unintentionality","0","0","0","0","0","0","about half","1","4447","0"
"071218","15:32:31","832467329","883659666","4.0.10.0","1","5","end_of_study_questions_ifirst","self_exclusion_1","0","0","0","0","0","0","Yes, use my data","1","11964","0"
"071218","15:32:31","832467329","883659666","4.0.10.0","1","5","end_of_study_questions_ifirst","self_exclusion_1other","0","0","0","0","0","0","","1","11964","0"
"071218","15:34:08","558161958","46903798","4.0.10.0","1","1","end_of_study_questions_ifirst","awareness","0","0","0","0","0","0","all","1","27973","0"
"071218","15:34:08","558161958","46903798","4.0.10.0","1","2","end_of_study_questions_ifirst","influence_general","0","0","0","0","0","0","none","1","11150","0"
"071218","15:34:08","558161958","46903798","4.0.10.0","1","3","end_of_study_questions_ifirst","intentionality","0","0","0","0","0","0","none","1","9983","0"
"071218","15:34:08","558161958","46903798","4.0.10.0","1","4","end_of_study_questions_ifirst","unintentionality","0","0","0","0","0","0","none","1","8006","0"
"071218","15:34:08","558161958","46903798","4.0.10.0","1","5","end_of_study_questions_ifirst","self_exclusion_1","0","0","0","0","0","0","Yes, use my data","1","19399","0"
"071218","15:34:08","558161958","46903798","4.0.10.0","1","5","end_of_study_questions_ifirst","self_exclusion_1other","0","0","0","0","0","0","","1","19399","0"
"071218","15:43:01","750647352","28512505","4.0.10.0","1","1","end_of_study_questions_ufirst","awareness","0","0","0","0","0","0","more than half","1","84705","0"
"071218","15:43:01","750647352","28512505","4.0.10.0","1","2","end_of_study_questions_ufirst","influence_general","0","0","0","0","0","0","more than half","1","21847","0"
"071218","15:43:01","750647352","28512505","4.0.10.0","1","3","end_of_study_questions_ufirst","unintentionality","0","0","0","0","0","0","more than half","1","8674","0"
"071218","15:43:01","750647352","28512505","4.0.10.0","1","4","end_of_study_questions_ufirst","intentionality","0","0","0","0","0","0","none","1","14553","0"
"071218","15:43:01","750647352","28512505","4.0.10.0","1","5","end_of_study_questions_ufirst","self_exclusion_1","0","0","0","0","0","0","Yes, use my data","1","11636","0"
"071218","15:43:01","750647352","28512505","4.0.10.0","1","5","end_of_study_questions_ufirst","self_exclusion_1other","0","0","0","0","0","0","","1","11636","0"
"071218","15:46:10","590826703","74695784","4.0.10.0","1","1","end_of_study_questions_ifirst","awareness","0","0","0","0","0","0","all","1","55739","0"
"071218","15:46:10","590826703","74695784","4.0.10.0","1","2","end_of_study_questions_ifirst","influence_general","0","0","0","0","0","0","more than half","1","7400","0"
"071218","15:46:10","590826703","74695784","4.0.10.0","1","3","end_of_study_questions_ifirst","intentionality","0","0","0","0","0","0","about half","1","6491","0"
"071218","15:46:10","590826703","74695784","4.0.10.0","1","4","end_of_study_questions_ifirst","unintentionality","0","0","0","0","0","0","about half","1","7809","0"
"071218","15:46:10","590826703","74695784","4.0.10.0","1","5","end_of_study_questions_ifirst","self_exclusion_1","0","0","0","0","0","0","Yes, use my data","1","17779","0"
"071218","15:46:10","590826703","74695784","4.0.10.0","1","5","end_of_study_questions_ifirst","self_exclusion_1other","0","0","0","0","0","0","","1","17779","0"
"071218","15:49:24","628784538","682413259","4.0.10.0","1","1","end_of_study_questions_ufirst","awareness","0","0","0","0","0","0","all","1","52812","0"
"071218","15:49:24","628784538","682413259","4.0.10.0","1","2","end_of_study_questions_ufirst","influence_general","0","0","0","0","0","0","a few","1","10375","0"
"071218","15:49:24","628784538","682413259","4.0.10.0","1","3","end_of_study_questions_ufirst","unintentionality","0","0","0","0","0","0","none","1","6758","0"
"071218","15:49:24","628784538","682413259","4.0.10.0","1","4","end_of_study_questions_ufirst","intentionality","0","0","0","0","0","0","none","1","6626","0"
"071218","15:49:24","628784538","682413259","4.0.10.0","1","5","end_of_study_questions_ufirst","self_exclusion_1","0","0","0","0","0","0","Yes, use my data","1","11722","0"
"071218","15:49:24","628784538","682413259","4.0.10.0","1","5","end_of_study_questions_ufirst","self_exclusion_1other","0","0","0","0","0","0","","1","11722","0"
"071218","10:52:11","117844292","606586116","4.0.10.0","1","1","end_of_study_questions_ifirst","awareness","0","0","0","0","0","0","most","1","78771","0"
"071218","10:52:11","117844292","606586116","4.0.10.0","1","2","end_of_study_questions_ifirst","influence_general","0","0","0","0","0","0","less than half","1","8406","0"
"071218","10:52:11","117844292","606586116","4.0.10.0","1","3","end_of_study_questions_ifirst","intentionality","0","0","0","0","0","0","a few","1","7875","0"
"071218","10:52:11","117844292","606586116","4.0.10.0","1","4","end_of_study_questions_ifirst","unintentionality","0","0","0","0","0","0","about half","1","7702","0"
"071218","10:52:11","117844292","606586116","4.0.10.0","1","5","end_of_study_questions_ifirst","self_exclusion_1","0","0","0","0","0","0","Yes, use my data","1","6575","0"
"071218","10:52:11","117844292","606586116","4.0.10.0","1","5","end_of_study_questions_ifirst","self_exclusion_1other","0","0","0","0","0","0","","1","6575","0"
"071218","15:56:43","131692243","488167179","4.0.10.0","1","1","end_of_study_questions_ufirst","awareness","0","0","0","0","0","0","less than half","1","14437","0"
"071218","15:56:43","131692243","488167179","4.0.10.0","1","2","end_of_study_questions_ufirst","influence_general","0","0","0","0","0","0","more than half","1","6027","0"
"071218","15:56:43","131692243","488167179","4.0.10.0","1","3","end_of_study_questions_ufirst","unintentionality","0","0","0","0","0","0","more than half","1","6021","0"
"071218","15:56:43","131692243","488167179","4.0.10.0","1","4","end_of_study_questions_ufirst","intentionality","0","0","0","0","0","0","less than half","1","8067","0"
"071218","15:56:43","131692243","488167179","4.0.10.0","1","5","end_of_study_questions_ufirst","self_exclusion_1","0","0","0","0","0","0","Yes, use my data","1","9382","0"
"071218","15:56:43","131692243","488167179","4.0.10.0","1","5","end_of_study_questions_ufirst","self_exclusion_1other","0","0","0","0","0","0","","1","9382","0"
"071218","09:56:46","130661988","560873965","4.0.10.0","1","1","end_of_study_questions_ufirst","awareness","0","0","0","0","0","0","all","1","52836","0"
"071218","09:56:46","130661988","560873965","4.0.10.0","1","2","end_of_study_questions_ufirst","influence_general","0","0","0","0","0","0","about half","1","11047","0"
"071218","09:56:46","130661988","560873965","4.0.10.0","1","3","end_of_study_questions_ufirst","unintentionality","0","0","0","0","0","0","more than half","1","9810","0"
"071218","09:56:46","130661988","560873965","4.0.10.0","1","4","end_of_study_questions_ufirst","intentionality","0","0","0","0","0","0","a few","1","6344","0"
"071218","09:56:46","130661988","560873965","4.0.10.0","1","5","end_of_study_questions_ufirst","self_exclusion_1","0","0","0","0","0","0","Yes, use my data","1","5622","0"
"071218","09:56:46","130661988","560873965","4.0.10.0","1","5","end_of_study_questions_ufirst","self_exclusion_1other","0","0","0","0","0","0","","1","5622","0"
"071218","16:59:46","196470792","938096670","4.0.10.0","1","1","end_of_study_questions_ifirst","awareness","0","0","0","0","0","0","all","1","16522","0"
"071218","16:59:46","196470792","938096670","4.0.10.0","1","2","end_of_study_questions_ifirst","influence_general","0","0","0","0","0","0","Sometimes","1","5925","0"
"071218","16:59:46","196470792","938096670","4.0.10.0","1","3","end_of_study_questions_ifirst","intentionality","0","0","0","0","0","0","Somewhat rarely","1","13504","0"
"071218","16:59:46","196470792","938096670","4.0.10.0","1","4","end_of_study_questions_ifirst","unintentionality","0","0","0","0","0","0","Very rarely","1","8036","0"
"071218","16:59:46","196470792","938096670","4.0.10.0","1","5","end_of_study_questions_ifirst","self_exclusion_1","0","0","0","0","0","0","Yes, use my data","1","15278","0"
"071218","16:59:46","196470792","938096670","4.0.10.0","1","5","end_of_study_questions_ifirst","self_exclusion_1other","0","0","0","0","0","0","","1","15278","0"
"071218","16:01:33","852726307","496840284","4.0.10.0","1","1","end_of_study_questions_ifirst","awareness","0","0","0","0","0","0","more than half","1","8518","0"
"071218","16:01:33","852726307","496840284","4.0.10.0","1","2","end_of_study_questions_ifirst","influence_general","0","0","0","0","0","0","less than half","1","5863","0"
"071218","16:01:33","852726307","496840284","4.0.10.0","1","3","end_of_study_questions_ifirst","intentionality","0","0","0","0","0","0","about half","1","3524","0"
"071218","16:01:33","852726307","496840284","4.0.10.0","1","4","end_of_study_questions_ifirst","unintentionality","0","0","0","0","0","0","about half","1","3462","0"
"071218","16:01:33","852726307","496840284","4.0.10.0","1","5","end_of_study_questions_ifirst","self_exclusion_1","0","0","0","0","0","0","Yes, use my data","1","9092","0"
"071218","16:01:33","852726307","496840284","4.0.10.0","1","5","end_of_study_questions_ifirst","self_exclusion_1other","0","0","0","0","0","0","","1","9092","0"
"071218","11:04:37","90788605","423794130","4.0.10.0","1","1","end_of_study_questions_ifirst","awareness","0","0","0","0","0","0","more than half","1","50423","0"
"071218","11:04:37","90788605","423794130","4.0.10.0","1","2","end_of_study_questions_ifirst","influence_general","0","0","0","0","0","0","less than half","1","11389","0"
"071218","11:04:37","90788605","423794130","4.0.10.0","1","3","end_of_study_questions_ifirst","intentionality","0","0","0","0","0","0","none","1","11020","0"
"071218","11:04:37","90788605","423794130","4.0.10.0","1","4","end_of_study_questions_ifirst","unintentionality","0","0","0","0","0","0","a few","1","8684","0"
"071218","11:04:37","90788605","423794130","4.0.10.0","1","5","end_of_study_questions_ifirst","self_exclusion_1","0","0","0","0","0","0","Yes, use my data","1","13096","0"
"071218","11:04:37","90788605","423794130","4.0.10.0","1","5","end_of_study_questions_ifirst","self_exclusion_1other","0","0","0","0","0","0","","1","13096","0"
"071218","16:07:19","307261225","407826805","4.0.10.0","1","1","end_of_study_questions_ufirst","awareness","0","0","0","0","0","0","less than half","1","9211","0"
"071218","16:07:19","307261225","407826805","4.0.10.0","1","2","end_of_study_questions_ufirst","influence_general","0","0","0","0","0","0","about half","1","5389","0"
"071218","16:07:19","307261225","407826805","4.0.10.0","1","3","end_of_study_questions_ufirst","unintentionality","0","0","0","0","0","0","most","1","4718","0"
"071218","16:07:19","307261225","407826805","4.0.10.0","1","4","end_of_study_questions_ufirst","intentionality","0","0","0","0","0","0","none","1","12170","0"
"071218","16:07:19","307261225","407826805","4.0.10.0","1","5","end_of_study_questions_ufirst","self_exclusion_1","0","0","0","0","0","0","Yes, use my data","1","14011","0"
"071218","16:07:19","307261225","407826805","4.0.10.0","1","5","end_of_study_questions_ufirst","self_exclusion_1other","0","0","0","0","0","0","","1","14011","0"
"071218","16:08:44","783468118","377619931","4.0.10.0","1","1","end_of_study_questions_ufirst","awareness","0","0","0","0","0","0","none","1","28381","0"
"071218","16:08:44","783468118","377619931","4.0.10.0","1","2","end_of_study_questions_ufirst","influence_general","0","0","0","0","0","0","none","1","13565","0"
"071218","16:08:44","783468118","377619931","4.0.10.0","1","3","end_of_study_questions_ufirst","unintentionality","0","0","0","0","0","0","a few","1","6657","0"
"071218","16:08:44","783468118","377619931","4.0.10.0","1","4","end_of_study_questions_ufirst","intentionality","0","0","0","0","0","0","none","1","4721","0"
"071218","16:08:44","783468118","377619931","4.0.10.0","1","5","end_of_study_questions_ufirst","self_exclusion_1","0","0","0","0","0","0","Yes, use my data","1","8778","0"
"071218","16:08:44","783468118","377619931","4.0.10.0","1","5","end_of_study_questions_ufirst","self_exclusion_1other","0","0","0","0","0","0","","1","8778","0"
"071218","16:07:46","435053026","489270658","4.0.10.0","1","1","end_of_study_questions_ifirst","awareness","0","0","0","0","0","0","none","1","91945","0"
"071218","16:07:46","435053026","489270658","4.0.10.0","1","2","end_of_study_questions_ifirst","influence_general","0","0","0","0","0","0","most","1","7855","0"
"071218","16:07:46","435053026","489270658","4.0.10.0","1","3","end_of_study_questions_ifirst","intentionality","0","0","0","0","0","0","most","1","7990","0"
"071218","16:07:46","435053026","489270658","4.0.10.0","1","4","end_of_study_questions_ifirst","unintentionality","0","0","0","0","0","0","none","1","21857","0"
"071218","16:07:46","435053026","489270658","4.0.10.0","1","5","end_of_study_questions_ifirst","self_exclusion_1","0","0","0","0","0","0","Yes, use my data","1","16252","0"
"071218","16:07:46","435053026","489270658","4.0.10.0","1","5","end_of_study_questions_ifirst","self_exclusion_1other","0","0","0","0","0","0","","1","16252","0"
"071218","10:12:21","846694006","593781581","4.0.10.0","1","1","end_of_study_questions_ufirst","awareness","0","0","0","0","0","0","all","1","29229","0"
"071218","10:12:21","846694006","593781581","4.0.10.0","1","2","end_of_study_questions_ufirst","influence_general","0","0","0","0","0","0","about half","1","5417","0"
"071218","10:12:21","846694006","593781581","4.0.10.0","1","3","end_of_study_questions_ufirst","unintentionality","0","0","0","0","0","0","more than half","1","6210","0"
"071218","10:12:21","846694006","593781581","4.0.10.0","1","4","end_of_study_questions_ufirst","intentionality","0","0","0","0","0","0","less than half","1","5206","0"
"071218","10:12:21","846694006","593781581","4.0.10.0","1","5","end_of_study_questions_ufirst","self_exclusion_1","0","0","0","0","0","0","No, exclude my data (please specify why):","1","22205","0"
"071218","10:12:21","846694006","593781581","4.0.10.0","1","5","end_of_study_questions_ufirst","self_exclusion_1other","0","0","0","0","0","0","Got a phone call in the middle, completely missed 3 or 4 images","1","22205","0"
"071218","16:13:08","526192182","624910305","4.0.10.0","1","1","end_of_study_questions_ufirst","awareness","0","0","0","0","0","0","most","1","64582","0"
"071218","16:13:08","526192182","624910305","4.0.10.0","1","2","end_of_study_questions_ufirst","influence_general","0","0","0","0","0","0","none","1","6542","0"
"071218","16:13:08","526192182","624910305","4.0.10.0","1","3","end_of_study_questions_ufirst","unintentionality","0","0","0","0","0","0","a few","1","7376","0"
"071218","16:13:08","526192182","624910305","4.0.10.0","1","4","end_of_study_questions_ufirst","intentionality","0","0","0","0","0","0","none","1","7354","0"
"071218","16:13:08","526192182","624910305","4.0.10.0","1","5","end_of_study_questions_ufirst","self_exclusion_1","0","0","0","0","0","0","Yes, use my data","1","12302","0"
"071218","16:13:08","526192182","624910305","4.0.10.0","1","5","end_of_study_questions_ufirst","self_exclusion_1other","0","0","0","0","0","0","","1","12302","0"
"071218","16:14:16","336116221","83203792","4.0.10.0","1","1","end_of_study_questions_ifirst","awareness","0","0","0","0","0","0","all","1","11004","0"
"071218","16:14:16","336116221","83203792","4.0.10.0","1","2","end_of_study_questions_ifirst","influence_general","0","0","0","0","0","0","a few","1","6458","0"
"071218","16:14:16","336116221","83203792","4.0.10.0","1","3","end_of_study_questions_ifirst","intentionality","0","0","0","0","0","0","a few","1","5581","0"
"071218","16:14:16","336116221","83203792","4.0.10.0","1","4","end_of_study_questions_ifirst","unintentionality","0","0","0","0","0","0","a few","1","5724","0"
"071218","16:14:16","336116221","83203792","4.0.10.0","1","5","end_of_study_questions_ifirst","self_exclusion_1","0","0","0","0","0","0","Yes, use my data","1","2869","0"
"071218","16:14:16","336116221","83203792","4.0.10.0","1","5","end_of_study_questions_ifirst","self_exclusion_1other","0","0","0","0","0","0","","1","2869","0"
"071218","16:23:18","322117296","117989195","4.0.10.0","1","1","end_of_study_questions_ufirst","awareness","0","0","0","0","0","0","all","1","14482","0"
"071218","16:23:18","322117296","117989195","4.0.10.0","1","2","end_of_study_questions_ufirst","influence_general","0","0","0","0","0","0","less than half","1","11097","0"
"071218","16:23:18","322117296","117989195","4.0.10.0","1","3","end_of_study_questions_ufirst","unintentionality","0","0","0","0","0","0","more than half","1","8766","0"
"071218","16:23:18","322117296","117989195","4.0.10.0","1","4","end_of_study_questions_ufirst","intentionality","0","0","0","0","0","0","a few","1","7555","0"
"071218","16:23:18","322117296","117989195","4.0.10.0","1","5","end_of_study_questions_ufirst","self_exclusion_1","0","0","0","0","0","0","Yes, use my data","1","15878","0"
"071218","16:23:18","322117296","117989195","4.0.10.0","1","5","end_of_study_questions_ufirst","self_exclusion_1other","0","0","0","0","0","0","","1","15878","0"
"071318","01:23:46","463061784","595598426","4.0.10.0","1","1","end_of_study_questions_ifirst","awareness","0","0","0","0","0","0","all","1","14154","0"
"071318","01:23:46","463061784","595598426","4.0.10.0","1","2","end_of_study_questions_ifirst","influence_general","0","0","0","0","0","0","a few","1","10288","0"
"071318","01:23:46","463061784","595598426","4.0.10.0","1","3","end_of_study_questions_ifirst","intentionality","0","0","0","0","0","0","none","1","7848","0"
"071318","01:23:46","463061784","595598426","4.0.10.0","1","4","end_of_study_questions_ifirst","unintentionality","0","0","0","0","0","0","a few","1","7266","0"
"071318","01:23:46","463061784","595598426","4.0.10.0","1","5","end_of_study_questions_ifirst","self_exclusion_1","0","0","0","0","0","0","Yes, use my data","1","26104","0"
"071318","01:23:46","463061784","595598426","4.0.10.0","1","5","end_of_study_questions_ifirst","self_exclusion_1other","0","0","0","0","0","0","","1","26104","0"
"071218","16:23:28","848463422","55027911","4.0.10.0","1","1","end_of_study_questions_ufirst","awareness","0","0","0","0","0","0","most","1","28131","0"
"071218","16:23:28","848463422","55027911","4.0.10.0","1","2","end_of_study_questions_ufirst","influence_general","0","0","0","0","0","0","most","1","7463","0"
"071218","16:23:28","848463422","55027911","4.0.10.0","1","3","end_of_study_questions_ufirst","unintentionality","0","0","0","0","0","0","most","1","8428","0"
"071218","16:23:28","848463422","55027911","4.0.10.0","1","4","end_of_study_questions_ufirst","intentionality","0","0","0","0","0","0","most","1","7083","0"
"071218","16:23:28","848463422","55027911","4.0.10.0","1","5","end_of_study_questions_ufirst","self_exclusion_1","0","0","0","0","0","0","Yes, use my data","1","31087","0"
"071218","16:23:28","848463422","55027911","4.0.10.0","1","5","end_of_study_questions_ufirst","self_exclusion_1other","0","0","0","0","0","0","","1","31087","0"
"071218","16:28:10","515248424","183137276","4.0.10.0","1","1","end_of_study_questions_ifirst","awareness","0","0","0","0","0","0","all","1","12304","0"
"071218","16:28:10","515248424","183137276","4.0.10.0","1","2","end_of_study_questions_ifirst","influence_general","0","0","0","0","0","0","a few","1","8331","0"
"071218","16:28:10","515248424","183137276","4.0.10.0","1","3","end_of_study_questions_ifirst","intentionality","0","0","0","0","0","0","none","1","6478","0"
"071218","16:28:10","515248424","183137276","4.0.10.0","1","4","end_of_study_questions_ifirst","unintentionality","0","0","0","0","0","0","a few","1","5853","0"
"071218","16:28:10","515248424","183137276","4.0.10.0","1","5","end_of_study_questions_ifirst","self_exclusion_1","0","0","0","0","0","0","Yes, use my data","1","12941","0"
"071218","16:28:10","515248424","183137276","4.0.10.0","1","5","end_of_study_questions_ifirst","self_exclusion_1other","0","0","0","0","0","0","","1","12941","0"
"071218","10:28:33","574210406","242688177","4.0.10.0","1","1","end_of_study_questions_ufirst","awareness","0","0","0","0","0","0","more than half","1","65906","0"
"071218","10:28:33","574210406","242688177","4.0.10.0","1","2","end_of_study_questions_ufirst","influence_general","0","0","0","0","0","0","a few","1","9156","0"
"071218","10:28:33","574210406","242688177","4.0.10.0","1","3","end_of_study_questions_ufirst","unintentionality","0","0","0","0","0","0","less than half","1","6259","0"
"071218","10:28:33","574210406","242688177","4.0.10.0","1","4","end_of_study_questions_ufirst","intentionality","0","0","0","0","0","0","none","1","5448","0"
"071218","10:28:33","574210406","242688177","4.0.10.0","1","5","end_of_study_questions_ufirst","self_exclusion_1","0","0","0","0","0","0","Yes, use my data","1","10967","0"
"071218","10:28:33","574210406","242688177","4.0.10.0","1","5","end_of_study_questions_ufirst","self_exclusion_1other","0","0","0","0","0","0","","1","10967","0"
"071218","16:30:33","168571909","188996986","4.0.10.0","1","1","end_of_study_questions_ifirst","awareness","0","0","0","0","0","0","a few","1","13046","0"
"071218","16:30:33","168571909","188996986","4.0.10.0","1","2","end_of_study_questions_ifirst","influence_general","0","0","0","0","0","0","a few","1","8423","0"
"071218","16:30:33","168571909","188996986","4.0.10.0","1","3","end_of_study_questions_ifirst","intentionality","0","0","0","0","0","0","none","1","8640","0"
"071218","16:30:33","168571909","188996986","4.0.10.0","1","4","end_of_study_questions_ifirst","unintentionality","0","0","0","0","0","0","about half","1","6134","0"
"071218","16:30:33","168571909","188996986","4.0.10.0","1","5","end_of_study_questions_ifirst","self_exclusion_1","0","0","0","0","0","0","Yes, use my data","1","4277","0"
"071218","16:30:33","168571909","188996986","4.0.10.0","1","5","end_of_study_questions_ifirst","self_exclusion_1other","0","0","0","0","0","0","","1","4277","0"
"071218","16:30:03","703918719","293786693","4.0.10.0","1","1","end_of_study_questions_ufirst","awareness","0","0","0","0","0","0","about half","1","41333","0"
"071218","16:30:03","703918719","293786693","4.0.10.0","1","2","end_of_study_questions_ufirst","influence_general","0","0","0","0","0","0","about half","1","6795","0"
"071218","16:30:03","703918719","293786693","4.0.10.0","1","3","end_of_study_questions_ufirst","unintentionality","0","0","0","0","0","0","more than half","1","11616","0"
"071218","16:30:03","703918719","293786693","4.0.10.0","1","4","end_of_study_questions_ufirst","intentionality","0","0","0","0","0","0","a few","1","6822","0"
"071218","16:30:03","703918719","293786693","4.0.10.0","1","5","end_of_study_questions_ufirst","self_exclusion_1","0","0","0","0","0","0","Yes, use my data","1","9660","0"
"071218","16:30:03","703918719","293786693","4.0.10.0","1","5","end_of_study_questions_ufirst","self_exclusion_1other","0","0","0","0","0","0","","1","9660","0"
"071218","11:30:20","830440203","651264817","4.0.10.0","1","1","end_of_study_questions_ufirst","awareness","0","0","0","0","0","0","most","1","73971","0"
"071218","11:30:20","830440203","651264817","4.0.10.0","1","2","end_of_study_questions_ufirst","influence_general","0","0","0","0","0","0","less than half","1","7042","0"
"071218","11:30:20","830440203","651264817","4.0.10.0","1","3","end_of_study_questions_ufirst","unintentionality","0","0","0","0","0","0","less than half","1","6186","0"
"071218","11:30:20","830440203","651264817","4.0.10.0","1","4","end_of_study_questions_ufirst","intentionality","0","0","0","0","0","0","a few","1","10800","0"
"071218","11:30:20","830440203","651264817","4.0.10.0","1","5","end_of_study_questions_ufirst","self_exclusion_1","0","0","0","0","0","0","Yes, use my data","1","11280","0"
"071218","11:30:20","830440203","651264817","4.0.10.0","1","5","end_of_study_questions_ufirst","self_exclusion_1other","0","0","0","0","0","0","","1","11280","0"
"071218","16:33:37","42263210","604742078","4.0.10.0","1","1","end_of_study_questions_ifirst","awareness","0","0","0","0","0","0","all","1","31278","0"
"071218","16:33:37","42263210","604742078","4.0.10.0","1","2","end_of_study_questions_ifirst","influence_general","0","0","0","0","0","0","none","1","7953","0"
"071218","16:33:37","42263210","604742078","4.0.10.0","1","3","end_of_study_questions_ifirst","intentionality","0","0","0","0","0","0","none","1","3859","0"
"071218","16:33:37","42263210","604742078","4.0.10.0","1","4","end_of_study_questions_ifirst","unintentionality","0","0","0","0","0","0","a few","1","6000","0"
"071218","16:33:37","42263210","604742078","4.0.10.0","1","5","end_of_study_questions_ifirst","self_exclusion_1","0","0","0","0","0","0","Yes, use my data","1","7383","0"
"071218","16:33:37","42263210","604742078","4.0.10.0","1","5","end_of_study_questions_ifirst","self_exclusion_1other","0","0","0","0","0","0","","1","7383","0"
"071218","13:04:20","202835742","386883880","4.0.10.0","1","1","end_of_study_questions_ifirst","awareness","0","0","0","0","0","0","less than half","1","49597","0"
"071218","13:04:20","202835742","386883880","4.0.10.0","1","2","end_of_study_questions_ifirst","influence_general","0","0","0","0","0","0","more than half","1","15407","0"
"071218","13:04:20","202835742","386883880","4.0.10.0","1","3","end_of_study_questions_ifirst","intentionality","0","0","0","0","0","0","less than half","1","12016","0"
"071218","13:04:20","202835742","386883880","4.0.10.0","1","4","end_of_study_questions_ifirst","unintentionality","0","0","0","0","0","0","less than half","1","10108","0"
"071218","13:04:20","202835742","386883880","4.0.10.0","1","5","end_of_study_questions_ifirst","self_exclusion_1","0","0","0","0","0","0","Yes, use my data","1","38945","0"
"071218","13:04:20","202835742","386883880","4.0.10.0","1","5","end_of_study_questions_ifirst","self_exclusion_1other","0","0","0","0","0","0","","1","38945","0"
"071218","11:37:01","182135475","904270315","4.0.10.0","1","1","end_of_study_questions_ufirst","awareness","0","0","0","0","0","0","less than half","1","11583","0"
"071218","11:37:01","182135475","904270315","4.0.10.0","1","2","end_of_study_questions_ufirst","influence_general","0","0","0","0","0","0","a few","1","7997","0"
"071218","11:37:01","182135475","904270315","4.0.10.0","1","3","end_of_study_questions_ufirst","unintentionality","0","0","0","0","0","0","a few","1","7483","0"
"071218","11:37:01","182135475","904270315","4.0.10.0","1","4","end_of_study_questions_ufirst","intentionality","0","0","0","0","0","0","less than half","1","5702","0"
"071218","11:37:01","182135475","904270315","4.0.10.0","1","5","end_of_study_questions_ufirst","self_exclusion_1","0","0","0","0","0","0","Yes, use my data","1","6016","0"
"071218","11:37:01","182135475","904270315","4.0.10.0","1","5","end_of_study_questions_ufirst","self_exclusion_1other","0","0","0","0","0","0","","1","6016","0"
"071218","11:36:19","63669529","964951392","4.0.10.0","1","1","end_of_study_questions_ifirst","awareness","0","0","0","0","0","0","all","1","32828","0"
"071218","11:36:19","63669529","964951392","4.0.10.0","1","2","end_of_study_questions_ifirst","influence_general","0","0","0","0","0","0","most","1","4215","0"
"071218","11:36:19","63669529","964951392","4.0.10.0","1","3","end_of_study_questions_ifirst","intentionality","0","0","0","0","0","0","most","1","7782","0"
"071218","11:36:19","63669529","964951392","4.0.10.0","1","4","end_of_study_questions_ifirst","unintentionality","0","0","0","0","0","0","most","1","4966","0"
"071218","11:36:19","63669529","964951392","4.0.10.0","1","5","end_of_study_questions_ifirst","self_exclusion_1","0","0","0","0","0","0","No, exclude my data (please specify why):","1","39805","0"
"071218","11:36:19","63669529","964951392","4.0.10.0","1","5","end_of_study_questions_ifirst","self_exclusion_1other","0","0","0","0","0","0","they went too fast, so i wasn't able to actually look at the chinese symbol, my mind only saw the first image first so it was hard for me to judge the symbol at all ","1","39805","0"
"071218","16:39:57","984318860","235085710","4.0.10.0","1","1","end_of_study_questions_ifirst","awareness","0","0","0","0","0","0","all","1","8279","0"
"071218","16:39:57","984318860","235085710","4.0.10.0","1","2","end_of_study_questions_ifirst","influence_general","0","0","0","0","0","0","all","1","6701","0"
"071218","16:39:57","984318860","235085710","4.0.10.0","1","3","end_of_study_questions_ifirst","intentionality","0","0","0","0","0","0","none","1","8651","0"
"071218","16:39:57","984318860","235085710","4.0.10.0","1","4","end_of_study_questions_ifirst","unintentionality","0","0","0","0","0","0","all","1","6286","0"
"071218","16:39:57","984318860","235085710","4.0.10.0","1","5","end_of_study_questions_ifirst","self_exclusion_1","0","0","0","0","0","0","Yes, use my data","1","6463","0"
"071218","16:39:57","984318860","235085710","4.0.10.0","1","5","end_of_study_questions_ifirst","self_exclusion_1other","0","0","0","0","0","0","","1","6463","0"
"071218","16:41:26","923909836","282821167","4.0.10.0","1","1","end_of_study_questions_ufirst","awareness","0","0","0","0","0","0","about half","1","15416","0"
"071218","16:41:26","923909836","282821167","4.0.10.0","1","2","end_of_study_questions_ufirst","influence_general","0","0","0","0","0","0","none","1","6834","0"
"071218","16:41:26","923909836","282821167","4.0.10.0","1","3","end_of_study_questions_ufirst","unintentionality","0","0","0","0","0","0","none","1","10856","0"
"071218","16:41:26","923909836","282821167","4.0.10.0","1","4","end_of_study_questions_ufirst","intentionality","0","0","0","0","0","0","none","1","8615","0"
"071218","16:41:26","923909836","282821167","4.0.10.0","1","5","end_of_study_questions_ufirst","self_exclusion_1","0","0","0","0","0","0","Yes, use my data","1","31598","0"
"071218","16:41:26","923909836","282821167","4.0.10.0","1","5","end_of_study_questions_ufirst","self_exclusion_1other","0","0","0","0","0","0","","1","31598","0"
"071218","10:42:58","902456789","492324762","4.0.10.0","1","1","end_of_study_questions_ifirst","awareness","0","0","0","0","0","0","less than half","1","27229","0"
"071218","10:42:58","902456789","492324762","4.0.10.0","1","2","end_of_study_questions_ifirst","influence_general","0","0","0","0","0","0","a few","1","14659","0"
"071218","10:42:58","902456789","492324762","4.0.10.0","1","3","end_of_study_questions_ifirst","intentionality","0","0","0","0","0","0","none","1","9461","0"
"071218","10:42:58","902456789","492324762","4.0.10.0","1","4","end_of_study_questions_ifirst","unintentionality","0","0","0","0","0","0","a few","1","10846","0"
"071218","10:42:58","902456789","492324762","4.0.10.0","1","5","end_of_study_questions_ifirst","self_exclusion_1","0","0","0","0","0","0","Yes, use my data","1","8713","0"
"071218","10:42:58","902456789","492324762","4.0.10.0","1","5","end_of_study_questions_ifirst","self_exclusion_1other","0","0","0","0","0","0","","1","8713","0"
"071218","11:42:02","54877366","538746433","4.0.10.0","1","1","end_of_study_questions_ufirst","awareness","0","0","0","0","0","0","a few","1","13515","0"
"071218","11:42:02","54877366","538746433","4.0.10.0","1","2","end_of_study_questions_ufirst","influence_general","0","0","0","0","0","0","all","1","37833","0"
"071218","11:42:02","54877366","538746433","4.0.10.0","1","3","end_of_study_questions_ufirst","unintentionality","0","0","0","0","0","0","a few","1","10343","0"
"071218","11:42:02","54877366","538746433","4.0.10.0","1","4","end_of_study_questions_ufirst","intentionality","0","0","0","0","0","0","all","1","38866","0"
"071218","11:42:02","54877366","538746433","4.0.10.0","1","5","end_of_study_questions_ufirst","self_exclusion_1","0","0","0","0","0","0","Yes, use my data","1","127636","0"
"071218","11:42:02","54877366","538746433","4.0.10.0","1","5","end_of_study_questions_ufirst","self_exclusion_1other","0","0","0","0","0","0","","1","127636","0"
"071218","10:46:29","983755299","467624381","4.0.10.0","1","1","end_of_study_questions_ufirst","awareness","0","0","0","0","0","0","all","1","27144","0"
"071218","10:46:29","983755299","467624381","4.0.10.0","1","2","end_of_study_questions_ufirst","influence_general","0","0","0","0","0","0","most","1","9069","0"
"071218","10:46:29","983755299","467624381","4.0.10.0","1","3","end_of_study_questions_ufirst","unintentionality","0","0","0","0","0","0","most","1","11421","0"
"071218","10:46:29","983755299","467624381","4.0.10.0","1","4","end_of_study_questions_ufirst","intentionality","0","0","0","0","0","0","none","1","10652","0"
"071218","10:46:29","983755299","467624381","4.0.10.0","1","5","end_of_study_questions_ufirst","self_exclusion_1","0","0","0","0","0","0","Yes, use my data","1","5882","0"
"071218","10:46:29","983755299","467624381","4.0.10.0","1","5","end_of_study_questions_ufirst","self_exclusion_1other","0","0","0","0","0","0","","1","5882","0"
"071218","16:47:50","818384788","917102915","4.0.10.0","1","1","end_of_study_questions_ufirst","awareness","0","0","0","0","0","0","more than half","1","14658","0"
"071218","16:47:50","818384788","917102915","4.0.10.0","1","2","end_of_study_questions_ufirst","influence_general","0","0","0","0","0","0","about half","1","8832","0"
"071218","16:47:50","818384788","917102915","4.0.10.0","1","3","end_of_study_questions_ufirst","unintentionality","0","0","0","0","0","0","less than half","1","5381","0"
"071218","16:47:50","818384788","917102915","4.0.10.0","1","4","end_of_study_questions_ufirst","intentionality","0","0","0","0","0","0","about half","1","6086","0"
"071218","16:47:50","818384788","917102915","4.0.10.0","1","5","end_of_study_questions_ufirst","self_exclusion_1","0","0","0","0","0","0","Yes, use my data","1","7039","0"
"071218","16:47:50","818384788","917102915","4.0.10.0","1","5","end_of_study_questions_ufirst","self_exclusion_1other","0","0","0","0","0","0","","1","7039","0"
"071218","11:47:21","835828023","550951876","4.0.10.0","1","1","end_of_study_questions_ifirst","awareness","0","0","0","0","0","0","about half","1","9130","0"
"071218","11:47:21","835828023","550951876","4.0.10.0","1","2","end_of_study_questions_ifirst","influence_general","0","0","0","0","0","0","about half","1","5896","0"
"071218","11:47:21","835828023","550951876","4.0.10.0","1","3","end_of_study_questions_ifirst","intentionality","0","0","0","0","0","0","about half","1","2474","0"
"071218","11:47:21","835828023","550951876","4.0.10.0","1","4","end_of_study_questions_ifirst","unintentionality","0","0","0","0","0","0","a few","1","3874","0"
"071218","11:47:21","835828023","550951876","4.0.10.0","1","5","end_of_study_questions_ifirst","self_exclusion_1","0","0","0","0","0","0","No, exclude my data (please specify why):","1","55091","0"
"071218","11:47:21","835828023","550951876","4.0.10.0","1","5","end_of_study_questions_ifirst","self_exclusion_1other","0","0","0","0","0","0","The questions at the end did not appear, only the multiple choice answers did, so I wasn't sure what I was answering.","1","55091","0"
"071218","11:49:55","61976408","115605122","4.0.10.0","1","1","end_of_study_questions_ifirst","awareness","0","0","0","0","0","0","","1","8316","0"
"071218","16:49:25","847952058","727604649","4.0.10.0","1","1","end_of_study_questions_ufirst","awareness","0","0","0","0","0","0","none","1","28294","0"
"071218","16:49:25","847952058","727604649","4.0.10.0","1","2","end_of_study_questions_ufirst","influence_general","0","0","0","0","0","0","none","1","7943","0"
"071218","16:49:25","847952058","727604649","4.0.10.0","1","3","end_of_study_questions_ufirst","unintentionality","0","0","0","0","0","0","none","1","6802","0"
"071218","16:49:25","847952058","727604649","4.0.10.0","1","4","end_of_study_questions_ufirst","intentionality","0","0","0","0","0","0","none","1","11913","0"
"071218","16:49:25","847952058","727604649","4.0.10.0","1","5","end_of_study_questions_ufirst","self_exclusion_1","0","0","0","0","0","0","Yes, use my data","1","8253","0"
"071218","16:49:25","847952058","727604649","4.0.10.0","1","5","end_of_study_questions_ufirst","self_exclusion_1other","0","0","0","0","0","0","","1","8253","0"
"071218","16:48:51","891811249","169676400","4.0.10.0","1","1","end_of_study_questions_ifirst","awareness","0","0","0","0","0","0","less than half","1","29767","0"
"071218","16:48:51","891811249","169676400","4.0.10.0","1","2","end_of_study_questions_ifirst","influence_general","0","0","0","0","0","0","less than half","1","36374","0"
"071218","16:48:51","891811249","169676400","4.0.10.0","1","3","end_of_study_questions_ifirst","intentionality","0","0","0","0","0","0","more than half","1","19381","0"
"071218","16:48:51","891811249","169676400","4.0.10.0","1","4","end_of_study_questions_ifirst","unintentionality","0","0","0","0","0","0","more than half","1","17951","0"
"071218","16:48:51","891811249","169676400","4.0.10.0","1","5","end_of_study_questions_ifirst","self_exclusion_1","0","0","0","0","0","0","Yes, use my data","1","22864","0"
"071218","16:48:51","891811249","169676400","4.0.10.0","1","5","end_of_study_questions_ifirst","self_exclusion_1other","0","0","0","0","0","0","","1","22864","0"
"071218","16:49:17","905846531","4564664","4.0.10.0","1","1","end_of_study_questions_ifirst","awareness","0","0","0","0","0","0","","1","14626","0"
"071218","16:52:30","824528212","109411715","4.0.10.0","1","1","end_of_study_questions_ufirst","awareness","0","0","0","0","0","0","about half","1","35218","0"
"071218","16:52:30","824528212","109411715","4.0.10.0","1","2","end_of_study_questions_ufirst","influence_general","0","0","0","0","0","0","less than half","1","5966","0"
"071218","16:52:30","824528212","109411715","4.0.10.0","1","3","end_of_study_questions_ufirst","unintentionality","0","0","0","0","0","0","more than half","1","8853","0"
"071218","16:52:30","824528212","109411715","4.0.10.0","1","4","end_of_study_questions_ufirst","intentionality","0","0","0","0","0","0","less than half","1","5842","0"
"071218","16:52:30","824528212","109411715","4.0.10.0","1","5","end_of_study_questions_ufirst","self_exclusion_1","0","0","0","0","0","0","Yes, use my data","1","9808","0"
"071218","16:52:30","824528212","109411715","4.0.10.0","1","5","end_of_study_questions_ufirst","self_exclusion_1other","0","0","0","0","0","0","","1","9808","0"
"071218","16:53:14","492231266","519369227","4.0.10.0","1","1","end_of_study_questions_ufirst","awareness","0","0","0","0","0","0","about half","1","23972","0"
"071218","16:53:14","492231266","519369227","4.0.10.0","1","2","end_of_study_questions_ufirst","influence_general","0","0","0","0","0","0","a few","1","8488","0"
"071218","16:53:14","492231266","519369227","4.0.10.0","1","3","end_of_study_questions_ufirst","unintentionality","0","0","0","0","0","0","none","1","11196","0"
"071218","16:53:14","492231266","519369227","4.0.10.0","1","4","end_of_study_questions_ufirst","intentionality","0","0","0","0","0","0","a few","1","7246","0"
"071218","16:53:14","492231266","519369227","4.0.10.0","1","5","end_of_study_questions_ufirst","self_exclusion_1","0","0","0","0","0","0","Yes, use my data","1","7978","0"
"071218","16:53:14","492231266","519369227","4.0.10.0","1","5","end_of_study_questions_ufirst","self_exclusion_1other","0","0","0","0","0","0","","1","7978","0"
"071218","10:53:08","16788438","117942941","4.0.10.0","1","1","end_of_study_questions_ufirst","awareness","0","0","0","0","0","0","all","1","15858","0"
"071218","10:53:08","16788438","117942941","4.0.10.0","1","2","end_of_study_questions_ufirst","influence_general","0","0","0","0","0","0","more than half","1","12252","0"
"071218","10:53:08","16788438","117942941","4.0.10.0","1","3","end_of_study_questions_ufirst","unintentionality","0","0","0","0","0","0","more than half","1","8723","0"
"071218","10:53:08","16788438","117942941","4.0.10.0","1","4","end_of_study_questions_ufirst","intentionality","0","0","0","0","0","0","a few","1","13032","0"
"071218","10:53:08","16788438","117942941","4.0.10.0","1","5","end_of_study_questions_ufirst","self_exclusion_1","0","0","0","0","0","0","Yes, use my data","1","20297","0"
"071218","10:53:08","16788438","117942941","4.0.10.0","1","5","end_of_study_questions_ufirst","self_exclusion_1other","0","0","0","0","0","0","","1","20297","0"
"071218","11:56:22","421127885","217588699","4.0.10.0","1","1","end_of_study_questions_ufirst","awareness","0","0","0","0","0","0","most","1","38187","0"
"071218","11:56:22","421127885","217588699","4.0.10.0","1","2","end_of_study_questions_ufirst","influence_general","0","0","0","0","0","0","none","1","8491","0"
"071218","11:56:22","421127885","217588699","4.0.10.0","1","3","end_of_study_questions_ufirst","unintentionality","0","0","0","0","0","0","a few","1","9837","0"
"071218","11:56:22","421127885","217588699","4.0.10.0","1","4","end_of_study_questions_ufirst","intentionality","0","0","0","0","0","0","none","1","6737","0"
"071218","11:56:22","421127885","217588699","4.0.10.0","1","5","end_of_study_questions_ufirst","self_exclusion_1","0","0","0","0","0","0","Yes, use my data","1","7093","0"
"071218","11:56:22","421127885","217588699","4.0.10.0","1","5","end_of_study_questions_ufirst","self_exclusion_1other","0","0","0","0","0","0","","1","7093","0"
"071218","09:57:26","260395592","7483157","4.0.10.0","1","1","end_of_study_questions_ufirst","awareness","0","0","0","0","0","0","about half","1","12958","0"
"071218","09:57:26","260395592","7483157","4.0.10.0","1","2","end_of_study_questions_ufirst","influence_general","0","0","0","0","0","0","about half","1","4192","0"
"071218","09:57:26","260395592","7483157","4.0.10.0","1","3","end_of_study_questions_ufirst","unintentionality","0","0","0","0","0","0","less than half","1","5006","0"
"071218","09:57:26","260395592","7483157","4.0.10.0","1","4","end_of_study_questions_ufirst","intentionality","0","0","0","0","0","0","less than half","1","4236","0"
"071218","09:57:26","260395592","7483157","4.0.10.0","1","5","end_of_study_questions_ufirst","self_exclusion_1","0","0","0","0","0","0","Yes, use my data","1","8107","0"
"071218","09:57:26","260395592","7483157","4.0.10.0","1","5","end_of_study_questions_ufirst","self_exclusion_1other","0","0","0","0","0","0","","1","8107","0"
"071218","11:57:40","247601558","63553405","4.0.10.0","1","1","end_of_study_questions_ufirst","awareness","0","0","0","0","0","0","about half","1","53712","0"
"071218","11:57:40","247601558","63553405","4.0.10.0","1","2","end_of_study_questions_ufirst","influence_general","0","0","0","0","0","0","less than half","1","6888","0"
"071218","11:57:40","247601558","63553405","4.0.10.0","1","3","end_of_study_questions_ufirst","unintentionality","0","0","0","0","0","0","less than half","1","8884","0"
"071218","11:57:40","247601558","63553405","4.0.10.0","1","4","end_of_study_questions_ufirst","intentionality","0","0","0","0","0","0","a few","1","6859","0"
"071218","11:57:40","247601558","63553405","4.0.10.0","1","5","end_of_study_questions_ufirst","self_exclusion_1","0","0","0","0","0","0","Yes, use my data","1","10581","0"
"071218","11:57:40","247601558","63553405","4.0.10.0","1","5","end_of_study_questions_ufirst","self_exclusion_1other","0","0","0","0","0","0","","1","10581","0"
"071218","16:58:56","718173514","943848000","4.0.10.0","1","1","end_of_study_questions_ifirst","awareness","0","0","0","0","0","0","less than half","1","15642","0"
"071218","16:58:56","718173514","943848000","4.0.10.0","1","2","end_of_study_questions_ifirst","influence_general","0","0","0","0","0","0","about half","1","9414","0"
"071218","16:58:56","718173514","943848000","4.0.10.0","1","3","end_of_study_questions_ifirst","intentionality","0","0","0","0","0","0","a few","1","9979","0"
"071218","16:58:56","718173514","943848000","4.0.10.0","1","4","end_of_study_questions_ifirst","unintentionality","0","0","0","0","0","0","most","1","5698","0"
"071218","16:58:56","718173514","943848000","4.0.10.0","1","5","end_of_study_questions_ifirst","self_exclusion_1","0","0","0","0","0","0","Yes, use my data","1","20114","0"
"071218","16:58:56","718173514","943848000","4.0.10.0","1","5","end_of_study_questions_ifirst","self_exclusion_1other","0","0","0","0","0","0","","1","20114","0"
"071218","11:59:06","278972691","153454388","4.0.10.0","1","1","end_of_study_questions_ifirst","awareness","0","0","0","0","0","0","more than half","1","43965","0"
"071218","11:59:06","278972691","153454388","4.0.10.0","1","2","end_of_study_questions_ifirst","influence_general","0","0","0","0","0","0","most","1","6207","0"
"071218","11:59:06","278972691","153454388","4.0.10.0","1","3","end_of_study_questions_ifirst","intentionality","0","0","0","0","0","0","most","1","7980","0"
"071218","11:59:06","278972691","153454388","4.0.10.0","1","4","end_of_study_questions_ifirst","unintentionality","0","0","0","0","0","0","most","1","9530","0"
"071218","11:59:06","278972691","153454388","4.0.10.0","1","5","end_of_study_questions_ifirst","self_exclusion_1","0","0","0","0","0","0","Yes, use my data","1","7870","0"
"071218","11:59:06","278972691","153454388","4.0.10.0","1","5","end_of_study_questions_ifirst","self_exclusion_1other","0","0","0","0","0","0","","1","7870","0"
"071218","16:59:34","330730898","661377369","4.0.10.0","1","1","end_of_study_questions_ufirst","awareness","0","0","0","0","0","0","about half","1","17873","0"
"071218","16:59:34","330730898","661377369","4.0.10.0","1","2","end_of_study_questions_ufirst","influence_general","0","0","0","0","0","0","most","1","11152","0"
"071218","16:59:34","330730898","661377369","4.0.10.0","1","3","end_of_study_questions_ufirst","unintentionality","0","0","0","0","0","0","more than half","1","10214","0"
"071218","16:59:34","330730898","661377369","4.0.10.0","1","4","end_of_study_questions_ufirst","intentionality","0","0","0","0","0","0","most","1","7097","0"
"071218","16:59:34","330730898","661377369","4.0.10.0","1","5","end_of_study_questions_ufirst","self_exclusion_1","0","0","0","0","0","0","Yes, use my data","1","15533","0"
"071218","16:59:34","330730898","661377369","4.0.10.0","1","5","end_of_study_questions_ufirst","self_exclusion_1other","0","0","0","0","0","0","","1","15533","0"
"071218","11:59:43","899137125","773928249","4.0.10.0","1","1","end_of_study_questions_ufirst","awareness","0","0","0","0","0","0","about half","1","63155","0"
"071218","11:59:43","899137125","773928249","4.0.10.0","1","2","end_of_study_questions_ufirst","influence_general","0","0","0","0","0","0","less than half","1","7712","0"
"071218","11:59:43","899137125","773928249","4.0.10.0","1","3","end_of_study_questions_ufirst","unintentionality","0","0","0","0","0","0","less than half","1","4924","0"
"071218","11:59:43","899137125","773928249","4.0.10.0","1","4","end_of_study_questions_ufirst","intentionality","0","0","0","0","0","0","about half","1","1816","0"
"071218","11:59:43","899137125","773928249","4.0.10.0","1","5","end_of_study_questions_ufirst","self_exclusion_1","0","0","0","0","0","0","No, exclude my data (please specify why):","1","38497","0"
"071218","11:59:43","899137125","773928249","4.0.10.0","1","5","end_of_study_questions_ufirst","self_exclusion_1other","0","0","0","0","0","0","Im not 100% sure I understood the post questions and I feel as if my Data could misrepresent what you want from the particpants.","1","38497","0"
"071218","17:00:39","925629406","132510654","4.0.10.0","1","1","end_of_study_questions_ifirst","awareness","0","0","0","0","0","0","most","1","22484","0"
"071218","17:00:39","925629406","132510654","4.0.10.0","1","2","end_of_study_questions_ifirst","influence_general","0","0","0","0","0","0","most","1","16188","0"
"071218","17:00:39","925629406","132510654","4.0.10.0","1","3","end_of_study_questions_ifirst","intentionality","0","0","0","0","0","0","more than half","1","7265","0"
"071218","17:00:39","925629406","132510654","4.0.10.0","1","4","end_of_study_questions_ifirst","unintentionality","0","0","0","0","0","0","more than half","1","7683","0"
"071218","17:00:39","925629406","132510654","4.0.10.0","1","5","end_of_study_questions_ifirst","self_exclusion_1","0","0","0","0","0","0","Yes, use my data","1","11331","0"
"071218","17:00:39","925629406","132510654","4.0.10.0","1","5","end_of_study_questions_ifirst","self_exclusion_1other","0","0","0","0","0","0","","1","11331","0"
"071218","17:01:45","381219479","433913745","4.0.10.0","1","1","end_of_study_questions_ufirst","awareness","0","0","0","0","0","0","all","1","8325","0"
"071218","17:01:45","381219479","433913745","4.0.10.0","1","2","end_of_study_questions_ufirst","influence_general","0","0","0","0","0","0","all","1","4461","0"
"071218","17:01:45","381219479","433913745","4.0.10.0","1","3","end_of_study_questions_ufirst","unintentionality","0","0","0","0","0","0","most","1","5923","0"
"071218","17:01:45","381219479","433913745","4.0.10.0","1","4","end_of_study_questions_ufirst","intentionality","0","0","0","0","0","0","most","1","10257","0"
"071218","17:01:45","381219479","433913745","4.0.10.0","1","5","end_of_study_questions_ufirst","self_exclusion_1","0","0","0","0","0","0","Yes, use my data","1","14002","0"
"071218","17:01:45","381219479","433913745","4.0.10.0","1","5","end_of_study_questions_ufirst","self_exclusion_1other","0","0","0","0","0","0","","1","14002","0"
"071218","17:02:11","920738427","795809044","4.0.10.0","1","1","end_of_study_questions_ifirst","awareness","0","0","0","0","0","0","all","1","20982","0"
"071218","17:02:11","920738427","795809044","4.0.10.0","1","2","end_of_study_questions_ifirst","influence_general","0","0","0","0","0","0","a few","1","8469","0"
"071218","17:02:11","920738427","795809044","4.0.10.0","1","3","end_of_study_questions_ifirst","intentionality","0","0","0","0","0","0","a few","1","6621","0"
"071218","17:02:11","920738427","795809044","4.0.10.0","1","4","end_of_study_questions_ifirst","unintentionality","0","0","0","0","0","0","less than half","1","8782","0"
"071218","17:02:11","920738427","795809044","4.0.10.0","1","5","end_of_study_questions_ifirst","self_exclusion_1","0","0","0","0","0","0","Yes, use my data","1","8491","0"
"071218","17:02:11","920738427","795809044","4.0.10.0","1","5","end_of_study_questions_ifirst","self_exclusion_1other","0","0","0","0","0","0","","1","8491","0"
"071218","10:01:38","200237172","99082660","4.0.10.0","1","1","end_of_study_questions_ifirst","awareness","0","0","0","0","0","0","about half","1","100747","0"
"071218","10:01:38","200237172","99082660","4.0.10.0","1","2","end_of_study_questions_ifirst","influence_general","0","0","0","0","0","0","about half","1","7620","0"
"071218","10:01:38","200237172","99082660","4.0.10.0","1","3","end_of_study_questions_ifirst","intentionality","0","0","0","0","0","0","most","1","14999","0"
"071218","10:01:38","200237172","99082660","4.0.10.0","1","4","end_of_study_questions_ifirst","unintentionality","0","0","0","0","0","0","less than half","1","8471","0"
"071218","10:01:38","200237172","99082660","4.0.10.0","1","5","end_of_study_questions_ifirst","self_exclusion_1","0","0","0","0","0","0","Yes, use my data","1","12336","0"
"071218","10:01:38","200237172","99082660","4.0.10.0","1","5","end_of_study_questions_ifirst","self_exclusion_1other","0","0","0","0","0","0","","1","12336","0"
"071218","12:03:46","113589497","602920235","4.0.10.0","1","1","end_of_study_questions_ufirst","awareness","0","0","0","0","0","0","about half","1","14013","0"
"071218","12:03:46","113589497","602920235","4.0.10.0","1","2","end_of_study_questions_ufirst","influence_general","0","0","0","0","0","0","a few","1","10967","0"
"071218","12:03:46","113589497","602920235","4.0.10.0","1","3","end_of_study_questions_ufirst","unintentionality","0","0","0","0","0","0","less than half","1","11521","0"
"071218","12:03:46","113589497","602920235","4.0.10.0","1","4","end_of_study_questions_ufirst","intentionality","0","0","0","0","0","0","none","1","7119","0"
"071218","12:03:46","113589497","602920235","4.0.10.0","1","5","end_of_study_questions_ufirst","self_exclusion_1","0","0","0","0","0","0","Yes, use my data","1","7671","0"
"071218","12:03:46","113589497","602920235","4.0.10.0","1","5","end_of_study_questions_ufirst","self_exclusion_1other","0","0","0","0","0","0","","1","7671","0"
"071218","09:03:46","843963319","719033942","4.0.10.0","1","1","end_of_study_questions_ifirst","awareness","0","0","0","0","0","0","about half","1","40909","0"
"071218","09:03:46","843963319","719033942","4.0.10.0","1","2","end_of_study_questions_ifirst","influence_general","0","0","0","0","0","0","less than half","1","10658","0"
"071218","09:03:46","843963319","719033942","4.0.10.0","1","3","end_of_study_questions_ifirst","intentionality","0","0","0","0","0","0","a few","1","6487","0"
"071218","09:03:46","843963319","719033942","4.0.10.0","1","4","end_of_study_questions_ifirst","unintentionality","0","0","0","0","0","0","more than half","1","14181","0"
"071218","09:03:46","843963319","719033942","4.0.10.0","1","5","end_of_study_questions_ifirst","self_exclusion_1","0","0","0","0","0","0","Yes, use my data","1","9094","0"
"071218","09:03:46","843963319","719033942","4.0.10.0","1","5","end_of_study_questions_ifirst","self_exclusion_1other","0","0","0","0","0","0","","1","9094","0"
"071218","11:04:56","849050083","716811565","4.0.10.0","1","1","end_of_study_questions_ufirst","awareness","0","0","0","0","0","0","all","1","28699","0"
"071218","11:04:56","849050083","716811565","4.0.10.0","1","2","end_of_study_questions_ufirst","influence_general","0","0","0","0","0","0","a few","1","9981","0"
"071218","11:04:56","849050083","716811565","4.0.10.0","1","3","end_of_study_questions_ufirst","unintentionality","0","0","0","0","0","0","less than half","1","6918","0"
"071218","11:04:56","849050083","716811565","4.0.10.0","1","4","end_of_study_questions_ufirst","intentionality","0","0","0","0","0","0","none","1","6880","0"
"071218","11:04:56","849050083","716811565","4.0.10.0","1","5","end_of_study_questions_ufirst","self_exclusion_1","0","0","0","0","0","0","Yes, use my data","1","16399","0"
"071218","11:04:56","849050083","716811565","4.0.10.0","1","5","end_of_study_questions_ufirst","self_exclusion_1other","0","0","0","0","0","0","","1","16399","0"
"071218","12:05:06","394362642","261248365","4.0.10.0","1","1","end_of_study_questions_ufirst","awareness","0","0","0","0","0","0","most","1","27513","0"
"071218","12:05:06","394362642","261248365","4.0.10.0","1","2","end_of_study_questions_ufirst","influence_general","0","0","0","0","0","0","about half","1","6439","0"
"071218","12:05:06","394362642","261248365","4.0.10.0","1","3","end_of_study_questions_ufirst","unintentionality","0","0","0","0","0","0","about half","1","6718","0"
"071218","12:05:06","394362642","261248365","4.0.10.0","1","4","end_of_study_questions_ufirst","intentionality","0","0","0","0","0","0","a few","1","16211","0"
"071218","12:05:06","394362642","261248365","4.0.10.0","1","5","end_of_study_questions_ufirst","self_exclusion_1","0","0","0","0","0","0","Yes, use my data","1","9976","0"
"071218","12:05:06","394362642","261248365","4.0.10.0","1","5","end_of_study_questions_ufirst","self_exclusion_1other","0","0","0","0","0","0","","1","9976","0"
"071218","12:06:57","253549635","968375333","4.0.10.0","1","1","end_of_study_questions_ufirst","awareness","0","0","0","0","0","0","all","1","15269","0"
"071218","12:06:57","253549635","968375333","4.0.10.0","1","2","end_of_study_questions_ufirst","influence_general","0","0","0","0","0","0","more than half","1","4697","0"
"071218","12:06:57","253549635","968375333","4.0.10.0","1","3","end_of_study_questions_ufirst","unintentionality","0","0","0","0","0","0","most","1","4496","0"
"071218","12:06:57","253549635","968375333","4.0.10.0","1","4","end_of_study_questions_ufirst","intentionality","0","0","0","0","0","0","most","1","7149","0"
"071218","12:06:57","253549635","968375333","4.0.10.0","1","5","end_of_study_questions_ufirst","self_exclusion_1","0","0","0","0","0","0","Yes, use my data","1","4546","0"
"071218","12:06:57","253549635","968375333","4.0.10.0","1","5","end_of_study_questions_ufirst","self_exclusion_1other","0","0","0","0","0","0","","1","4546","0"
