"date","time","group","subject","build","blocknum","trialnum","blockcode","trialcode","pretrialpause","posttrialpause","windowcenter","trialduration","trialtimeout","blocktimeout","response","correct","latency","inwindow"
"062320","13:34:33","295730169","987281493","4.0.10.0","1","1","demographics","ProlificCode","0","0","0","0","0","0","ssss","1","1876","0"
"062320","13:34:33","295730169","987281493","4.0.10.0","1","2","demographics","age","0","0","0","0","0","0","ss","1","987","0"
"062320","13:34:33","295730169","987281493","4.0.10.0","1","3","demographics","gender","0","0","0","0","0","0","ss","1","714","0"
"062320","12:46:56","885483656","677932533","4.0.10.0","1","1","demographics","ProlificCode","0","0","0","0","0","0","5e58436ebdccf5057ddd9190","1","15950","0"
"062320","12:46:56","885483656","677932533","4.0.10.0","1","2","demographics","age","0","0","0","0","0","0","37","1","3503","0"
"062320","12:46:56","885483656","677932533","4.0.10.0","1","3","demographics","gender","0","0","0","0","0","0","Female","1","6554","0"
"062320","12:49:01","909960120","379779100","4.0.10.0","1","1","demographics","ProlificCode","0","0","0","0","0","0","5edd2abbfba00709e771fedb","1","15648","0"
"062320","12:49:01","909960120","379779100","4.0.10.0","1","2","demographics","age","0","0","0","0","0","0","18","1","3240","0"
"062320","12:49:01","909960120","379779100","4.0.10.0","1","3","demographics","gender","0","0","0","0","0","0","Male","1","3220","0"
"062320","12:49:09","686848922","602610803","4.0.10.0","1","1","demographics","ProlificCode","0","0","0","0","0","0","5eac5e0a840c270c55e8af20","1","108146","0"
"062320","12:49:09","686848922","602610803","4.0.10.0","1","2","demographics","age","0","0","0","0","0","0","31","1","8794","0"
"062320","12:49:09","686848922","602610803","4.0.10.0","1","3","demographics","gender","0","0","0","0","0","0","female","1","6992","0"
"062320","12:51:13","438351761","292271681","4.0.10.0","1","1","demographics","ProlificCode","0","0","0","0","0","0","5e1a00dbcea95b281960cf25","1","4936","0"
"062320","12:51:13","438351761","292271681","4.0.10.0","1","2","demographics","age","0","0","0","0","0","0","29","1","5429","0"
"062320","12:51:13","438351761","292271681","4.0.10.0","1","3","demographics","gender","0","0","0","0","0","0","male","1","3890","0"
"062320","12:55:27","350592253","875811662","4.0.10.0","1","1","demographics","ProlificCode","0","0","0","0","0","0","5e069e50451be5066d6e12a4","1","5759","0"
"062320","12:55:27","350592253","875811662","4.0.10.0","1","2","demographics","age","0","0","0","0","0","0","48","1","3517","0"
"062320","12:55:27","350592253","875811662","4.0.10.0","1","3","demographics","gender","0","0","0","0","0","0","female","1","6323","0"
"062320","12:56:40","350592253","875811662","4.0.10.0","1","1","demographics","ProlificCode","0","0","0","0","0","0","5e069e50451be5066d6e12a4","1","4450","0"
"062320","12:56:40","350592253","875811662","4.0.10.0","1","2","demographics","age","0","0","0","0","0","0","48","1","4083","0"
"062320","12:56:40","350592253","875811662","4.0.10.0","1","3","demographics","gender","0","0","0","0","0","0","female","1","5931","0"
"062320","12:56:42","87061511","950691993","4.0.10.0","1","1","demographics","ProlificCode","0","0","0","0","0","0","5d66c1382d1a18000170759b","1","7657","0"
"062320","12:56:42","87061511","950691993","4.0.10.0","1","2","demographics","age","0","0","0","0","0","0","25","1","4153","0"
"062320","12:56:42","87061511","950691993","4.0.10.0","1","3","demographics","gender","0","0","0","0","0","0","Female ","1","5890","0"
"062320","12:57:32","702644043","662585569","4.0.10.0","1","1","demographics","ProlificCode","0","0","0","0","0","0","5ee4aab1232e9d1b4d791bae","1","4471","0"
"062320","12:57:32","702644043","662585569","4.0.10.0","1","2","demographics","age","0","0","0","0","0","0","40","1","3589","0"
"062320","12:57:32","702644043","662585569","4.0.10.0","1","3","demographics","gender","0","0","0","0","0","0","Male","1","3610","0"
"062320","12:57:26","501057164","30040446","4.0.10.0","1","1","demographics","ProlificCode","0","0","0","0","0","0","5ed53e5c9f448a0ad3c648b5","1","84974","0"
"062320","12:57:26","501057164","30040446","4.0.10.0","1","2","demographics","age","0","0","0","0","0","0","21","1","2820","0"
"062320","12:57:26","501057164","30040446","4.0.10.0","1","3","demographics","gender","0","0","0","0","0","0","Female","1","4237","0"
"062320","12:59:11","742805539","622424072","4.0.10.0","1","1","demographics","ProlificCode","0","0","0","0","0","0","5ed00b67157bd20c24f3fc51","1","12904","0"
"062320","12:59:11","742805539","622424072","4.0.10.0","1","2","demographics","age","0","0","0","0","0","0","21","1","1731","0"
"062320","12:59:11","742805539","622424072","4.0.10.0","1","3","demographics","gender","0","0","0","0","0","0","Male","1","2880","0"
"062320","12:59:30","66560780","885886673","4.0.10.0","1","1","demographics","ProlificCode","0","0","0","0","0","0","5ea6f118ffcc05082764a8d4","1","7496","0"
"062320","12:59:30","66560780","885886673","4.0.10.0","1","2","demographics","age","0","0","0","0","0","0","59","1","4201","0"
"062320","12:59:30","66560780","885886673","4.0.10.0","1","3","demographics","gender","0","0","0","0","0","0","male","1","4050","0"
"062320","13:00:01","421931068","58776875","4.0.10.0","1","1","demographics","ProlificCode","0","0","0","0","0","0","5ea95f10a88a36048655b15f","1","43800","0"
"062320","13:00:01","421931068","58776875","4.0.10.0","1","2","demographics","age","0","0","0","0","0","0","20","1","5544","0"
"062320","13:00:01","421931068","58776875","4.0.10.0","1","3","demographics","gender","0","0","0","0","0","0","male","1","3858","0"
"062320","13:03:20","462297499","352663511","4.0.10.0","1","1","demographics","ProlificCode","0","0","0","0","0","0","5eb96018edd70803c216717c","1","25571","0"
"062320","13:03:20","462297499","352663511","4.0.10.0","1","2","demographics","age","0","0","0","0","0","0","32","1","2481","0"
"062320","13:03:20","462297499","352663511","4.0.10.0","1","3","demographics","gender","0","0","0","0","0","0","Female","1","3409","0"
"062320","13:04:47","86423817","279209342","4.0.10.0","1","1","demographics","ProlificCode","0","0","0","0","0","0","5e330b32b5cfc82d828e9830","1","16121","0"
"062320","13:04:47","86423817","279209342","4.0.10.0","1","2","demographics","age","0","0","0","0","0","0","22","1","3166","0"
"062320","13:04:47","86423817","279209342","4.0.10.0","1","3","demographics","gender","0","0","0","0","0","0","Female","1","2439","0"
"062320","21:36:46","260200656","743975716","4.0.10.0","1","1","demographics","ProlificCode","0","0","0","0","0","0","5eb3c0005275541b1a504189","1","18927","0"
"062320","21:36:46","260200656","743975716","4.0.10.0","1","2","demographics","age","0","0","0","0","0","0","37","1","3363","0"
"062320","21:36:46","260200656","743975716","4.0.10.0","1","3","demographics","gender","0","0","0","0","0","0","male","1","5675","0"
"062320","22:08:01","545990631","111750778","4.0.10.0","1","1","demographics","ProlificCode","0","0","0","0","0","0","5ec37a9325162c01e2c1d75a","1","119702","0"
"062320","22:08:01","545990631","111750778","4.0.10.0","1","2","demographics","age","0","0","0","0","0","0","24","1","2799","0"
"062320","22:08:01","545990631","111750778","4.0.10.0","1","3","demographics","gender","0","0","0","0","0","0","Male","1","4037","0"
"062320","13:10:44","75233825","179048333","4.0.10.0","1","1","demographics","ProlificCode","0","0","0","0","0","0","5e50e67aa7e1b8112028a391","1","6087","0"
"062320","13:10:44","75233825","179048333","4.0.10.0","1","2","demographics","age","0","0","0","0","0","0","34","1","4817","0"
"062320","13:10:44","75233825","179048333","4.0.10.0","1","3","demographics","gender","0","0","0","0","0","0","female","1","4558","0"
"062320","13:11:24","771184092","770223978","4.0.10.0","1","1","demographics","ProlificCode","0","0","0","0","0","0","5e836067eabed908a2033187","1","11413","0"
"062320","13:11:24","771184092","770223978","4.0.10.0","1","2","demographics","age","0","0","0","0","0","0","29","1","3719","0"
"062320","13:11:24","771184092","770223978","4.0.10.0","1","3","demographics","gender","0","0","0","0","0","0","Male","1","4676","0"
"062320","06:11:54","77487590","653135854","4.0.10.0","1","1","demographics","ProlificCode","0","0","0","0","0","0","5e8306b7a09eb40124aa9e3b","1","9239","0"
"062320","06:11:54","77487590","653135854","4.0.10.0","1","2","demographics","age","0","0","0","0","0","0","21","1","3241","0"
"062320","06:11:54","77487590","653135854","4.0.10.0","1","3","demographics","gender","0","0","0","0","0","0","female","1","4573","0"
"062320","13:11:52","847054446","895428053","4.0.10.0","1","1","demographics","ProlificCode","0","0","0","0","0","0","5ed97291fac0cc510c9bb3f2","1","43147","0"
"062320","13:11:52","847054446","895428053","4.0.10.0","1","2","demographics","age","0","0","0","0","0","0","25","1","4301","0"
"062320","13:11:52","847054446","895428053","4.0.10.0","1","3","demographics","gender","0","0","0","0","0","0","Female","1","4515","0"
"062320","13:11:30","871848190","524602883","4.0.10.0","1","1","demographics","ProlificCode","0","0","0","0","0","0","5ed7d4019c64e70c16dc327a","1","131246","0"
"062320","13:11:30","871848190","524602883","4.0.10.0","1","2","demographics","age","0","0","0","0","0","0","25","1","3033","0"
"062320","13:11:30","871848190","524602883","4.0.10.0","1","3","demographics","gender","0","0","0","0","0","0","female","1","3207","0"
"062320","13:15:30","458997385","830058806","4.0.10.0","1","1","demographics","ProlificCode","0","0","0","0","0","0","5edd2d699c9855a147178414","1","10203","0"
"062320","13:15:30","458997385","830058806","4.0.10.0","1","2","demographics","age","0","0","0","0","0","0","18","1","3088","0"
"062320","13:15:30","458997385","830058806","4.0.10.0","1","3","demographics","gender","0","0","0","0","0","0","Male","1","2856","0"
"062320","13:18:01","35400445","907624318","4.0.10.0","1","1","demographics","ProlificCode","0","0","0","0","0","0","5bfc33ed19f26a0001403e5d","1","7851","0"
"062320","13:18:01","35400445","907624318","4.0.10.0","1","2","demographics","age","0","0","0","0","0","0","28","1","2121","0"
"062320","13:18:01","35400445","907624318","4.0.10.0","1","3","demographics","gender","0","0","0","0","0","0","Male","1","2271","0"
"062320","13:16:41","122237785","207164446","4.0.10.0","1","1","demographics","ProlificCode","0","0","0","0","0","0","5c4b9097620ba700010be9f1","1","10615","0"
"062320","13:16:41","122237785","207164446","4.0.10.0","1","2","demographics","age","0","0","0","0","0","0","18","1","5412","0"
"062320","13:16:41","122237785","207164446","4.0.10.0","1","3","demographics","gender","0","0","0","0","0","0","male","1","5993","0"
"062320","13:15:02","293714067","734906809","4.0.10.0","1","1","demographics","ProlificCode","0","0","0","0","0","0","5ce81cddbbc8bd0","1","113330","0"
"062320","13:15:02","293714067","734906809","4.0.10.0","1","2","demographics","age","0","0","0","0","0","0","48","1","4105","0"
"062320","13:15:02","293714067","734906809","4.0.10.0","1","3","demographics","gender","0","0","0","0","0","0","female","1","5699","0"
"062320","13:17:09","925655993","998523380","4.0.10.0","1","1","demographics","ProlificCode","0","0","0","0","0","0","5ee89eb2327fba1a6d0d117c","1","12434","0"
"062320","13:17:09","925655993","998523380","4.0.10.0","1","2","demographics","age","0","0","0","0","0","0","20","1","3243","0"
"062320","13:17:09","925655993","998523380","4.0.10.0","1","3","demographics","gender","0","0","0","0","0","0","Male","1","4610","0"
"062320","22:17:09","664494071","267309216","4.0.10.0","1","1","demographics","ProlificCode","0","0","0","0","0","0","5ed379ed144351319eed165f","1","14119","0"
"062320","22:17:09","664494071","267309216","4.0.10.0","1","2","demographics","age","0","0","0","0","0","0","28 ","1","6145","0"
"062320","22:17:09","664494071","267309216","4.0.10.0","1","3","demographics","gender","0","0","0","0","0","0","Female","1","4847","0"
"062320","13:17:10","905867778","18609736","4.0.10.0","1","1","demographics","ProlificCode","0","0","0","0","0","0","5e89254cb739115c38220fda","1","59052","0"
"062320","13:17:10","905867778","18609736","4.0.10.0","1","2","demographics","age","0","0","0","0","0","0","22","1","3374","0"
"062320","13:17:10","905867778","18609736","4.0.10.0","1","3","demographics","gender","0","0","0","0","0","0","male","1","5718","0"
"062320","13:17:26","573453821","977376946","4.0.10.0","1","1","demographics","ProlificCode","0","0","0","0","0","0","5eed34b83ba31315accaea50","1","60857","0"
"062320","13:17:26","573453821","977376946","4.0.10.0","1","2","demographics","age","0","0","0","0","0","0","25","1","3671","0"
"062320","13:17:26","573453821","977376946","4.0.10.0","1","3","demographics","gender","0","0","0","0","0","0","male","1","3140","0"
"062320","13:18:54","486651729","371631936","4.0.10.0","1","1","demographics","ProlificCode","0","0","0","0","0","0","5e9491b5cb8df52f2614cf66","1","13581","0"
"062320","13:18:54","486651729","371631936","4.0.10.0","1","2","demographics","age","0","0","0","0","0","0","32","1","2257","0"
"062320","13:18:54","486651729","371631936","4.0.10.0","1","3","demographics","gender","0","0","0","0","0","0","female","1","3548","0"
"062320","08:24:31","34175308","424105809","4.0.10.0","1","1","demographics","ProlificCode","0","0","0","0","0","0","5ee3d14537ab2c0a5e344d98","1","17523","0"
"062320","08:24:31","34175308","424105809","4.0.10.0","1","2","demographics","age","0","0","0","0","0","0","24","1","2840","0"
"062320","08:24:31","34175308","424105809","4.0.10.0","1","3","demographics","gender","0","0","0","0","0","0","male","1","4023","0"
"062320","13:26:53","449448526","787702166","4.0.10.0","1","1","demographics","ProlificCode","0","0","0","0","0","0","5eec48a2a0a86044492efa67","1","14696","0"
"062320","13:26:53","449448526","787702166","4.0.10.0","1","2","demographics","age","0","0","0","0","0","0","21","1","3355","0"
"062320","13:26:53","449448526","787702166","4.0.10.0","1","3","demographics","gender","0","0","0","0","0","0","male","1","3779","0"
"062320","13:27:00","910306346","440758896","4.0.10.0","1","1","demographics","ProlificCode","0","0","0","0","0","0","5ee92b5263f35a14af1e","1","55731","0"
"062320","13:27:00","910306346","440758896","4.0.10.0","1","2","demographics","age","0","0","0","0","0","0","34","1","5473","0"
"062320","13:27:00","910306346","440758896","4.0.10.0","1","3","demographics","gender","0","0","0","0","0","0","male","1","3090","0"
"062320","13:27:56","607722580","157964784","4.0.10.0","1","1","demographics","ProlificCode","0","0","0","0","0","0","5db02d87ed331a00134","1","38122","0"
"062320","13:27:56","607722580","157964784","4.0.10.0","1","2","demographics","age","0","0","0","0","0","0","21","1","2083","0"
"062320","13:27:56","607722580","157964784","4.0.10.0","1","3","demographics","gender","0","0","0","0","0","0","Female","1","4089","0"
"062320","13:28:44","775538635","578826315","4.0.10.0","1","1","demographics","ProlificCode","0","0","0","0","0","0","5ecac697f9abb5240d3468d4","1","19627","0"
"062320","13:28:44","775538635","578826315","4.0.10.0","1","2","demographics","age","0","0","0","0","0","0","23","1","2548","0"
"062320","13:28:44","775538635","578826315","4.0.10.0","1","3","demographics","gender","0","0","0","0","0","0","female","1","3630","0"
"062320","13:28:19","672760453","332188263","4.0.10.0","1","1","demographics","ProlificCode","0","0","0","0","0","0","5ed931982fb618499fb90bc6","1","39876","0"
"062320","13:28:19","672760453","332188263","4.0.10.0","1","2","demographics","age","0","0","0","0","0","0","18 ","1","7095","0"
"062320","13:28:19","672760453","332188263","4.0.10.0","1","3","demographics","gender","0","0","0","0","0","0","female","1","5645","0"
"062320","13:30:41","952419058","830621619","4.0.10.0","1","1","demographics","ProlificCode","0","0","0","0","0","0","5edf78f2d0fe7f22b2f5dff0","1","4153","0"
"062320","13:30:41","952419058","830621619","4.0.10.0","1","2","demographics","age","0","0","0","0","0","0","34","1","2724","0"
"062320","13:30:41","952419058","830621619","4.0.10.0","1","3","demographics","gender","0","0","0","0","0","0","female","1","6145","0"
"062320","13:30:12","557343549","288808590","4.0.10.0","1","1","demographics","ProlificCode","0","0","0","0","0","0","5dbe36c2df0b4834bec","1","83740","0"
"062320","13:30:12","557343549","288808590","4.0.10.0","1","2","demographics","age","0","0","0","0","0","0","53","1","4727","0"
"062320","13:30:12","557343549","288808590","4.0.10.0","1","3","demographics","gender","0","0","0","0","0","0","female","1","9137","0"
"062320","13:33:27","727119931","823710832","4.0.10.0","1","1","demographics","ProlificCode","0","0","0","0","0","0","5de8576d4f21b47d008d37c7","1","24629","0"
"062320","13:33:27","727119931","823710832","4.0.10.0","1","2","demographics","age","0","0","0","0","0","0","22","1","4383","0"
"062320","13:33:27","727119931","823710832","4.0.10.0","1","3","demographics","gender","0","0","0","0","0","0","Male","1","8957","0"
"062320","13:39:10","260309945","445201108","4.0.10.0","1","1","demographics","ProlificCode","0","0","0","0","0","0","5edcea8b73beeb9b0a9d18c9","1","23900","0"
"062320","13:39:10","260309945","445201108","4.0.10.0","1","2","demographics","age","0","0","0","0","0","0","29","1","4143","0"
"062320","13:39:10","260309945","445201108","4.0.10.0","1","3","demographics","gender","0","0","0","0","0","0","Female","1","5085","0"
"062320","14:08:08","932642712","211766403","4.0.10.0","1","1","demographics","ProlificCode","0","0","0","0","0","0","5ee31361fec5428685906ff3 ","1","23393","0"
"062320","14:08:08","932642712","211766403","4.0.10.0","1","2","demographics","age","0","0","0","0","0","0","46","1","5563","0"
"062320","14:08:08","932642712","211766403","4.0.10.0","1","3","demographics","gender","0","0","0","0","0","0","male ","1","13177","0"
"062320","14:09:22","708290953","657098605","4.0.10.0","1","1","demographics","ProlificCode","0","0","0","0","0","0","5edb5fd0cee6c17e7069af09","1","14770","0"
"062320","14:09:22","708290953","657098605","4.0.10.0","1","2","demographics","age","0","0","0","0","0","0","40","1","3293","0"
"062320","14:09:22","708290953","657098605","4.0.10.0","1","3","demographics","gender","0","0","0","0","0","0","male","1","3875","0"
"062320","14:11:21","411104617","795967173","4.0.10.0","1","1","demographics","ProlificCode","0","0","0","0","0","0","5eea99515141b61b55dd35da","1","64700","0"
"062320","14:11:21","411104617","795967173","4.0.10.0","1","2","demographics","age","0","0","0","0","0","0","30","1","4044","0"
"062320","14:11:21","411104617","795967173","4.0.10.0","1","3","demographics","gender","0","0","0","0","0","0","female","1","4815","0"
"062320","14:12:51","537649154","863040077","4.0.10.0","1","1","demographics","ProlificCode","0","0","0","0","0","0","5ebbe8e3c1aef8016cc7","1","45144","0"
"062320","14:12:51","537649154","863040077","4.0.10.0","1","2","demographics","age","0","0","0","0","0","0","37","1","3172","0"
"062320","14:12:51","537649154","863040077","4.0.10.0","1","3","demographics","gender","0","0","0","0","0","0","female","1","4575","0"
"062320","14:15:59","798516192","601108308","4.0.10.0","1","1","demographics","ProlificCode","0","0","0","0","0","0","5edea5aac97eaa13b4887c04","1","4186","0"
"062320","14:15:59","798516192","601108308","4.0.10.0","1","2","demographics","age","0","0","0","0","0","0","21","1","3142","0"
"062320","14:15:59","798516192","601108308","4.0.10.0","1","3","demographics","gender","0","0","0","0","0","0","male","1","3711","0"
"062320","14:16:12","302193268","262350518","4.0.10.0","1","1","demographics","ProlificCode","0","0","0","0","0","0","5ece259aa4ded10009c65c73","1","10291","0"
"062320","14:16:12","302193268","262350518","4.0.10.0","1","2","demographics","age","0","0","0","0","0","0","41","1","6047","0"
"062320","14:16:12","302193268","262350518","4.0.10.0","1","3","demographics","gender","0","0","0","0","0","0","male","1","6252","0"
"062320","14:16:31","620689053","724651425","4.0.10.0","1","1","demographics","ProlificCode","0","0","0","0","0","0","5ea7f0792a8967000bda73f0","1","16991","0"
"062320","14:16:31","620689053","724651425","4.0.10.0","1","2","demographics","age","0","0","0","0","0","0","61","1","3300","0"
"062320","14:16:31","620689053","724651425","4.0.10.0","1","3","demographics","gender","0","0","0","0","0","0","female","1","4958","0"
"062320","09:18:11","34283744","262832376","4.0.10.0","1","1","demographics","ProlificCode","0","0","0","0","0","0","5ed76cdd8ec16e030e763b66","1","49446","0"
"062320","09:18:11","34283744","262832376","4.0.10.0","1","2","demographics","age","0","0","0","0","0","0","34","1","3691","0"
"062320","09:18:11","34283744","262832376","4.0.10.0","1","3","demographics","gender","0","0","0","0","0","0","Male","1","4155","0"
"062320","14:19:29","683021420","662913085","4.0.10.0","1","1","demographics","ProlificCode","0","0","0","0","0","0","5ed66b4716a53408d5cc7448","1","51234","0"
"062320","14:19:29","683021420","662913085","4.0.10.0","1","2","demographics","age","0","0","0","0","0","0","34","1","3125","0"
"062320","14:19:29","683021420","662913085","4.0.10.0","1","3","demographics","gender","0","0","0","0","0","0","Female","1","4877","0"
"062320","14:20:59","181462866","533952090","4.0.10.0","1","1","demographics","ProlificCode","0","0","0","0","0","0","5ee0cfe5bbc0bb06a58e9984","1","23293","0"
"062320","14:20:59","181462866","533952090","4.0.10.0","1","2","demographics","age","0","0","0","0","0","0","23","1","3971","0"
"062320","14:20:59","181462866","533952090","4.0.10.0","1","3","demographics","gender","0","0","0","0","0","0","male","1","4750","0"
"062320","14:21:13","798388720","59552071","4.0.10.0","1","1","demographics","ProlificCode","0","0","0","0","0","0","5d08c0f722302800197acf43","1","26212","0"
"062320","14:21:13","798388720","59552071","4.0.10.0","1","2","demographics","age","0","0","0","0","0","0","35","1","4002","0"
"062320","14:21:13","798388720","59552071","4.0.10.0","1","3","demographics","gender","0","0","0","0","0","0","Male","1","2544","0"
"062320","09:21:51","34283744","262832376","4.0.10.0","1","1","demographics","ProlificCode","0","0","0","0","0","0","5ed76cdd8ec16e030e763b66","1","3949","0"
"062320","09:21:51","34283744","262832376","4.0.10.0","1","2","demographics","age","0","0","0","0","0","0","34","1","3934","0"
"062320","09:21:51","34283744","262832376","4.0.10.0","1","3","demographics","gender","0","0","0","0","0","0","Male","1","4435","0"
"062320","09:20:15","713280754","84454678","4.0.10.0","1","1","demographics","ProlificCode","0","0","0","0","0","0","5ea813d4e0e0f101dd2a67e4","1","91337","0"
"062320","09:20:15","713280754","84454678","4.0.10.0","1","2","demographics","age","0","0","0","0","0","0","24","1","6851","0"
"062320","09:20:15","713280754","84454678","4.0.10.0","1","3","demographics","gender","0","0","0","0","0","0","Male","1","8075","0"
"062320","07:23:00","328755661","972869627","4.0.10.0","1","1","demographics","ProlificCode","0","0","0","0","0","0","5e226aee28b7b6533126bcee","1","4374","0"
"062320","07:23:00","328755661","972869627","4.0.10.0","1","2","demographics","age","0","0","0","0","0","0","20","1","5826","0"
"062320","07:23:00","328755661","972869627","4.0.10.0","1","3","demographics","gender","0","0","0","0","0","0","female","1","2831","0"
"062320","14:25:20","963668350","251359725","4.0.10.0","1","1","demographics","ProlificCode","0","0","0","0","0","0","5e7dba4f1d6961436474c8f2","1","248733","0"
"062320","14:25:20","963668350","251359725","4.0.10.0","1","2","demographics","age","0","0","0","0","0","0","36","1","2764","0"
"062320","14:25:20","963668350","251359725","4.0.10.0","1","3","demographics","gender","0","0","0","0","0","0","Male","1","4096","0"
"062320","14:35:15","792271968","846570303","4.0.10.0","1","1","demographics","ProlificCode","0","0","0","0","0","0","","1","6748","0"
"062320","15:02:37","995943788","86683160","4.0.10.0","1","1","demographics","ProlificCode","0","0","0","0","0","0","599a9252bbe848000179676e","1","8741","0"
"062320","15:02:37","995943788","86683160","4.0.10.0","1","2","demographics","age","0","0","0","0","0","0","54","1","3860","0"
"062320","15:02:37","995943788","86683160","4.0.10.0","1","3","demographics","gender","0","0","0","0","0","0","FEMALE","1","7835","0"
"062320","15:07:13","407565470","575519375","4.0.10.0","1","1","demographics","ProlificCode","0","0","0","0","0","0","5eedf493cc3e35000b0","1","45372","0"
"062320","15:07:13","407565470","575519375","4.0.10.0","1","2","demographics","age","0","0","0","0","0","0","28","1","3568","0"
"062320","15:07:13","407565470","575519375","4.0.10.0","1","3","demographics","gender","0","0","0","0","0","0","female","1","3224","0"
