"date","time","group","subject","build","blocknum","trialnum","blockcode","trialcode","pretrialpause","posttrialpause","trialduration","trialtimeout","response","correct","latency"
"092320","00:59:41","151433662","653853650","5.0.14.0","1","1","demographics","ProlificCode","0","0","0","0","","1","950"
"092320","11:10:16","629997199","907624617","5.0.14.0","1","1","demographics","ProlificCode","0","0","0","0","5cd39dfe36ace300171fb622","1","6509"
"092320","11:10:16","629997199","907624617","5.0.14.0","1","2","demographics","age","0","0","0","0","24","1","4258"
"092320","11:10:16","629997199","907624617","5.0.14.0","1","3","demographics","gender","0","0","0","0","Female","1","8945"
"092220","20:16:37","829305619","176942399","5.0.14.0","1","1","demographics","ProlificCode","0","0","0","0","5ef95ae31fe8266faada053d","1","12083"
"092220","20:16:37","829305619","176942399","5.0.14.0","1","2","demographics","age","0","0","0","0","27","1","2720"
"092220","20:16:37","829305619","176942399","5.0.14.0","1","3","demographics","gender","0","0","0","0","Female","1","4234"
"092220","16:18:24","503957224","781584642","5.0.14.0","1","1","demographics","ProlificCode","0","0","0","0","5f3c4372d64ff120268a0b0b","1","13850"
"092220","16:18:24","503957224","781584642","5.0.14.0","1","2","demographics","age","0","0","0","0","20 ","1","3600"
"092220","16:18:24","503957224","781584642","5.0.14.0","1","3","demographics","gender","0","0","0","0","Male","1","4032"
"092320","01:19:24","518546841","796174258","5.0.14.0","1","1","demographics","ProlificCode","0","0","0","0","5f483afd936e951d89408736","1","22859"
"092320","01:19:24","518546841","796174258","5.0.14.0","1","2","demographics","age","0","0","0","0","24","1","3407"
"092320","01:19:24","518546841","796174258","5.0.14.0","1","3","demographics","gender","0","0","0","0","Female","1","4207"
"092220","19:21:27","269830456","853329392","5.0.14.0","1","1","demographics","ProlificCode","0","0","0","0","5e6d403dfc5eff000b8329a5","1","8819"
"092220","19:21:27","269830456","853329392","5.0.14.0","1","2","demographics","age","0","0","0","0","19","1","2888"
"092220","19:21:27","269830456","853329392","5.0.14.0","1","3","demographics","gender","0","0","0","0","Female","1","5011"
"092320","01:21:47","210376660","92405220","5.0.14.0","1","1","demographics","ProlificCode","0","0","0","0","5f4b9f3dc541cc764fe5c0c7","1","12267"
"092320","01:21:47","210376660","92405220","5.0.14.0","1","2","demographics","age","0","0","0","0","24","1","4201"
"092320","01:21:47","210376660","92405220","5.0.14.0","1","3","demographics","gender","0","0","0","0","male","1","7460"
"092320","00:22:53","472810678","905519443","5.0.14.0","1","1","demographics","ProlificCode","0","0","0","0","5ef73a669e8796450260392f","1","17587"
"092320","00:22:53","472810678","905519443","5.0.14.0","1","2","demographics","age","0","0","0","0","19","1","4073"
"092320","00:22:53","472810678","905519443","5.0.14.0","1","3","demographics","gender","0","0","0","0","female","1","5086"
"092320","00:23:24","353139981","5470440","5.0.14.0","1","1","demographics","ProlificCode","0","0","0","0","5e1f0f5628b7b62348f7ba3e","1","21684"
"092320","00:23:24","353139981","5470440","5.0.14.0","1","2","demographics","age","0","0","0","0","22","1","3579"
"092320","00:23:24","353139981","5470440","5.0.14.0","1","3","demographics","gender","0","0","0","0","female","1","4412"
"092220","19:23:08","618414509","356696678","5.0.14.0","1","1","demographics","ProlificCode","0","0","0","0","5f3dd59e68b4c42104c98cd9","1","45544"
"092220","19:23:08","618414509","356696678","5.0.14.0","1","2","demographics","age","0","0","0","0","25","1","9466"
"092220","19:23:08","618414509","356696678","5.0.14.0","1","3","demographics","gender","0","0","0","0","Female","1","5055"
"092320","11:24:09","276129911","536938680","5.0.14.0","1","1","demographics","ProlificCode","0","0","0","0","5f0446dd71b11967ef18582b","1","20241"
"092320","11:24:09","276129911","536938680","5.0.14.0","1","2","demographics","age","0","0","0","0","57","1","3376"
"092320","11:24:09","276129911","536938680","5.0.14.0","1","3","demographics","gender","0","0","0","0","Male","1","6208"
"092320","00:24:53","346546144","778956781","5.0.14.0","1","1","demographics","ProlificCode","0","0","0","0","5eecd2e3a38fd009dd9d1f3d","1","5438"
"092320","00:24:53","346546144","778956781","5.0.14.0","1","2","demographics","age","0","0","0","0","31","1","2688"
"092320","00:24:53","346546144","778956781","5.0.14.0","1","3","demographics","gender","0","0","0","0","Male","1","4039"
"092320","08:56:18","761376462","268701990","5.0.14.0","1","1","demographics","ProlificCode","0","0","0","0","5f2d04856dbcfd245baaed51","1","7779"
"092320","08:56:18","761376462","268701990","5.0.14.0","1","2","demographics","age","0","0","0","0","25","1","4505"
"092320","08:56:18","761376462","268701990","5.0.14.0","1","3","demographics","gender","0","0","0","0","F","1","2474"
"092320","11:26:53","567534600","183553421","5.0.14.0","1","1","demographics","ProlificCode","0","0","0","0","5d403ca7738a5b001995f974","1","15592"
"092320","11:26:53","567534600","183553421","5.0.14.0","1","2","demographics","age","0","0","0","0","35","1","4211"
"092320","11:26:53","567534600","183553421","5.0.14.0","1","3","demographics","gender","0","0","0","0","Male","1","3284"
"092320","00:26:29","738923732","246249259","5.0.14.0","1","1","demographics","ProlificCode","0","0","0","0","592030ea0179df0001b1409d","1","5460"
"092320","00:26:29","738923732","246249259","5.0.14.0","1","2","demographics","age","0","0","0","0","29","1","42301"
"092320","00:26:29","738923732","246249259","5.0.14.0","1","3","demographics","gender","0","0","0","0","Female","1","7143"
"092320","11:27:18","73533051","582117110","5.0.14.0","1","1","demographics","ProlificCode","0","0","0","0","5b91dced1dda7800018d0a5b","1","5581"
"092320","11:27:18","73533051","582117110","5.0.14.0","1","2","demographics","age","0","0","0","0","44","1","2485"
"092320","11:27:18","73533051","582117110","5.0.14.0","1","3","demographics","gender","0","0","0","0","male","1","4879"
"092320","00:27:52","202926103","710251621","5.0.14.0","1","1","demographics","ProlificCode","0","0","0","0","5b6d98d55d764f000151a842","1","9877"
"092320","00:27:52","202926103","710251621","5.0.14.0","1","2","demographics","age","0","0","0","0","23","1","3041"
"092320","00:27:52","202926103","710251621","5.0.14.0","1","3","demographics","gender","0","0","0","0","Male","1","4783"
"092220","19:28:56","254166775","761492292","5.0.14.0","1","1","demographics","ProlificCode","0","0","0","0","5ca3f484771e310017543f87","1","20125"
"092220","19:28:56","254166775","761492292","5.0.14.0","1","2","demographics","age","0","0","0","0","38","1","3491"
"092220","19:28:56","254166775","761492292","5.0.14.0","1","3","demographics","gender","0","0","0","0","Female","1","5694"
"092320","00:29:44","880027872","838229850","5.0.14.0","1","1","demographics","ProlificCode","0","0","0","0","5b70ae85bd1fa100017ab163","1","29815"
"092320","00:29:44","880027872","838229850","5.0.14.0","1","2","demographics","age","0","0","0","0","57","1","4055"
"092320","00:29:44","880027872","838229850","5.0.14.0","1","3","demographics","gender","0","0","0","0","female","1","17810"
"092320","01:30:10","431434120","933854106","5.0.14.0","1","1","demographics","ProlificCode","0","0","0","0","5f61b58429b248160a4e2ad7","1","10850"
"092320","01:30:10","431434120","933854106","5.0.14.0","1","2","demographics","age","0","0","0","0","18","1","4310"
"092320","01:30:10","431434120","933854106","5.0.14.0","1","3","demographics","gender","0","0","0","0","Female","1","10263"
"092320","00:30:27","870497344","752525902","5.0.14.0","1","1","demographics","ProlificCode","0","0","0","0","5e88b53ac0a35153e7a35055","1","31139"
"092320","00:30:27","870497344","752525902","5.0.14.0","1","2","demographics","age","0","0","0","0","25","1","3519"
"092320","00:30:27","870497344","752525902","5.0.14.0","1","3","demographics","gender","0","0","0","0","female","1","5503"
"092320","00:31:18","87543663","578959592","5.0.14.0","1","1","demographics","ProlificCode","0","0","0","0","5eb36889e015e31690992713","1","15094"
"092320","00:31:18","87543663","578959592","5.0.14.0","1","2","demographics","age","0","0","0","0","26","1","5477"
"092320","00:31:18","87543663","578959592","5.0.14.0","1","3","demographics","gender","0","0","0","0","female","1","3570"
"092320","00:31:35","764438472","646467030","5.0.14.0","1","1","demographics","ProlificCode","0","0","0","0","5f333aa3b389001536f1df07","1","6793"
"092320","00:31:35","764438472","646467030","5.0.14.0","1","2","demographics","age","0","0","0","0","22","1","2782"
"092320","00:31:35","764438472","646467030","5.0.14.0","1","3","demographics","gender","0","0","0","0","Male","1","4008"
"092320","11:32:56","551744263","899381030","5.0.14.0","1","1","demographics","ProlificCode","0","0","0","0","562b02d19e2b900005006dce","1","7593"
"092320","11:32:56","551744263","899381030","5.0.14.0","1","2","demographics","age","0","0","0","0","32","1","2121"
"092320","11:32:56","551744263","899381030","5.0.14.0","1","3","demographics","gender","0","0","0","0","Male","1","2506"
"092220","19:33:13","915820617","407236554","5.0.14.0","1","1","demographics","ProlificCode","0","0","0","0","5f58579578b8a03bd512b9e6","1","9439"
"092220","19:33:13","915820617","407236554","5.0.14.0","1","2","demographics","age","0","0","0","0","32","1","2770"
"092220","19:33:13","915820617","407236554","5.0.14.0","1","3","demographics","gender","0","0","0","0","male","1","4447"
"092320","11:34:17","3615611","192774234","5.0.14.0","1","1","demographics","ProlificCode","0","0","0","0","5d3658b84f14c3001641516a","1","3507"
"092320","11:34:17","3615611","192774234","5.0.14.0","1","2","demographics","age","0","0","0","0","31","1","1932"
"092320","11:34:17","3615611","192774234","5.0.14.0","1","3","demographics","gender","0","0","0","0","Female","1","3050"
"092220","17:33:50","208261421","409715414","5.0.14.0","1","1","demographics","ProlificCode","0","0","0","0","5d12438803b9c6001797854e","1","16671"
"092220","17:33:50","208261421","409715414","5.0.14.0","1","2","demographics","age","0","0","0","0","21","1","1863"
"092220","17:33:50","208261421","409715414","5.0.14.0","1","3","demographics","gender","0","0","0","0","Male","1","3047"
"092220","19:34:28","86141040","275299664","5.0.14.0","1","1","demographics","ProlificCode","0","0","0","0","5d0f8633c8ca0c00155a49c2","1","3718"
"092220","19:34:28","86141040","275299664","5.0.14.0","1","2","demographics","age","0","0","0","0","33","1","2340"
"092220","19:34:28","86141040","275299664","5.0.14.0","1","3","demographics","gender","0","0","0","0","female","1","4450"
"092320","01:34:44","478109380","358960100","5.0.14.0","1","1","demographics","ProlificCode","0","0","0","0","5f43e46ac4c51868e8fc882a","1","7007"
"092320","01:34:44","478109380","358960100","5.0.14.0","1","2","demographics","age","0","0","0","0","20","1","4521"
"092320","01:34:44","478109380","358960100","5.0.14.0","1","3","demographics","gender","0","0","0","0","male","1","5715"
"092320","11:34:13","708460994","751436846","5.0.14.0","1","1","demographics","ProlificCode","0","0","0","0","","1","58561"
"092220","18:35:41","3218632","581812041","5.0.14.0","1","1","demographics","ProlificCode","0","0","0","0","5f5a3f36ee65f90a9ac3a229","1","6242"
"092220","18:35:41","3218632","581812041","5.0.14.0","1","2","demographics","age","0","0","0","0","23","1","2300"
"092220","18:35:41","3218632","581812041","5.0.14.0","1","3","demographics","gender","0","0","0","0","female","1","6018"
"092320","00:35:48","463663557","275682766","5.0.14.0","1","1","demographics","ProlificCode","0","0","0","0","59dd90f6e75b450001a68dac","1","17519"
"092320","00:35:48","463663557","275682766","5.0.14.0","1","2","demographics","age","0","0","0","0","33","1","4766"
"092320","00:35:48","463663557","275682766","5.0.14.0","1","3","demographics","gender","0","0","0","0","Female","1","5472"
"092220","16:35:42","315252058","893845463","5.0.14.0","1","1","demographics","ProlificCode","0","0","0","0","5e73ad6dfa598204c2d3ed0c","1","12494"
"092220","16:35:42","315252058","893845463","5.0.14.0","1","2","demographics","age","0","0","0","0","19","1","2212"
"092220","16:35:42","315252058","893845463","5.0.14.0","1","3","demographics","gender","0","0","0","0","Male","1","60201"
"092320","00:37:30","724275586","145682176","5.0.14.0","1","1","demographics","ProlificCode","0","0","0","0","5f48068ea08b2128ce23a268","1","4303"
"092320","00:37:30","724275586","145682176","5.0.14.0","1","2","demographics","age","0","0","0","0","23","1","1622"
"092320","00:37:30","724275586","145682176","5.0.14.0","1","3","demographics","gender","0","0","0","0","m","1","1707"
"092320","00:37:42","260326159","876643089","5.0.14.0","1","1","demographics","ProlificCode","0","0","0","0","5f03a1cea147c85d2ed7060e","1","13389"
"092320","00:37:42","260326159","876643089","5.0.14.0","1","2","demographics","age","0","0","0","0","19","1","3412"
"092320","00:37:42","260326159","876643089","5.0.14.0","1","3","demographics","gender","0","0","0","0","male","1","3716"
"092320","00:37:28","782670432","215081082","5.0.14.0","1","1","demographics","ProlificCode","0","0","0","0","5f4eccbf2e6760116e610cd4","1","15474"
"092320","00:37:28","782670432","215081082","5.0.14.0","1","2","demographics","age","0","0","0","0","21","1","14016"
"092320","00:37:28","782670432","215081082","5.0.14.0","1","3","demographics","gender","0","0","0","0","female","1","5673"
"092220","19:37:58","293086866","860676207","5.0.14.0","1","1","demographics","ProlificCode","0","0","0","0","5e87f781c35eb04861671b68","1","37544"
"092220","19:37:58","293086866","860676207","5.0.14.0","1","2","demographics","age","0","0","0","0","24","1","3406"
"092220","19:37:58","293086866","860676207","5.0.14.0","1","3","demographics","gender","0","0","0","0","F","1","3413"
"092220","16:38:20","20562067","527887583","5.0.14.0","1","1","demographics","ProlificCode","0","0","0","0","5d151a5639931e001a77af8d","1","14737"
"092220","16:38:20","20562067","527887583","5.0.14.0","1","2","demographics","age","0","0","0","0","25","1","3268"
"092220","16:38:20","20562067","527887583","5.0.14.0","1","3","demographics","gender","0","0","0","0","Female","1","5873"
"092320","00:38:30","525853425","873490188","5.0.14.0","1","1","demographics","ProlificCode","0","0","0","0","5bec8599fdf8c50001d0d329","1","11778"
"092320","00:38:30","525853425","873490188","5.0.14.0","1","2","demographics","age","0","0","0","0","21","1","2940"
"092320","00:38:30","525853425","873490188","5.0.14.0","1","3","demographics","gender","0","0","0","0","female","1","3829"
"092220","19:38:42","539193959","115350998","5.0.14.0","1","1","demographics","ProlificCode","0","0","0","0","5cfb439f288ca8000116990b","1","11401"
"092220","19:38:42","539193959","115350998","5.0.14.0","1","2","demographics","age","0","0","0","0","24","1","2571"
"092220","19:38:42","539193959","115350998","5.0.14.0","1","3","demographics","gender","0","0","0","0","Female","1","3944"
"092220","18:38:49","492673788","450875768","5.0.14.0","1","1","demographics","ProlificCode","0","0","0","0","5e8fcc73a5de132cc60ebb3b","1","8752"
"092220","18:38:49","492673788","450875768","5.0.14.0","1","2","demographics","age","0","0","0","0","19","1","2894"
"092220","18:38:49","492673788","450875768","5.0.14.0","1","3","demographics","gender","0","0","0","0","Male","1","4300"
"092320","00:39:02","453656345","411858326","5.0.14.0","1","1","demographics","ProlificCode","0","0","0","0","5f06e52b7c150325f9847a91","1","7836"
"092320","00:39:02","453656345","411858326","5.0.14.0","1","2","demographics","age","0","0","0","0","34","1","2284"
"092320","00:39:02","453656345","411858326","5.0.14.0","1","3","demographics","gender","0","0","0","0","Male","1","2461"
"092220","19:39:25","497919910","379948468","5.0.14.0","1","1","demographics","ProlificCode","0","0","0","0","5c389f3df5ebd5000184e3e6","1","4144"
"092220","19:39:25","497919910","379948468","5.0.14.0","1","2","demographics","age","0","0","0","0","31","1","2036"
"092220","19:39:25","497919910","379948468","5.0.14.0","1","3","demographics","gender","0","0","0","0","Male","1","4102"
"092320","00:39:27","512136593","435583601","5.0.14.0","1","1","demographics","ProlificCode","0","0","0","0","5ec565753542425269ee730c","1","19102"
"092320","00:39:27","512136593","435583601","5.0.14.0","1","2","demographics","age","0","0","0","0","20","1","4302"
"092320","00:39:27","512136593","435583601","5.0.14.0","1","3","demographics","gender","0","0","0","0","Female","1","3092"
"092220","17:40:17","849876334","891674350","5.0.14.0","1","1","demographics","ProlificCode","0","0","0","0","5d945ad02d58dc00195ead79","1","12196"
"092220","17:40:17","849876334","891674350","5.0.14.0","1","2","demographics","age","0","0","0","0","29","1","3466"
"092220","17:40:17","849876334","891674350","5.0.14.0","1","3","demographics","gender","0","0","0","0","Male","1","2769"
"092320","00:40:47","722516321","603650495","5.0.14.0","1","1","demographics","ProlificCode","0","0","0","0","56504ecf1b3cda000f544e92","1","10527"
"092320","00:40:47","722516321","603650495","5.0.14.0","1","2","demographics","age","0","0","0","0","20","1","3181"
"092320","00:40:47","722516321","603650495","5.0.14.0","1","3","demographics","gender","0","0","0","0","Male","1","3719"
"092320","00:40:52","276963777","694642661","5.0.14.0","1","1","demographics","ProlificCode","0","0","0","0","5bed3079fa1ac70001baa7ad","1","22488"
"092320","00:40:52","276963777","694642661","5.0.14.0","1","2","demographics","age","0","0","0","0","40","1","4502"
"092320","00:40:52","276963777","694642661","5.0.14.0","1","3","demographics","gender","0","0","0","0","male","1","4141"
"092320","00:41:28","558303011","381795074","5.0.14.0","1","1","demographics","ProlificCode","0","0","0","0","5f2ea8e82858dd237002f340","1","7368"
"092320","00:41:28","558303011","381795074","5.0.14.0","1","2","demographics","age","0","0","0","0","28","1","3605"
"092320","00:41:28","558303011","381795074","5.0.14.0","1","3","demographics","gender","0","0","0","0","Female","1","5059"
"092320","00:41:38","820846165","862644181","5.0.14.0","1","1","demographics","ProlificCode","0","0","0","0","5affe1f4331e8100018f1d45","1","19756"
"092320","00:41:38","820846165","862644181","5.0.14.0","1","2","demographics","age","0","0","0","0","56","1","5026"
"092320","00:41:38","820846165","862644181","5.0.14.0","1","3","demographics","gender","0","0","0","0","female","1","8281"
"092220","17:41:40","680243977","866966218","5.0.14.0","1","1","demographics","ProlificCode","0","0","0","0","5c07046396378a000119561f","1","29501"
"092220","17:41:40","680243977","866966218","5.0.14.0","1","2","demographics","age","0","0","0","0","52","1","8302"
"092220","17:41:40","680243977","866966218","5.0.14.0","1","3","demographics","gender","0","0","0","0","Male","1","5618"
"092220","16:42:09","862452991","430042348","5.0.14.0","1","1","demographics","ProlificCode","0","0","0","0","5f1fb194311f081d7af0b7c2","1","12396"
"092220","16:42:09","862452991","430042348","5.0.14.0","1","2","demographics","age","0","0","0","0","35","1","3947"
"092220","16:42:09","862452991","430042348","5.0.14.0","1","3","demographics","gender","0","0","0","0","Woman","1","7231"
"092320","00:42:14","179015799","907552439","5.0.14.0","1","1","demographics","ProlificCode","0","0","0","0","57b53ad8a18afd00013e0565","1","6330"
"092320","00:42:14","179015799","907552439","5.0.14.0","1","2","demographics","age","0","0","0","0","45","1","7736"
"092320","00:42:14","179015799","907552439","5.0.14.0","1","3","demographics","gender","0","0","0","0","male","1","10312"
"092220","19:42:23","546020946","629123938","5.0.14.0","1","1","demographics","ProlificCode","0","0","0","0","5d9eca6b3155090014a83a82","1","38520"
"092220","19:42:23","546020946","629123938","5.0.14.0","1","2","demographics","age","0","0","0","0","55","1","3209"
"092220","19:42:23","546020946","629123938","5.0.14.0","1","3","demographics","gender","0","0","0","0","Female","1","8212"
"092320","00:43:01","365126559","57616928","5.0.14.0","1","1","demographics","ProlificCode","0","0","0","0","549587e2fdf99b5009f9c0aa","1","3806"
"092320","00:43:01","365126559","57616928","5.0.14.0","1","2","demographics","age","0","0","0","0","39","1","8988"
"092320","00:43:01","365126559","57616928","5.0.14.0","1","3","demographics","gender","0","0","0","0","female","1","7445"
"092220","18:38:37","300863296","182891850","5.0.14.0","1","1","demographics","ProlificCode","0","0","0","0","5efa1bad6ae44a812f742d9b","1","115313"
"092220","18:38:37","300863296","182891850","5.0.14.0","1","2","demographics","age","0","0","0","0","23","1","3606"
"092220","18:38:37","300863296","182891850","5.0.14.0","1","3","demographics","gender","0","0","0","0","female","1","5343"
"092320","09:43:53","451740476","335027585","5.0.14.0","1","1","demographics","ProlificCode","0","0","0","0","563da4c4ef3f15000bb92b64","1","12974"
"092320","09:43:53","451740476","335027585","5.0.14.0","1","2","demographics","age","0","0","0","0","35","1","3420"
"092320","09:43:53","451740476","335027585","5.0.14.0","1","3","demographics","gender","0","0","0","0","Female","1","3758"
"092320","09:13:24","127260228","10547337","5.0.14.0","1","1","demographics","ProlificCode","0","0","0","0","5d6de63201523a0001f51f27","1","20895"
"092320","09:13:24","127260228","10547337","5.0.14.0","1","2","demographics","age","0","0","0","0","53","1","3411"
"092320","09:13:24","127260228","10547337","5.0.14.0","1","3","demographics","gender","0","0","0","0","Female","1","8152"
"092320","00:43:54","101065940","290224567","5.0.14.0","1","1","demographics","ProlificCode","0","0","0","0","5dbf610107448a3ff16696d3","1","57391"
"092320","00:43:54","101065940","290224567","5.0.14.0","1","2","demographics","age","0","0","0","0","29","1","4574"
"092320","00:43:54","101065940","290224567","5.0.14.0","1","3","demographics","gender","0","0","0","0","girl","1","6021"
"092320","00:44:27","727081386","114878067","5.0.14.0","1","1","demographics","ProlificCode","0","0","0","0","5e8b765e88065404c4d50fe2","1","15205"
"092320","00:44:27","727081386","114878067","5.0.14.0","1","2","demographics","age","0","0","0","0","38","1","2852"
"092320","00:44:27","727081386","114878067","5.0.14.0","1","3","demographics","gender","0","0","0","0","Male","1","3649"
"092320","09:43:48","640647798","58028565","5.0.14.0","1","1","demographics","ProlificCode","0","0","0","0","5edf7dec60122c242c024566","1","79020"
"092320","09:43:48","640647798","58028565","5.0.14.0","1","2","demographics","age","0","0","0","0","37","1","8565"
"092320","09:43:48","640647798","58028565","5.0.14.0","1","3","demographics","gender","0","0","0","0","F","1","6723"
"092320","00:45:09","733412682","540526360","5.0.14.0","1","1","demographics","ProlificCode","0","0","0","0","5caca4e291d3ab00171cdeb0","1","11944"
"092320","00:45:09","733412682","540526360","5.0.14.0","1","2","demographics","age","0","0","0","0","25","1","2027"
"092320","00:45:09","733412682","540526360","5.0.14.0","1","3","demographics","gender","0","0","0","0","Male","1","2732"
"092320","00:42:52","402570893","896139749","5.0.14.0","1","1","demographics","ProlificCode","0","0","0","0","5f16a5057185b3397ea67287","1","142273"
"092320","00:42:52","402570893","896139749","5.0.14.0","1","2","demographics","age","0","0","0","0","59","1","6724"
"092320","00:42:52","402570893","896139749","5.0.14.0","1","3","demographics","gender","0","0","0","0","female","1","7473"
"092220","20:40:15","350260601","273707608","5.0.14.0","1","1","demographics","ProlificCode","0","0","0","0","5b625bb0f1703e0001616ef2","1","91692"
"092220","20:40:15","350260601","273707608","5.0.14.0","1","2","demographics","age","0","0","0","0","34","1","4719"
"092220","20:40:15","350260601","273707608","5.0.14.0","1","3","demographics","gender","0","0","0","0","Female","1","5621"
"092220","21:16:12","509360016","432807029","5.0.14.0","1","1","demographics","ProlificCode","0","0","0","0","5f349d8866db5b22719c6354","1","27142"
"092220","21:16:12","509360016","432807029","5.0.14.0","1","2","demographics","age","0","0","0","0","55","1","4881"
"092220","21:16:12","509360016","432807029","5.0.14.0","1","3","demographics","gender","0","0","0","0","female","1","7505"
"092320","00:46:56","374865827","578756206","5.0.14.0","1","1","demographics","ProlificCode","0","0","0","0","56a8930d7f2472000c93764e","1","4444"
"092320","00:46:56","374865827","578756206","5.0.14.0","1","2","demographics","age","0","0","0","0","46","1","5404"
"092320","00:46:56","374865827","578756206","5.0.14.0","1","3","demographics","gender","0","0","0","0","Male","1","4308"
"092220","19:46:53","268376876","381362083","5.0.14.0","1","1","demographics","ProlificCode","0","0","0","0","5f5859c9e98f8e3ce6675538","1","16699"
"092220","19:46:53","268376876","381362083","5.0.14.0","1","2","demographics","age","0","0","0","0","24","1","2118"
"092220","19:46:53","268376876","381362083","5.0.14.0","1","3","demographics","gender","0","0","0","0","Male","1","2096"
"092320","09:47:14","22107390","293570736","5.0.14.0","1","1","demographics","ProlificCode","0","0","0","0","5f43507374208659c3b31032","1","3927"
"092320","09:47:14","22107390","293570736","5.0.14.0","1","2","demographics","age","0","0","0","0","33","1","2307"
"092320","09:47:14","22107390","293570736","5.0.14.0","1","3","demographics","gender","0","0","0","0","male","1","3772"
"092220","19:47:16","704207767","817192966","5.0.14.0","1","1","demographics","ProlificCode","0","0","0","0","5ef3d171bdc16e19057683e1","1","14598"
"092220","19:47:16","704207767","817192966","5.0.14.0","1","2","demographics","age","0","0","0","0","23","1","4180"
"092220","19:47:16","704207767","817192966","5.0.14.0","1","3","demographics","gender","0","0","0","0","Female","1","2935"
"092320","00:48:06","457335356","661225736","5.0.14.0","1","1","demographics","ProlificCode","0","0","0","0","5f593e300f0eec17582ada05","1","5376"
"092320","00:48:06","457335356","661225736","5.0.14.0","1","2","demographics","age","0","0","0","0","21","1","5231"
"092320","00:48:06","457335356","661225736","5.0.14.0","1","3","demographics","gender","0","0","0","0","Male","1","4102"
"092320","00:48:07","954182222","962668460","5.0.14.0","1","1","demographics","ProlificCode","0","0","0","0","5f496b754372913b046b5e14","1","23736"
"092320","00:48:07","954182222","962668460","5.0.14.0","1","2","demographics","age","0","0","0","0","23","1","2828"
"092320","00:48:07","954182222","962668460","5.0.14.0","1","3","demographics","gender","0","0","0","0","Female","1","4704"
"092320","00:49:02","484573164","832209933","5.0.14.0","1","1","demographics","ProlificCode","0","0","0","0","5efcbb97df2a840990b0da94","1","7298"
"092320","00:49:02","484573164","832209933","5.0.14.0","1","2","demographics","age","0","0","0","0","25","1","4375"
"092320","00:49:02","484573164","832209933","5.0.14.0","1","3","demographics","gender","0","0","0","0","male","1","2574"
"092220","19:48:49","476674804","680565186","5.0.14.0","1","1","demographics","ProlificCode","0","0","0","0","5eab59259d31271344f6478f","1","9180"
"092220","19:48:49","476674804","680565186","5.0.14.0","1","2","demographics","age","0","0","0","0","20","1","2822"
"092220","19:48:49","476674804","680565186","5.0.14.0","1","3","demographics","gender","0","0","0","0","Male","1","2585"
"092320","00:49:31","726892873","930783245","5.0.14.0","1","1","demographics","ProlificCode","0","0","0","0","5c7fbdeecd2fed00106e918a","1","3168"
"092320","00:49:31","726892873","930783245","5.0.14.0","1","2","demographics","age","0","0","0","0","35","1","2479"
"092320","00:49:31","726892873","930783245","5.0.14.0","1","3","demographics","gender","0","0","0","0","female","1","4223"
"092320","00:49:38","478184076","678813687","5.0.14.0","1","1","demographics","ProlificCode","0","0","0","0","57fe48c390de420001673796","1","11954"
"092320","00:49:38","478184076","678813687","5.0.14.0","1","2","demographics","age","0","0","0","0","25","1","2090"
"092320","00:49:38","478184076","678813687","5.0.14.0","1","3","demographics","gender","0","0","0","0","Male","1","2836"
"092220","19:46:34","755088728","258980727","5.0.14.0","1","1","demographics","ProlificCode","0","0","0","0","5e8c5692b656ff02846c71ad","1","253315"
"092220","19:46:34","755088728","258980727","5.0.14.0","1","2","demographics","age","0","0","0","0","40","1","2410"
"092220","19:46:34","755088728","258980727","5.0.14.0","1","3","demographics","gender","0","0","0","0","male","1","3045"
"092220","19:49:59","507780751","124447190","5.0.14.0","1","1","demographics","ProlificCode","0","0","0","0","5b79c406efca4f000175a5ad","1","5861"
"092220","19:49:59","507780751","124447190","5.0.14.0","1","2","demographics","age","0","0","0","0","25","1","2481"
"092220","19:49:59","507780751","124447190","5.0.14.0","1","3","demographics","gender","0","0","0","0","non-binary","1","4348"
"092220","19:50:33","961847634","970035745","5.0.14.0","1","1","demographics","ProlificCode","0","0","0","0","5eee1db16db55427015aa0f0","1","7030"
"092220","19:50:33","961847634","970035745","5.0.14.0","1","2","demographics","age","0","0","0","0","20","1","3169"
"092220","19:50:33","961847634","970035745","5.0.14.0","1","3","demographics","gender","0","0","0","0","Male","1","2833"
"092220","19:49:20","736809907","693834045","5.0.14.0","1","1","demographics","ProlificCode","0","0","0","0","5ed6ad6d923c090fbbe04b2a","1","111842"
"092220","19:49:20","736809907","693834045","5.0.14.0","1","2","demographics","age","0","0","0","0","40","1","3548"
"092220","19:49:20","736809907","693834045","5.0.14.0","1","3","demographics","gender","0","0","0","0","Male","1","4352"
"092220","19:51:01","168440668","821665506","5.0.14.0","1","1","demographics","ProlificCode","0","0","0","0","5b6e92eaea3c210001a0fa78","1","11194"
"092220","19:51:01","168440668","821665506","5.0.14.0","1","2","demographics","age","0","0","0","0","25","1","2672"
"092220","19:51:01","168440668","821665506","5.0.14.0","1","3","demographics","gender","0","0","0","0","Male","1","3824"
"092320","01:51:28","47213703","623370736","5.0.14.0","1","1","demographics","ProlificCode","0","0","0","0","5f3fa4b2826aec0205275253","1","17483"
"092320","01:51:28","47213703","623370736","5.0.14.0","1","2","demographics","age","0","0","0","0","24","1","9491"
"092320","01:51:28","47213703","623370736","5.0.14.0","1","3","demographics","gender","0","0","0","0","male","1","6262"
"092320","00:52:02","372136469","650062019","5.0.14.0","1","1","demographics","ProlificCode","0","0","0","0","5d80106330e338001a3a116f","1","14552"
"092320","00:52:02","372136469","650062019","5.0.14.0","1","2","demographics","age","0","0","0","0","21","1","3847"
"092320","00:52:02","372136469","650062019","5.0.14.0","1","3","demographics","gender","0","0","0","0","male","1","4192"
"092320","00:52:17","35345517","923538137","5.0.14.0","1","1","demographics","ProlificCode","0","0","0","0","","1","20685"
"092220","19:50:17","673725998","681914111","5.0.14.0","1","1","demographics","ProlificCode","0","0","0","0","5e9f4b15daa0ba0ac0d460ea","1","104014"
"092220","19:50:17","673725998","681914111","5.0.14.0","1","2","demographics","age","0","0","0","0","21","1","4971"
"092220","19:50:17","673725998","681914111","5.0.14.0","1","3","demographics","gender","0","0","0","0","female","1","9754"
"092220","19:52:39","149807857","38000492","5.0.14.0","1","1","demographics","ProlificCode","0","0","0","0","5f1608e6099eee65ee87f71c","1","23402"
"092220","19:52:39","149807857","38000492","5.0.14.0","1","2","demographics","age","0","0","0","0","20","1","2883"
"092220","19:52:39","149807857","38000492","5.0.14.0","1","3","demographics","gender","0","0","0","0","Female","1","3204"
"092320","00:53:08","378318166","956911575","5.0.14.0","1","1","demographics","ProlificCode","0","0","0","0","5c65e63b67057200011abaa4","1","7897"
"092320","00:53:08","378318166","956911575","5.0.14.0","1","2","demographics","age","0","0","0","0","20","1","2505"
"092320","00:53:08","378318166","956911575","5.0.14.0","1","3","demographics","gender","0","0","0","0","Male","1","2589"
"092220","19:53:08","538713770","511647504","5.0.14.0","1","1","demographics","ProlificCode","0","0","0","0","5dbcab257d3d3625a70a80b1","1","9207"
"092220","19:53:08","538713770","511647504","5.0.14.0","1","2","demographics","age","0","0","0","0","22","1","3547"
"092220","19:53:08","538713770","511647504","5.0.14.0","1","3","demographics","gender","0","0","0","0","Male","1","28050"
"092320","09:23:34","865180228","947105374","5.0.14.0","1","1","demographics","ProlificCode","0","0","0","0","5b050c169d397e000191606d","1","2406"
"092320","09:23:34","865180228","947105374","5.0.14.0","1","2","demographics","age","0","0","0","0","32","1","2528"
"092320","09:23:34","865180228","947105374","5.0.14.0","1","3","demographics","gender","0","0","0","0","MAle","1","2763"
"092320","00:53:46","824970546","96433901","5.0.14.0","1","1","demographics","ProlificCode","0","0","0","0","5d38a139b1d3a70001f37780","1","10158"
"092320","00:53:46","824970546","96433901","5.0.14.0","1","2","demographics","age","0","0","0","0","24","1","2950"
"092320","00:53:46","824970546","96433901","5.0.14.0","1","3","demographics","gender","0","0","0","0","Non-Binary","1","6215"
"092320","11:52:54","192902369","16055","5.0.14.0","1","1","demographics","ProlificCode","0","0","0","0","5e6a11b646df0b0008647b87","1","65353"
"092320","11:52:54","192902369","16055","5.0.14.0","1","2","demographics","age","0","0","0","0","26","1","4099"
"092320","11:52:54","192902369","16055","5.0.14.0","1","3","demographics","gender","0","0","0","0","female","1","3842"
"092220","19:53:53","619637439","122057431","5.0.14.0","1","1","demographics","ProlificCode","0","0","0","0","5d5f4f294d55db0016ed4612","1","10083"
"092220","19:53:53","619637439","122057431","5.0.14.0","1","2","demographics","age","0","0","0","0","32","1","2086"
"092220","19:53:53","619637439","122057431","5.0.14.0","1","3","demographics","gender","0","0","0","0","m","1","2226"
"092320","00:53:57","709426257","203278568","5.0.14.0","1","1","demographics","ProlificCode","0","0","0","0","5f5feb580702870c9f54242f","1","14539"
"092320","00:53:57","709426257","203278568","5.0.14.0","1","2","demographics","age","0","0","0","0","19","1","4110"
"092320","00:53:57","709426257","203278568","5.0.14.0","1","3","demographics","gender","0","0","0","0","female","1","5690"
"092320","10:18:13","476290511","359577617","5.0.14.0","1","1","demographics","ProlificCode","0","0","0","0","5ba416ce509a380001bef970","1","9307"
"092320","10:18:13","476290511","359577617","5.0.14.0","1","2","demographics","age","0","0","0","0","35","1","3878"
"092320","10:18:13","476290511","359577617","5.0.14.0","1","3","demographics","gender","0","0","0","0","male","1","3695"
"092320","00:51:21","588424975","470733027","5.0.14.0","1","1","demographics","ProlificCode","0","0","0","0","5f52be6617b4c25bd959c8c4","1","187510"
"092320","00:51:21","588424975","470733027","5.0.14.0","1","2","demographics","age","0","0","0","0","29","1","7181"
"092320","00:51:21","588424975","470733027","5.0.14.0","1","3","demographics","gender","0","0","0","0","female","1","6016"
"092220","16:54:35","179355480","673207789","5.0.14.0","1","1","demographics","ProlificCode","0","0","0","0","5f619d4c3bda23000806e3c5","1","4055"
"092220","16:54:35","179355480","673207789","5.0.14.0","1","2","demographics","age","0","0","0","0","24","1","4690"
"092220","16:54:35","179355480","673207789","5.0.14.0","1","3","demographics","gender","0","0","0","0","cis female","1","7336"
"092220","19:39:12","870654011","682673219","5.0.14.0","1","1","demographics","ProlificCode","0","0","0","0","5ef756bd60ee3e03dea31025","1","423750"
"092220","19:39:12","870654011","682673219","5.0.14.0","1","2","demographics","age","0","0","0","0","32","1","4244"
"092220","19:39:12","870654011","682673219","5.0.14.0","1","3","demographics","gender","0","0","0","0","male","1","2436"
"092320","11:54:49","687225450","964852861","5.0.14.0","1","1","demographics","ProlificCode","0","0","0","0","5f0f58b82ab2910f275ed21e","1","3778"
"092320","11:54:49","687225450","964852861","5.0.14.0","1","2","demographics","age","0","0","0","0","33","1","2243"
"092320","11:54:49","687225450","964852861","5.0.14.0","1","3","demographics","gender","0","0","0","0","Male","1","3139"
"092320","00:53:31","79052885","51986624","5.0.14.0","1","1","demographics","ProlificCode","0","0","0","0","5f34262656eaa01431983fd1","1","74857"
"092320","00:53:31","79052885","51986624","5.0.14.0","1","2","demographics","age","0","0","0","0","36","1","4597"
"092320","00:53:31","79052885","51986624","5.0.14.0","1","3","demographics","gender","0","0","0","0","male","1","11010"
"092320","00:54:53","743158588","825083732","5.0.14.0","1","1","demographics","ProlificCode","0","0","0","0","59e7276d5de9b000017ed1c1","1","4793"
"092320","00:54:53","743158588","825083732","5.0.14.0","1","2","demographics","age","0","0","0","0","39","1","4309"
"092320","00:54:53","743158588","825083732","5.0.14.0","1","3","demographics","gender","0","0","0","0","Male","1","5096"
"092320","01:50:26","437135639","641324149","5.0.14.0","1","1","demographics","ProlificCode","0","0","0","0","5f33289c1fe9181376ee67d9  ","1","288645"
"092320","07:55:10","855873096","631017668","5.0.14.0","1","1","demographics","ProlificCode","0","0","0","0","5f5dd6275bbf4b635edfc615","1","10985"
"092320","07:55:10","855873096","631017668","5.0.14.0","1","2","demographics","age","0","0","0","0","18","1","3480"
"092320","07:55:10","855873096","631017668","5.0.14.0","1","3","demographics","gender","0","0","0","0","MALE","1","4964"
"092220","18:56:00","509928869","787556287","5.0.14.0","1","1","demographics","ProlificCode","0","0","0","0"," 5be36be211870100014e3a10","1","31747"
"092220","18:56:00","509928869","787556287","5.0.14.0","1","2","demographics","age","0","0","0","0","24","1","2501"
"092220","18:56:00","509928869","787556287","5.0.14.0","1","3","demographics","gender","0","0","0","0","female","1","3214"
"092220","18:04:50","193647932","886138292","5.0.14.0","1","1","demographics","ProlificCode","0","0","0","0","5ddf1fb32c5c10e8e9ee","1","75524"
"092220","18:04:50","193647932","886138292","5.0.14.0","1","2","demographics","age","0","0","0","0","46","1","4298"
"092220","18:04:50","193647932","886138292","5.0.14.0","1","3","demographics","gender","0","0","0","0","female","1","5419"
"092320","00:54:31","895065135","781170864","5.0.14.0","1","1","demographics","ProlificCode","0","0","0","0","569051eca3b94e000b6bed59","1","99647"
"092320","00:54:31","895065135","781170864","5.0.14.0","1","2","demographics","age","0","0","0","0","42","1","2869"
"092320","00:54:31","895065135","781170864","5.0.14.0","1","3","demographics","gender","0","0","0","0","Female","1","4328"
"092320","00:56:04","204516541","552186078","5.0.14.0","1","1","demographics","ProlificCode","0","0","0","0","5a5bc995f6c517000195103f","1","12116"
"092320","00:56:04","204516541","552186078","5.0.14.0","1","2","demographics","age","0","0","0","0","37","1","4052"
"092320","00:56:04","204516541","552186078","5.0.14.0","1","3","demographics","gender","0","0","0","0","male","1","6254"
"092320","09:55:55","802846106","430167108","5.0.14.0","1","1","demographics","ProlificCode","0","0","0","0","5bb6faf4f6d0bd00019e12f4","1","4820"
"092320","09:55:55","802846106","430167108","5.0.14.0","1","2","demographics","age","0","0","0","0","47","1","3087"
"092320","09:55:55","802846106","430167108","5.0.14.0","1","3","demographics","gender","0","0","0","0","Male","1","4082"
"092320","00:55:59","302563766","929884764","5.0.14.0","1","1","demographics","ProlificCode","0","0","0","0","5e664052c302df3b19df4a7d","1","27374"
"092320","00:55:59","302563766","929884764","5.0.14.0","1","2","demographics","age","0","0","0","0","30","1","11366"
"092320","00:55:59","302563766","929884764","5.0.14.0","1","3","demographics","gender","0","0","0","0","male","1","12126"
"092320","09:56:51","426986768","554703730","5.0.14.0","1","1","demographics","ProlificCode","0","0","0","0","5f4d9934791df106548ea803","1","17293"
"092320","09:56:51","426986768","554703730","5.0.14.0","1","2","demographics","age","0","0","0","0","22","1","2270"
"092320","09:56:51","426986768","554703730","5.0.14.0","1","3","demographics","gender","0","0","0","0","Female","1","3844"
"092220","20:57:25","133376748","674778814","5.0.14.0","1","1","demographics","ProlificCode","0","0","0","0","5eeaa8c89346931ba0f0b3e9","1","10162"
"092220","20:57:25","133376748","674778814","5.0.14.0","1","2","demographics","age","0","0","0","0","25","1","3228"
"092220","20:57:25","133376748","674778814","5.0.14.0","1","3","demographics","gender","0","0","0","0","Male","1","5223"
"092220","19:56:35","540275240","667992195","5.0.14.0","1","1","demographics","ProlificCode","0","0","0","0","5f09bdba532602048fd","1","64180"
"092220","19:56:35","540275240","667992195","5.0.14.0","1","2","demographics","age","0","0","0","0","48","1","3584"
"092220","19:56:35","540275240","667992195","5.0.14.0","1","3","demographics","gender","0","0","0","0","M","1","3604"
"092320","11:57:36","650424471","842196243","5.0.14.0","1","1","demographics","ProlificCode","0","0","0","0","5f61914f09b4e313f748a90c","1","17627"
"092320","11:57:36","650424471","842196243","5.0.14.0","1","2","demographics","age","0","0","0","0","44","1","2889"
"092320","11:57:36","650424471","842196243","5.0.14.0","1","3","demographics","gender","0","0","0","0","male","1","3800"
"092320","00:57:41","308920086","961250535","5.0.14.0","1","1","demographics","ProlificCode","0","0","0","0","5bf36d4ca70bf700017ca293","1","15444"
"092320","00:57:41","308920086","961250535","5.0.14.0","1","2","demographics","age","0","0","0","0","28","1","3528"
"092320","00:57:41","308920086","961250535","5.0.14.0","1","3","demographics","gender","0","0","0","0","Male","1","3292"
"092320","00:58:36","400819988","748456760","5.0.14.0","1","1","demographics","ProlificCode","0","0","0","0","5f0333df099f494ed223e66a","1","12789"
"092320","00:58:36","400819988","748456760","5.0.14.0","1","2","demographics","age","0","0","0","0","41","1","3028"
"092320","00:58:36","400819988","748456760","5.0.14.0","1","3","demographics","gender","0","0","0","0","Male","1","5064"
"092320","00:59:53","945164142","972509894","5.0.14.0","1","1","demographics","ProlificCode","0","0","0","0","57a0d81d81f331000139d989","1","4547"
"092320","00:59:53","945164142","972509894","5.0.14.0","1","2","demographics","age","0","0","0","0","32","1","2694"
"092320","00:59:53","945164142","972509894","5.0.14.0","1","3","demographics","gender","0","0","0","0","Male","1","3567"
"092220","18:58:36","930412583","278082124","5.0.14.0","1","1","demographics","ProlificCode","0","0","0","0","5e5800186e6dc6000ecd880c","1","13851"
"092220","18:58:36","930412583","278082124","5.0.14.0","1","2","demographics","age","0","0","0","0","30","1","2480"
"092220","18:58:36","930412583","278082124","5.0.14.0","1","3","demographics","gender","0","0","0","0","male","1","3861"
"092220","20:59:39","702502988","440785152","5.0.14.0","1","1","demographics","ProlificCode","0","0","0","0","5e1feef63e3358314e1f5154","1","7100"
"092220","20:59:39","702502988","440785152","5.0.14.0","1","2","demographics","age","0","0","0","0","36","1","2873"
"092220","20:59:39","702502988","440785152","5.0.14.0","1","3","demographics","gender","0","0","0","0","Male","1","4888"
"092320","00:59:36","960952020","308621563","5.0.14.0","1","1","demographics","ProlificCode","0","0","0","0","5f3fbc30899a9b04d3a69185","1","17212"
"092320","00:59:36","960952020","308621563","5.0.14.0","1","2","demographics","age","0","0","0","0","20","1","3756"
"092320","00:59:36","960952020","308621563","5.0.14.0","1","3","demographics","gender","0","0","0","0","female","1","4534"
"092320","00:59:51","234786286","351499179","5.0.14.0","1","1","demographics","ProlificCode","0","0","0","0","5d456f55b2da940019185094","1","9176"
"092320","00:59:51","234786286","351499179","5.0.14.0","1","2","demographics","age","0","0","0","0","55","1","4162"
"092320","00:59:51","234786286","351499179","5.0.14.0","1","3","demographics","gender","0","0","0","0","Female ","1","8561"
"092220","20:00:13","536890379","420177481","5.0.14.0","1","1","demographics","ProlificCode","0","0","0","0","5e9be489b3c35c0f6d2e3409","1","8178"
"092220","20:00:13","536890379","420177481","5.0.14.0","1","2","demographics","age","0","0","0","0","24","1","2489"
"092220","20:00:13","536890379","420177481","5.0.14.0","1","3","demographics","gender","0","0","0","0","Male","1","2973"
"092320","00:59:48","229705104","415249511","5.0.14.0","1","1","demographics","ProlificCode","0","0","0","0","5f2994eda50bc40cc07","1","39477"
"092320","00:59:48","229705104","415249511","5.0.14.0","1","2","demographics","age","0","0","0","0","29 ","1","4482"
"092320","00:59:48","229705104","415249511","5.0.14.0","1","3","demographics","gender","0","0","0","0","Female","1","6072"
"092320","01:58:41","651691513","838413750","5.0.14.0","1","1","demographics","ProlificCode","0","0","0","0","5f56a6646e11c111125188bc","1","8797"
"092320","01:58:41","651691513","838413750","5.0.14.0","1","2","demographics","age","0","0","0","0","23","1","3378"
"092320","01:58:41","651691513","838413750","5.0.14.0","1","3","demographics","gender","0","0","0","0","Female","1","11383"
"092320","10:00:27","389523242","806024296","5.0.14.0","1","1","demographics","ProlificCode","0","0","0","0","5b455c690cc0c20001a8902f","1","10095"
"092320","10:00:27","389523242","806024296","5.0.14.0","1","2","demographics","age","0","0","0","0","25","1","3945"
"092320","10:00:27","389523242","806024296","5.0.14.0","1","3","demographics","gender","0","0","0","0","Female","1","4815"
"092320","01:00:23","211631122","397175529","5.0.14.0","1","1","demographics","ProlificCode","0","0","0","0","5f582a0071a90f3972ee9a09","1","14822"
"092320","01:00:23","211631122","397175529","5.0.14.0","1","2","demographics","age","0","0","0","0","45","1","3415"
"092320","01:00:23","211631122","397175529","5.0.14.0","1","3","demographics","gender","0","0","0","0","Male","1","4552"
"092320","01:00:45","527994800","425053238","5.0.14.0","1","1","demographics","ProlificCode","0","0","0","0","5994b4b88737070001762c8f","1","14284"
"092320","01:00:45","527994800","425053238","5.0.14.0","1","2","demographics","age","0","0","0","0","21","1","4485"
"092320","01:00:45","527994800","425053238","5.0.14.0","1","3","demographics","gender","0","0","0","0","Female","1","3627"
"092320","01:01:05","917140156","944206411","5.0.14.0","1","1","demographics","ProlificCode","0","0","0","0","5cd801d431d19f0019425e2e","1","3216"
"092320","01:01:05","917140156","944206411","5.0.14.0","1","2","demographics","age","0","0","0","0","40","1","3329"
"092320","01:01:05","917140156","944206411","5.0.14.0","1","3","demographics","gender","0","0","0","0","Female","1","4388"
"092220","20:01:07","493579699","390340013","5.0.14.0","1","1","demographics","ProlificCode","0","0","0","0","5f4a977540c77a0c9b8c3d70","1","13518"
"092220","20:01:07","493579699","390340013","5.0.14.0","1","2","demographics","age","0","0","0","0","22","1","2779"
"092220","20:01:07","493579699","390340013","5.0.14.0","1","3","demographics","gender","0","0","0","0","female","1","2416"
"092220","18:01:00","951419134","367920190","5.0.14.0","1","1","demographics","ProlificCode","0","0","0","0","5f279e5e7f5aab5ce9a65248","1","19335"
"092220","18:01:00","951419134","367920190","5.0.14.0","1","2","demographics","age","0","0","0","0","40","1","3420"
"092220","18:01:00","951419134","367920190","5.0.14.0","1","3","demographics","gender","0","0","0","0","female","1","4301"
"092220","21:02:08","783025785","520130106","5.0.14.0","1","1","demographics","ProlificCode","0","0","0","0","5f6255c67a8ba1291bee8bb5","1","10878"
"092220","21:02:08","783025785","520130106","5.0.14.0","1","2","demographics","age","0","0","0","0","23","1","2283"
"092220","21:02:08","783025785","520130106","5.0.14.0","1","3","demographics","gender","0","0","0","0","Male","1","3601"
"092220","20:01:46","509084296","2936616","5.0.14.0","1","1","demographics","ProlificCode","0","0","0","0","5f4e22f75080c69f541d9500","1","12627"
"092220","20:01:46","509084296","2936616","5.0.14.0","1","2","demographics","age","0","0","0","0","30","1","2803"
"092220","20:01:46","509084296","2936616","5.0.14.0","1","3","demographics","gender","0","0","0","0","Male","1","3705"
"092320","10:01:50","705695994","16141417","5.0.14.0","1","1","demographics","ProlificCode","0","0","0","0","5f0aa26480cd5f1b0fe183ba","1","14167"
"092320","10:01:50","705695994","16141417","5.0.14.0","1","2","demographics","age","0","0","0","0","31","1","4587"
"092320","10:01:50","705695994","16141417","5.0.14.0","1","3","demographics","gender","0","0","0","0","Female","1","4922"
"092320","02:02:15","633630404","50131456","5.0.14.0","1","1","demographics","ProlificCode","0","0","0","0","5f56a6646e11c111125188bc","1","4682"
"092320","02:02:15","633630404","50131456","5.0.14.0","1","2","demographics","age","0","0","0","0","23","1","3500"
"092320","02:02:15","633630404","50131456","5.0.14.0","1","3","demographics","gender","0","0","0","0","Female","1","7165"
"092320","12:02:06","477460397","435662382","5.0.14.0","1","1","demographics","ProlificCode","0","0","0","0","5ed023de5416bd0ef79fce34","1","7996"
"092320","12:02:06","477460397","435662382","5.0.14.0","1","2","demographics","age","0","0","0","0","22","1","2352"
"092320","12:02:06","477460397","435662382","5.0.14.0","1","3","demographics","gender","0","0","0","0","Male","1","6296"
"092320","01:01:38","513817074","397104176","5.0.14.0","1","1","demographics","ProlificCode","0","0","0","0","5cf91e3f1756e60017a30568 ","1","57955"
"092320","01:01:38","513817074","397104176","5.0.14.0","1","2","demographics","age","0","0","0","0","43","1","5030"
"092320","01:01:38","513817074","397104176","5.0.14.0","1","3","demographics","gender","0","0","0","0","female","1","4455"
"092220","18:02:27","131955227","625807543","5.0.14.0","1","1","demographics","ProlificCode","0","0","0","0","5dc4ca3d43755e38f1e60347","1","12161"
"092220","18:02:27","131955227","625807543","5.0.14.0","1","2","demographics","age","0","0","0","0","30","1","3478"
"092220","18:02:27","131955227","625807543","5.0.14.0","1","3","demographics","gender","0","0","0","0","female","1","7309"
"092320","01:02:39","498355026","525421287","5.0.14.0","1","1","demographics","ProlificCode","0","0","0","0","5ebb12888594210cd785eecc","1","8860"
"092320","01:02:39","498355026","525421287","5.0.14.0","1","2","demographics","age","0","0","0","0","40","1","3465"
"092320","01:02:39","498355026","525421287","5.0.14.0","1","3","demographics","gender","0","0","0","0","Male","1","3843"
"092320","01:02:56","368677397","911257296","5.0.14.0","1","1","demographics","ProlificCode","0","0","0","0","5f64ebceeab352026f45a452","1","6083"
"092320","01:02:56","368677397","911257296","5.0.14.0","1","2","demographics","age","0","0","0","0","25","1","1324"
"092320","01:02:56","368677397","911257296","5.0.14.0","1","3","demographics","gender","0","0","0","0","Male","1","2956"
"092320","01:02:52","350607129","308492353","5.0.14.0","1","1","demographics","ProlificCode","0","0","0","0"," 5f183e5c78292908a66deae4","1","10266"
"092320","01:02:52","350607129","308492353","5.0.14.0","1","2","demographics","age","0","0","0","0","20","1","3130"
"092320","01:02:52","350607129","308492353","5.0.14.0","1","3","demographics","gender","0","0","0","0","Male","1","4795"
"092320","01:02:59","711454440","813184844","5.0.14.0","1","1","demographics","ProlificCode","0","0","0","0","5ed797f3fd7ffe235b5b81bb","1","10411"
"092320","01:02:59","711454440","813184844","5.0.14.0","1","2","demographics","age","0","0","0","0","20","1","3717"
"092320","01:02:59","711454440","813184844","5.0.14.0","1","3","demographics","gender","0","0","0","0","male","1","3303"
"092320","10:03:43","322449091","134468307","5.0.14.0","1","1","demographics","ProlificCode","0","0","0","0","5f0568d0ac08ac86c994743e","1","3740"
"092320","10:03:43","322449091","134468307","5.0.14.0","1","2","demographics","age","0","0","0","0","25","1","2475"
"092320","10:03:43","322449091","134468307","5.0.14.0","1","3","demographics","gender","0","0","0","0","female","1","4045"
"092220","20:03:39","80492326","197205230","5.0.14.0","1","1","demographics","ProlificCode","0","0","0","0","5aeaa1e5eb500a00010a21c0","1","12528"
"092220","20:03:39","80492326","197205230","5.0.14.0","1","2","demographics","age","0","0","0","0","24","1","3394"
"092220","20:03:39","80492326","197205230","5.0.14.0","1","3","demographics","gender","0","0","0","0","Male","1","4792"
"092220","20:03:44","251604895","974871848","5.0.14.0","1","1","demographics","ProlificCode","0","0","0","0","5cc3754ba757bd0015332a48","1","10229"
"092220","20:03:44","251604895","974871848","5.0.14.0","1","2","demographics","age","0","0","0","0","30","1","3754"
"092220","20:03:44","251604895","974871848","5.0.14.0","1","3","demographics","gender","0","0","0","0","f","1","4109"
"092220","17:03:39","750355292","951809277","5.0.14.0","1","1","demographics","ProlificCode","0","0","0","0","5ec1eb20ecfc7d6200dc9409","1","12699"
"092220","17:03:39","750355292","951809277","5.0.14.0","1","2","demographics","age","0","0","0","0","20","1","3216"
"092220","17:03:39","750355292","951809277","5.0.14.0","1","3","demographics","gender","0","0","0","0","female","1","9102"
"092320","01:03:51","167895509","126097499","5.0.14.0","1","1","demographics","ProlificCode","0","0","0","0","56cb72f1edf8da000b6df137","1","17807"
"092320","01:03:51","167895509","126097499","5.0.14.0","1","2","demographics","age","0","0","0","0","35","1","3638"
"092320","01:03:51","167895509","126097499","5.0.14.0","1","3","demographics","gender","0","0","0","0","f","1","2532"
"092320","01:04:01","365658856","908238754","5.0.14.0","1","1","demographics","ProlificCode","0","0","0","0","5f625600a7f97c155b62a3f7","1","11747"
"092320","01:04:01","365658856","908238754","5.0.14.0","1","2","demographics","age","0","0","0","0","22","1","2284"
"092320","01:04:01","365658856","908238754","5.0.14.0","1","3","demographics","gender","0","0","0","0","Male","1","4142"
"092320","01:04:54","573857758","532339225","5.0.14.0","1","1","demographics","ProlificCode","0","0","0","0","5be5e0085b7ff700013bce91 ","1","6011"
"092320","01:04:54","573857758","532339225","5.0.14.0","1","2","demographics","age","0","0","0","0","22","1","3746"
"092320","01:04:54","573857758","532339225","5.0.14.0","1","3","demographics","gender","0","0","0","0","female ","1","5137"
"092220","19:05:16","221206954","568876497","5.0.14.0","1","1","demographics","ProlificCode","0","0","0","0","5f614db61640ed0e9e2f296b ","1","5992"
"092220","19:05:16","221206954","568876497","5.0.14.0","1","2","demographics","age","0","0","0","0","32","1","3273"
"092220","19:05:16","221206954","568876497","5.0.14.0","1","3","demographics","gender","0","0","0","0","Male","1","3206"
"092320","01:01:31","465987868","703874084","5.0.15.0","1","1","demographics","ProlificCode","0","0","0","0","5a2126371a1ad3000138f77e","1","247645"
"092320","01:01:31","465987868","703874084","5.0.15.0","1","2","demographics","age","0","0","0","0","35","1","5249"
"092320","01:01:31","465987868","703874084","5.0.15.0","1","3","demographics","gender","0","0","0","0","Female","1","6055"
"092320","01:05:32","433849597","392051584","5.0.14.0","1","1","demographics","ProlificCode","0","0","0","0","5f6279561dd20e1973688694","1","7340"
"092320","01:05:32","433849597","392051584","5.0.14.0","1","2","demographics","age","0","0","0","0","20","1","14461"
"092320","01:05:32","433849597","392051584","5.0.14.0","1","3","demographics","gender","0","0","0","0","male","1","4108"
"092320","01:10:41","154111357","417007033","5.0.14.0","1","1","demographics","ProlificCode","0","0","0","0","5f2aca7f04403739f5d65638","1","32559"
"092320","01:10:41","154111357","417007033","5.0.14.0","1","2","demographics","age","0","0","0","0","22","1","2677"
"092320","01:10:41","154111357","417007033","5.0.14.0","1","3","demographics","gender","0","0","0","0","female","1","3983"
"092220","20:05:53","895970385","939244356","5.0.14.0","1","1","demographics","ProlificCode","0","0","0","0","5ee526b8016ec2258dec1223","1","14283"
"092220","20:05:53","895970385","939244356","5.0.14.0","1","2","demographics","age","0","0","0","0","37","1","3207"
"092220","20:05:53","895970385","939244356","5.0.14.0","1","3","demographics","gender","0","0","0","0","male","1","5386"
"092320","01:05:59","84759439","347655114","5.0.14.0","1","1","demographics","ProlificCode","0","0","0","0","5efe4f8d796c4f15fe4e0047","1","11244"
"092320","01:05:59","84759439","347655114","5.0.14.0","1","2","demographics","age","0","0","0","0","19","1","4114"
"092320","01:05:59","84759439","347655114","5.0.14.0","1","3","demographics","gender","0","0","0","0","female","1","8980"
"092220","20:06:04","287094882","939425334","5.0.14.0","1","1","demographics","ProlificCode","0","0","0","0","5e9be4b8aff5bd0f751a021a","1","12675"
"092220","20:06:04","287094882","939425334","5.0.14.0","1","2","demographics","age","0","0","0","0","25","1","2379"
"092220","20:06:04","287094882","939425334","5.0.14.0","1","3","demographics","gender","0","0","0","0","Male","1","3497"
"092320","01:06:26","293546002","556441669","5.0.14.0","1","1","demographics","ProlificCode","0","0","0","0","5d31c201c88f0e001a4c3cb3","1","4989"
"092320","01:06:26","293546002","556441669","5.0.14.0","1","2","demographics","age","0","0","0","0","59","1","3832"
"092320","01:06:26","293546002","556441669","5.0.14.0","1","3","demographics","gender","0","0","0","0","male","1","5466"
"092220","17:05:36","418330921","156613096","5.0.14.0","1","1","demographics","ProlificCode","0","0","0","0","5f39a97fb9eddd145dff233e","1","12783"
"092220","17:05:36","418330921","156613096","5.0.14.0","1","2","demographics","age","0","0","0","0","20","1","31759"
"092220","17:05:36","418330921","156613096","5.0.14.0","1","3","demographics","gender","0","0","0","0","male","1","4133"
"092320","01:06:07","958017973","220913643","5.0.14.0","1","1","demographics","ProlificCode","0","0","0","0","5ef8e6483139e86480c50e5c","1","41276"
"092320","01:06:07","958017973","220913643","5.0.14.0","1","2","demographics","age","0","0","0","0","26","1","2713"
"092320","01:06:07","958017973","220913643","5.0.14.0","1","3","demographics","gender","0","0","0","0","female","1","3313"
"092320","01:06:46","831522498","569804660","5.0.14.0","1","1","demographics","ProlificCode","0","0","0","0","5f00d65cb69f9e20f144e404","1","13859"
"092320","01:06:46","831522498","569804660","5.0.14.0","1","2","demographics","age","0","0","0","0","24","1","2833"
"092320","01:06:46","831522498","569804660","5.0.14.0","1","3","demographics","gender","0","0","0","0","Male","1","5616"
"092320","10:06:57","364894998","177212343","5.0.14.0","1","1","demographics","ProlificCode","0","0","0","0","5ca2d16b2171fc001a3329cf","1","13904"
"092320","10:06:57","364894998","177212343","5.0.14.0","1","2","demographics","age","0","0","0","0","33","1","2092"
"092320","10:06:57","364894998","177212343","5.0.14.0","1","3","demographics","gender","0","0","0","0","female","1","27148"
"092320","01:07:12","758598921","106268459","5.0.14.0","1","1","demographics","ProlificCode","0","0","0","0","5eeb53581710c72a7946ba2b","1","23373"
"092320","01:07:12","758598921","106268459","5.0.14.0","1","2","demographics","age","0","0","0","0","22","1","2321"
"092320","01:07:12","758598921","106268459","5.0.14.0","1","3","demographics","gender","0","0","0","0","Male","1","2675"
"092320","01:07:19","142078570","794409030","5.0.14.0","1","1","demographics","ProlificCode","0","0","0","0","5f4a88def5a7bf0a365f142b","1","17096"
"092320","01:07:19","142078570","794409030","5.0.14.0","1","2","demographics","age","0","0","0","0","22","1","2955"
"092320","01:07:19","142078570","794409030","5.0.14.0","1","3","demographics","gender","0","0","0","0","Male","1","4386"
"092220","20:06:34","122435304","385330982","5.0.14.0","1","1","demographics","ProlificCode","0","0","0","0","5af36fff59229a0001d1bd6a","1","24742"
"092220","20:06:34","122435304","385330982","5.0.14.0","1","2","demographics","age","0","0","0","0","31","1","7563"
"092220","20:06:34","122435304","385330982","5.0.14.0","1","3","demographics","gender","0","0","0","0","Female","1","24254"
"092320","01:07:19","818790489","557072655","5.0.14.0","1","1","demographics","ProlificCode","0","0","0","0","5f4aa54813fe2f65ad473dd4","1","14163"
"092320","01:07:19","818790489","557072655","5.0.14.0","1","2","demographics","age","0","0","0","0","23","1","7741"
"092320","01:07:19","818790489","557072655","5.0.14.0","1","3","demographics","gender","0","0","0","0","Male","1","3612"
"092320","02:05:59","490257632","691711631","5.0.14.0","1","1","demographics","ProlificCode","0","0","0","0","5f4b6e0114b99101ba69e5ae","1","20402"
"092320","02:05:59","490257632","691711631","5.0.14.0","1","2","demographics","age","0","0","0","0","23","1","4438"
"092320","02:05:59","490257632","691711631","5.0.14.0","1","3","demographics","gender","0","0","0","0","male","1","5269"
"092220","17:08:28","613575168","510335477","5.0.14.0","1","1","demographics","ProlificCode","0","0","0","0","5dc3cbecb1dabb2b983dfb15","1","7991"
"092220","17:08:28","613575168","510335477","5.0.14.0","1","2","demographics","age","0","0","0","0","20","1","3069"
"092220","17:08:28","613575168","510335477","5.0.14.0","1","3","demographics","gender","0","0","0","0","Male","1","2394"
"092320","01:09:05","141728490","258441397","5.0.14.0","1","1","demographics","ProlificCode","0","0","0","0","5d100f65b5b7bb0001ce159d","1","3646"
"092320","01:09:05","141728490","258441397","5.0.14.0","1","2","demographics","age","0","0","0","0","41","1","2902"
"092320","01:09:05","141728490","258441397","5.0.14.0","1","3","demographics","gender","0","0","0","0","Male","1","7827"
"092220","18:08:57","339951761","298153744","5.0.14.0","1","1","demographics","ProlificCode","0","0","0","0","5f5714975783961908276de3","1","10976"
"092220","18:08:57","339951761","298153744","5.0.14.0","1","2","demographics","age","0","0","0","0","20","1","3474"
"092220","18:08:57","339951761","298153744","5.0.14.0","1","3","demographics","gender","0","0","0","0","Male","1","3714"
"092220","20:09:17","300695030","428411988","5.0.14.0","1","1","demographics","ProlificCode","0","0","0","0","5f5ae3d852e4271f2ccc33ec","1","10823"
"092220","20:09:17","300695030","428411988","5.0.14.0","1","2","demographics","age","0","0","0","0","38","1","4434"
"092220","20:09:17","300695030","428411988","5.0.14.0","1","3","demographics","gender","0","0","0","0","Male","1","5873"
"092320","10:10:30","52039345","448683207","5.0.14.0","1","1","demographics","ProlificCode","0","0","0","0","5e92700c0e841a09f0e152bb","1","11726"
"092320","10:10:30","52039345","448683207","5.0.14.0","1","2","demographics","age","0","0","0","0","29","1","3126"
"092320","10:10:30","52039345","448683207","5.0.14.0","1","3","demographics","gender","0","0","0","0","Male","1","5127"
"092320","10:09:49","94003768","600151457","5.0.14.0","1","1","demographics","ProlificCode","0","0","0","0","5c9808eba71932000179c919","1","3700"
"092320","10:09:49","94003768","600151457","5.0.14.0","1","2","demographics","age","0","0","0","0","19","1","2615"
"092320","10:09:49","94003768","600151457","5.0.14.0","1","3","demographics","gender","0","0","0","0","Female","1","2456"
"092320","01:09:33","177055149","670907465","5.0.14.0","1","1","demographics","ProlificCode","0","0","0","0","5f4e0ed100dba5b03da01031","1","6563"
"092320","01:09:33","177055149","670907465","5.0.14.0","1","2","demographics","age","0","0","0","0","54","1","3910"
"092320","01:09:33","177055149","670907465","5.0.14.0","1","3","demographics","gender","0","0","0","0","54","1","5687"
"092320","01:09:39","615441384","642507638","5.0.14.0","1","1","demographics","ProlificCode","0","0","0","0","5e8a21665aceae6c86eef343","1","10523"
"092320","01:09:39","615441384","642507638","5.0.14.0","1","2","demographics","age","0","0","0","0","20","1","4991"
"092320","01:09:39","615441384","642507638","5.0.14.0","1","3","demographics","gender","0","0","0","0","Female","1","11829"
"092220","17:06:14","886463116","234099887","5.0.15.0","1","1","demographics","ProlificCode","0","0","0","0","5f40b2e93644201f24346e43","1","228285"
"092220","17:06:14","886463116","234099887","5.0.15.0","1","2","demographics","age","0","0","0","0","20","1","7774"
"092220","17:06:14","886463116","234099887","5.0.15.0","1","3","demographics","gender","0","0","0","0","Male","1","3395"
"092320","01:09:43","209360500","715508182","5.0.14.0","1","1","demographics","ProlificCode","0","0","0","0","5ea9916c3b32cf0dda50f621","1","10897"
"092320","01:09:43","209360500","715508182","5.0.14.0","1","2","demographics","age","0","0","0","0","30","1","5532"
"092320","01:09:43","209360500","715508182","5.0.14.0","1","3","demographics","gender","0","0","0","0","male","1","10352"
"092320","01:09:05","315343385","198630490","5.0.14.0","1","1","demographics","ProlificCode","0","0","0","0","5e1e5c3c80e02e1c36679187","1","72227"
"092320","01:09:05","315343385","198630490","5.0.14.0","1","2","demographics","age","0","0","0","0","61","1","8352"
"092320","01:09:05","315343385","198630490","5.0.14.0","1","3","demographics","gender","0","0","0","0","female","1","6529"
"092220","20:10:01","73084700","579534480","5.0.14.0","1","1","demographics","ProlificCode","0","0","0","0","5f4852d2c3368e1fe4d37734","1","11462"
"092220","20:10:01","73084700","579534480","5.0.14.0","1","2","demographics","age","0","0","0","0","22","1","3106"
"092220","20:10:01","73084700","579534480","5.0.14.0","1","3","demographics","gender","0","0","0","0","Male","1","25996"
"092220","20:10:43","67768542","574829249","5.0.14.0","1","1","demographics","ProlificCode","0","0","0","0","5a1f7dcf0fff620001a6e50f","1","13919"
"092220","20:10:43","67768542","574829249","5.0.14.0","1","2","demographics","age","0","0","0","0","21","1","3647"
"092220","20:10:43","67768542","574829249","5.0.14.0","1","3","demographics","gender","0","0","0","0","female","1","3183"
"092320","01:10:54","79977250","196690156","5.0.14.0","1","1","demographics","ProlificCode","0","0","0","0","58584aa98604ae000165e633","1","4498"
"092320","01:10:54","79977250","196690156","5.0.14.0","1","2","demographics","age","0","0","0","0","49","1","3213"
"092320","01:10:54","79977250","196690156","5.0.14.0","1","3","demographics","gender","0","0","0","0","female","1","5375"
"092320","01:07:34","143531941","795862402","5.0.14.0","1","1","demographics","ProlificCode","0","0","0","0","","1","220748"
"092220","18:14:11","433703156","156075734","5.0.14.0","1","1","demographics","ProlificCode","0","0","0","0","5e488868adfd1a325207d76b","1","18468"
"092220","18:14:11","433703156","156075734","5.0.14.0","1","2","demographics","age","0","0","0","0","21","1","18259"
"092220","18:14:11","433703156","156075734","5.0.14.0","1","3","demographics","gender","0","0","0","0","Male","1","5028"
"092220","19:11:08","146876700","43637020","5.0.14.0","1","1","demographics","ProlificCode","0","0","0","0","5f1117c532ec822feb4e08fe","1","20019"
"092220","19:11:08","146876700","43637020","5.0.14.0","1","2","demographics","age","0","0","0","0","40","1","3892"
"092220","19:11:08","146876700","43637020","5.0.14.0","1","3","demographics","gender","0","0","0","0","female","1","6997"
"092220","20:11:23","548165509","270239949","5.0.14.0","1","1","demographics","ProlificCode","0","0","0","0","5f4e8dcec1d87d097010ca0f","1","5706"
"092220","20:11:23","548165509","270239949","5.0.14.0","1","2","demographics","age","0","0","0","0","27","1","3167"
"092220","20:11:23","548165509","270239949","5.0.14.0","1","3","demographics","gender","0","0","0","0","Male","1","4643"
"092220","17:12:19","204445509","321158404","5.0.14.0","1","1","demographics","ProlificCode","0","0","0","0","5cfb0e38c2de5300195231e9","1","12021"
"092220","17:12:19","204445509","321158404","5.0.14.0","1","2","demographics","age","0","0","0","0","25","1","4876"
"092220","17:12:19","204445509","321158404","5.0.14.0","1","3","demographics","gender","0","0","0","0","Female","1","3812"
"092320","01:11:31","239554856","961927421","5.0.14.0","1","1","demographics","ProlificCode","0","0","0","0","59bc49e93c45a10001ccc853","1","7064"
"092320","01:11:31","239554856","961927421","5.0.14.0","1","2","demographics","age","0","0","0","0","55","1","5408"
"092320","01:11:31","239554856","961927421","5.0.14.0","1","3","demographics","gender","0","0","0","0","male","1","6889"
"092220","18:12:07","671746631","783553987","5.0.14.0","1","1","demographics","ProlificCode","0","0","0","0","5e485d34da7b942fc3606d64","1","7652"
"092220","18:12:07","671746631","783553987","5.0.14.0","1","2","demographics","age","0","0","0","0","26","1","5408"
"092220","18:12:07","671746631","783553987","5.0.14.0","1","3","demographics","gender","0","0","0","0","Male","1","2458"
"092320","01:11:57","940193862","967260119","5.0.14.0","1","1","demographics","ProlificCode","0","0","0","0","5f4e086dc185c2ae663710f4","1","16981"
"092320","01:11:57","940193862","967260119","5.0.14.0","1","2","demographics","age","0","0","0","0","20 ","1","5021"
"092320","01:11:57","940193862","967260119","5.0.14.0","1","3","demographics","gender","0","0","0","0","Female","1","5632"
"092220","20:12:31","597786940","15465830","5.0.14.0","1","1","demographics","ProlificCode","0","0","0","0","5c0ebe2eac685b0001cb1056","1","3784"
"092220","20:12:31","597786940","15465830","5.0.14.0","1","2","demographics","age","0","0","0","0","24","1","2402"
"092220","20:12:31","597786940","15465830","5.0.14.0","1","3","demographics","gender","0","0","0","0","Male","1","2811"
"092220","19:12:28","690163712","106664762","5.0.14.0","1","1","demographics","ProlificCode","0","0","0","0","5ecc5a663823de80ecbe966a","1","7436"
"092220","19:12:28","690163712","106664762","5.0.14.0","1","2","demographics","age","0","0","0","0","58","1","3435"
"092220","19:12:28","690163712","106664762","5.0.14.0","1","3","demographics","gender","0","0","0","0","male","1","6563"
"092220","20:12:41","420799076","989264176","5.0.14.0","1","1","demographics","ProlificCode","0","0","0","0","5f48dab70aa4ce3aa1914003","1","3528"
"092220","20:12:41","420799076","989264176","5.0.14.0","1","2","demographics","age","0","0","0","0","24","1","2757"
"092220","20:12:41","420799076","989264176","5.0.14.0","1","3","demographics","gender","0","0","0","0","male","1","2934"
"092220","20:13:07","838088851","949896208","5.0.14.0","1","1","demographics","ProlificCode","0","0","0","0","5f4ae6a7ad7baa6aecef4234","1","6143"
"092220","20:13:07","838088851","949896208","5.0.14.0","1","2","demographics","age","0","0","0","0","21","1","3590"
"092220","20:13:07","838088851","949896208","5.0.14.0","1","3","demographics","gender","0","0","0","0","male","1","4034"
"092320","01:13:02","882836680","84290678","5.0.14.0","1","1","demographics","ProlificCode","0","0","0","0","5eb44fb0caffba299096cc38","1","14845"
"092320","01:13:02","882836680","84290678","5.0.14.0","1","2","demographics","age","0","0","0","0","26","1","3852"
"092320","01:13:02","882836680","84290678","5.0.14.0","1","3","demographics","gender","0","0","0","0","M","1","4715"
"092320","01:13:16","601742557","713549915","5.0.14.0","1","1","demographics","ProlificCode","0","0","0","0","5bdb06b690b72a00013f5ed8","1","6319"
"092320","01:13:16","601742557","713549915","5.0.14.0","1","2","demographics","age","0","0","0","0","37","1","4522"
"092320","01:13:16","601742557","713549915","5.0.14.0","1","3","demographics","gender","0","0","0","0","female","1","5698"
"092220","19:14:17","636553740","451009319","5.0.14.0","1","1","demographics","ProlificCode","0","0","0","0","5d5af5b5bb10640016afd0ae","1","18635"
"092220","19:14:17","636553740","451009319","5.0.14.0","1","2","demographics","age","0","0","0","0","27","1","4631"
"092220","19:14:17","636553740","451009319","5.0.14.0","1","3","demographics","gender","0","0","0","0","female","1","3646"
"092220","20:14:37","170565148","442307994","5.0.14.0","1","1","demographics","ProlificCode","0","0","0","0","5eadb1668c05c509d8989288","1","8182"
"092220","20:14:37","170565148","442307994","5.0.14.0","1","2","demographics","age","0","0","0","0","27","1","2907"
"092220","20:14:37","170565148","442307994","5.0.14.0","1","3","demographics","gender","0","0","0","0","Male","1","3691"
"092320","01:14:48","226190258","108218819","5.0.14.0","1","1","demographics","ProlificCode","0","0","0","0","59ac6cfd2d73c00001e5c983","1","3599"
"092320","01:14:48","226190258","108218819","5.0.14.0","1","2","demographics","age","0","0","0","0","34","1","4274"
"092320","01:14:48","226190258","108218819","5.0.14.0","1","3","demographics","gender","0","0","0","0","female","1","6181"
"092320","10:14:56","543882427","815625259","5.0.14.0","1","1","demographics","ProlificCode","0","0","0","0","5eb8b4786ac161813a728935","1","5593"
"092320","10:14:56","543882427","815625259","5.0.14.0","1","2","demographics","age","0","0","0","0","45","1","4240"
"092320","10:14:56","543882427","815625259","5.0.14.0","1","3","demographics","gender","0","0","0","0","female","1","6179"
"092220","18:15:38","548727002","820190337","5.0.14.0","1","1","demographics","ProlificCode","0","0","0","0","5ed86c3d9a76dd000826f699","1","12682"
"092220","18:15:38","548727002","820190337","5.0.14.0","1","2","demographics","age","0","0","0","0","21","1","3420"
"092220","18:15:38","548727002","820190337","5.0.14.0","1","3","demographics","gender","0","0","0","0","female","1","4354"
"092220","20:15:43","175997524","743586875","5.0.14.0","1","1","demographics","ProlificCode","0","0","0","0","5f4a5b216432ef5d3b29f801","1","11274"
"092220","20:15:43","175997524","743586875","5.0.14.0","1","2","demographics","age","0","0","0","0","23","1","2557"
"092220","20:15:43","175997524","743586875","5.0.14.0","1","3","demographics","gender","0","0","0","0","male","1","3206"
"092220","20:15:47","29351927","596941280","5.0.14.0","1","1","demographics","ProlificCode","0","0","0","0","5e8bfc63e53da90ec5673f11","1","7715"
"092220","20:15:47","29351927","596941280","5.0.14.0","1","2","demographics","age","0","0","0","0","36","1","4008"
"092220","20:15:47","29351927","596941280","5.0.14.0","1","3","demographics","gender","0","0","0","0","Female","1","5472"
"092220","19:16:17","551041985","508066119","5.0.14.0","1","1","demographics","ProlificCode","0","0","0","0","5f2c9cb290dca307be2a5b22","1","14698"
"092220","19:16:17","551041985","508066119","5.0.14.0","1","2","demographics","age","0","0","0","0","23","1","2949"
"092220","19:16:17","551041985","508066119","5.0.14.0","1","3","demographics","gender","0","0","0","0","male","1","4482"
"092320","01:16:34","694733687","203317747","5.0.14.0","1","1","demographics","ProlificCode","0","0","0","0","5d06c925e70cc40016e1bef2","1","4301"
"092320","01:16:34","694733687","203317747","5.0.14.0","1","2","demographics","age","0","0","0","0","31","1","3355"
"092320","01:16:34","694733687","203317747","5.0.14.0","1","3","demographics","gender","0","0","0","0","Male","1","6713"
"092220","20:16:41","246197214","118480252","5.0.14.0","1","1","demographics","ProlificCode","0","0","0","0","5dee5020787ce54ef29bddcf","1","4946"
"092220","20:16:41","246197214","118480252","5.0.14.0","1","2","demographics","age","0","0","0","0","42","1","2703"
"092220","20:16:41","246197214","118480252","5.0.14.0","1","3","demographics","gender","0","0","0","0","Male","1","4128"
"092320","01:16:13","666976334","624000466","5.0.14.0","1","1","demographics","ProlificCode","0","0","0","0","5ea1f8de2ac60d0fbf1e5624","1","36525"
"092320","01:16:13","666976334","624000466","5.0.14.0","1","2","demographics","age","0","0","0","0","56","1","2985"
"092320","01:16:13","666976334","624000466","5.0.14.0","1","3","demographics","gender","0","0","0","0","Male","1","4068"
"092220","20:16:40","242712849","114995886","5.0.14.0","1","1","demographics","ProlificCode","0","0","0","0","578b7f0e900cc80001d2e55f","1","9746"
"092220","20:16:40","242712849","114995886","5.0.14.0","1","2","demographics","age","0","0","0","0","33","1","3057"
"092220","20:16:40","242712849","114995886","5.0.14.0","1","3","demographics","gender","0","0","0","0","Female","1","5776"
"092320","01:12:54","397059359","119431940","5.0.14.0","1","1","demographics","ProlificCode","0","0","0","0","","1","245393"
"092320","01:15:58","640762985","951208388","5.0.14.0","1","1","demographics","ProlificCode","0","0","0","0"," 5f2cacd7c19dfd1a2dc88ffe","1","63530"
"092320","01:15:58","640762985","951208388","5.0.14.0","1","2","demographics","age","0","0","0","0","24","1","6434"
"092320","01:15:58","640762985","951208388","5.0.14.0","1","3","demographics","gender","0","0","0","0","Male","1","4723"
"092320","01:15:32","81938280","649527637","5.0.14.0","1","1","demographics","ProlificCode","0","0","0","0","5dbfd97bd81910439ca813b3","1","15932"
"092320","01:15:32","81938280","649527637","5.0.14.0","1","2","demographics","age","0","0","0","0","23","1","2317"
"092320","01:15:32","81938280","649527637","5.0.14.0","1","3","demographics","gender","0","0","0","0","m","1","2289"
"092220","19:17:08","605189399","562213533","5.0.14.0","1","1","demographics","ProlificCode","0","0","0","0","5f356a45273930520ded9451","1","5669"
"092220","19:17:08","605189399","562213533","5.0.14.0","1","2","demographics","age","0","0","0","0","30","1","3723"
"092220","19:17:08","605189399","562213533","5.0.14.0","1","3","demographics","gender","0","0","0","0","male","1","5179"
"092220","21:45:49","369459177","251487735","5.0.14.0","1","1","demographics","ProlificCode","0","0","0","0","5f3ffcf0e4e2480dd89f6cfe","1","88123"
"092220","21:45:49","369459177","251487735","5.0.14.0","1","2","demographics","age","0","0","0","0","22","1","2739"
"092220","21:45:49","369459177","251487735","5.0.14.0","1","3","demographics","gender","0","0","0","0","f","1","2306"
"092320","08:17:04","315487548","577205371","5.0.14.0","1","1","demographics","ProlificCode","0","0","0","0","5d256883e36e710019509985","1","9593"
"092320","08:17:04","315487548","577205371","5.0.14.0","1","2","demographics","age","0","0","0","0","45","1","6078"
"092320","08:17:04","315487548","577205371","5.0.14.0","1","3","demographics","gender","0","0","0","0","Male","1","4199"
"092220","20:13:18","620043731","647109982","5.0.14.0","1","1","demographics","ProlificCode","0","0","0","0","","1","53972"
"092220","20:17:18","697454191","654180193","5.0.14.0","1","1","demographics","ProlificCode","0","0","0","0","5f4d6f436cc10ea27eea4166","1","5614"
"092220","20:17:18","697454191","654180193","5.0.14.0","1","2","demographics","age","0","0","0","0","22","1","5932"
"092220","20:17:18","697454191","654180193","5.0.14.0","1","3","demographics","gender","0","0","0","0","Female","1","7057"
"092320","01:17:22","90699371","352417206","5.0.14.0","1","1","demographics","ProlificCode","0","0","0","0","5ba0181462e04c0001f76d2b","1","6110"
"092320","01:17:22","90699371","352417206","5.0.14.0","1","2","demographics","age","0","0","0","0","50","1","3405"
"092320","01:17:22","90699371","352417206","5.0.14.0","1","3","demographics","gender","0","0","0","0","female","1","4961"
"092220","17:17:28","886800884","693914553","5.0.14.0","1","1","demographics","ProlificCode","0","0","0","0","5ede792f5c27ee0e428edd0e","1","14266"
"092220","17:17:28","886800884","693914553","5.0.14.0","1","2","demographics","age","0","0","0","0","31","1","2752"
"092220","17:17:28","886800884","693914553","5.0.14.0","1","3","demographics","gender","0","0","0","0","Male","1","5059"
"092320","10:17:37","90401244","352119079","5.0.14.0","1","1","demographics","ProlificCode","0","0","0","0","5b532ca12a4d0c0001ae2a1d","1","20354"
"092320","10:17:37","90401244","352119079","5.0.14.0","1","2","demographics","age","0","0","0","0","23","1","2339"
"092320","10:17:37","90401244","352119079","5.0.14.0","1","3","demographics","gender","0","0","0","0","Male","1","3151"
"092320","01:17:39","492292037","107151070","5.0.14.0","1","1","demographics","ProlificCode","0","0","0","0","5b5b3bf63abd15000153afb5","1","18088"
"092320","01:17:39","492292037","107151070","5.0.14.0","1","2","demographics","age","0","0","0","0","27","1","3765"
"092320","01:17:39","492292037","107151070","5.0.14.0","1","3","demographics","gender","0","0","0","0","male","1","10340"
"092220","19:18:21","29217003","142202210","5.0.14.0","1","1","demographics","ProlificCode","0","0","0","0","","1","19521"
"092220","20:18:31","800701385","384200319","5.0.14.0","1","1","demographics","ProlificCode","0","0","0","0","5c95970cd676900016e1a940 ","1","3869"
"092220","20:18:31","800701385","384200319","5.0.14.0","1","2","demographics","age","0","0","0","0","42","1","3217"
"092220","20:18:31","800701385","384200319","5.0.14.0","1","3","demographics","gender","0","0","0","0","Female","1","5953"
"092220","19:18:26","671736904","644670624","5.0.14.0","1","1","demographics","ProlificCode","0","0","0","0","5dfe3e8b7adf4bade99190f0","1","10354"
"092220","19:18:26","671736904","644670624","5.0.14.0","1","2","demographics","age","0","0","0","0","44","1","3184"
"092220","19:18:26","671736904","644670624","5.0.14.0","1","3","demographics","gender","0","0","0","0","Male","1","3658"
"092220","19:18:09","404010058","820511102","5.0.14.0","1","1","demographics","ProlificCode","0","0","0","0","5d2006fab134f70001d18ce6","1","10968"
"092220","19:18:09","404010058","820511102","5.0.14.0","1","2","demographics","age","0","0","0","0","51","1","7164"
"092220","19:18:09","404010058","820511102","5.0.14.0","1","3","demographics","gender","0","0","0","0","Female","1","7298"
"092220","20:18:31","843292849","581575012","5.0.14.0","1","1","demographics","ProlificCode","0","0","0","0","5a16eb755d06850001b00bea","1","18279"
"092220","20:18:31","843292849","581575012","5.0.14.0","1","2","demographics","age","0","0","0","0","23","1","2701"
"092220","20:18:31","843292849","581575012","5.0.14.0","1","3","demographics","gender","0","0","0","0","male","1","3171"
"092220","20:18:09","500900472","119355666","5.0.14.0","1","1","demographics","ProlificCode","0","0","0","0","5f4dda4da9ba62abb1b5106c","1","10058"
"092220","20:18:09","500900472","119355666","5.0.14.0","1","2","demographics","age","0","0","0","0","22","1","2048"
"092220","20:18:09","500900472","119355666","5.0.14.0","1","3","demographics","gender","0","0","0","0","Female","1","5507"
"092220","21:18:50","881618690","854552412","5.0.14.0","1","1","demographics","ProlificCode","0","0","0","0","57fefff657ee39000120e089","1","14400"
"092220","21:18:50","881618690","854552412","5.0.14.0","1","2","demographics","age","0","0","0","0","31 ","1","3256"
"092220","21:18:50","881618690","854552412","5.0.14.0","1","3","demographics","gender","0","0","0","0","Female","1","4266"
"092320","00:45:26","423421830","536407036","5.0.14.0","1","1","demographics","ProlificCode","0","0","0","0","","1","2031036"
"092220","21:19:11","843439732","816373454","5.0.14.0","1","1","demographics","ProlificCode","0","0","0","0","57d0540392da98000100c72f","1","6765"
"092220","21:19:11","843439732","816373454","5.0.14.0","1","2","demographics","age","0","0","0","0","33","1","1250"
"092220","21:19:11","843439732","816373454","5.0.14.0","1","3","demographics","gender","0","0","0","0","FEMALE","1","5772"
"092220","20:17:49","94881627","289704678","5.0.14.0","1","1","demographics","ProlificCode","0","0","0","0","5c8c8f6541f0e600011072ab","1","89903"
"092220","20:17:49","94881627","289704678","5.0.14.0","1","2","demographics","age","0","0","0","0","33","1","6985"
"092220","20:17:49","94881627","289704678","5.0.14.0","1","3","demographics","gender","0","0","0","0","Female","1","4474"
"092320","01:19:13","720206954","301637623","5.0.14.0","1","1","demographics","ProlificCode","0","0","0","0","5c5208dee3209c000177e957","1","6304"
"092320","01:19:13","720206954","301637623","5.0.14.0","1","2","demographics","age","0","0","0","0","59","1","5421"
"092320","01:19:13","720206954","301637623","5.0.14.0","1","3","demographics","gender","0","0","0","0","male","1","7069"
"092320","01:17:06","353658429","847227283","5.0.14.0","1","1","demographics","ProlificCode","0","0","0","0","5f29ed73209c1b1a178602e3 ","1","14078"
"092320","01:17:06","353658429","847227283","5.0.14.0","1","2","demographics","age","0","0","0","0","24","1","4396"
"092320","01:17:06","353658429","847227283","5.0.14.0","1","3","demographics","gender","0","0","0","0","MALE","1","6401"
"092320","02:18:57","466341659","569581337","5.0.15.0","1","1","demographics","ProlificCode","0","0","0","0","","1","37696"
"092320","01:19:20","451286216","554805391","5.0.14.0","1","1","demographics","ProlificCode","0","0","0","0","5f2c7ef7eacaa9165aeb3401","1","11857"
"092320","01:19:20","451286216","554805391","5.0.14.0","1","2","demographics","age","0","0","0","0","19","1","4102"
"092320","01:19:20","451286216","554805391","5.0.14.0","1","3","demographics","gender","0","0","0","0","male","1","2786"
"092220","19:19:47","486931687","959767587","5.0.14.0","1","1","demographics","ProlificCode","0","0","0","0","5e65c211b45c6432d8227e4c","1","8081"
"092220","19:19:47","486931687","959767587","5.0.14.0","1","2","demographics","age","0","0","0","0","24","1","1667"
"092220","19:19:47","486931687","959767587","5.0.14.0","1","3","demographics","gender","0","0","0","0","Female ","1","2462"
"092320","01:20:17","597387947","69925725","5.0.14.0","1","1","demographics","ProlificCode","0","0","0","0","5f02868eb1a7a9139228bbf3","1","7783"
"092320","01:20:17","597387947","69925725","5.0.14.0","1","2","demographics","age","0","0","0","0","31","1","3431"
"092320","01:20:17","597387947","69925725","5.0.14.0","1","3","demographics","gender","0","0","0","0","Male","1","4440"
"092220","20:20:17","663390661","852549266","5.0.14.0","1","1","demographics","ProlificCode","0","0","0","0","5f0484307569b9086fd166a1","1","7774"
"092220","20:20:17","663390661","852549266","5.0.14.0","1","2","demographics","age","0","0","0","0","25","1","2554"
"092220","20:20:17","663390661","852549266","5.0.14.0","1","3","demographics","gender","0","0","0","0","Male","1","4740"
"092220","20:20:10","612089363","84627140","5.0.14.0","1","1","demographics","ProlificCode","0","0","0","0","5a6fec42ff6f2300013ee471","1","20376"
"092220","20:20:10","612089363","84627140","5.0.14.0","1","2","demographics","age","0","0","0","0","37","1","4592"
"092220","20:20:10","612089363","84627140","5.0.14.0","1","3","demographics","gender","0","0","0","0","Male","1","7395"
"092220","19:21:12","933349686","126236003","5.0.14.0","1","1","demographics","ProlificCode","0","0","0","0","5f569e71ae1bf40eae8b5e28","1","7191"
"092220","19:21:12","933349686","126236003","5.0.14.0","1","2","demographics","age","0","0","0","0","25","1","3530"
"092220","19:21:12","933349686","126236003","5.0.14.0","1","3","demographics","gender","0","0","0","0","Non-binary","1","5586"
"092320","01:20:30","694388206","807373390","5.0.14.0","1","1","demographics","ProlificCode","0","0","0","0","55b75944fdf99b6e0c49981b","1","4995"
"092320","01:20:30","694388206","807373390","5.0.14.0","1","2","demographics","age","0","0","0","0","50","1","7337"
"092320","01:20:30","694388206","807373390","5.0.14.0","1","3","demographics","gender","0","0","0","0","Male","1","8891"
"092320","01:20:44","621627165","205126093","5.0.14.0","1","1","demographics","ProlificCode","0","0","0","0","5bef31aa059b3200010715dc","1","7449"
"092320","01:20:44","621627165","205126093","5.0.14.0","1","2","demographics","age","0","0","0","0","32","1","3187"
"092320","01:20:44","621627165","205126093","5.0.14.0","1","3","demographics","gender","0","0","0","0","Female","1","3330"
"092320","10:20:43","763423370","875514166","5.0.14.0","1","1","demographics","ProlificCode","0","0","0","0","5bf0f67f11439b000168f513","1","10447"
"092320","10:20:43","763423370","875514166","5.0.14.0","1","2","demographics","age","0","0","0","0","25","1","2215"
"092320","10:20:43","763423370","875514166","5.0.14.0","1","3","demographics","gender","0","0","0","0","Female","1","4176"
"092320","10:20:42","111438999","299419793","5.0.14.0","1","1","demographics","ProlificCode","0","0","0","0","5e8e7b44e32229132e24c2c1","1","12709"
"092320","10:20:42","111438999","299419793","5.0.14.0","1","2","demographics","age","0","0","0","0","33","1","3932"
"092320","10:20:42","111438999","299419793","5.0.14.0","1","3","demographics","gender","0","0","0","0","Male","1","4939"
"092220","20:22:11","603437379","96111852","5.0.14.0","1","1","demographics","ProlificCode","0","0","0","0","5d144f6ff652ea0001e8d088","1","7952"
"092220","20:22:11","603437379","96111852","5.0.14.0","1","2","demographics","age","0","0","0","0","43","1","3879"
"092220","20:22:11","603437379","96111852","5.0.14.0","1","3","demographics","gender","0","0","0","0","male","1","3042"
"092220","20:22:12","857280784","739309332","5.0.14.0","1","1","demographics","ProlificCode","0","0","0","0","5ee17f66543b88575f77cfce","1","13277"
"092220","20:22:12","857280784","739309332","5.0.14.0","1","2","demographics","age","0","0","0","0","25","1","2772"
"092220","20:22:12","857280784","739309332","5.0.14.0","1","3","demographics","gender","0","0","0","0","female","1","4245"
"092220","17:22:23","762867528","644896067","5.0.14.0","1","1","demographics","ProlificCode","0","0","0","0","5f28f9afa418052591d8b496","1","8312"
"092220","17:22:23","762867528","644896067","5.0.14.0","1","2","demographics","age","0","0","0","0","34","1","3282"
"092220","17:22:23","762867528","644896067","5.0.14.0","1","3","demographics","gender","0","0","0","0","Male","1","3626"
"092220","17:22:29","985020851","262648276","5.0.14.0","1","1","demographics","ProlificCode","0","0","0","0","5e5d8d190272740aa1029258","1","8287"
"092220","17:22:29","985020851","262648276","5.0.14.0","1","2","demographics","age","0","0","0","0","20","1","4326"
"092220","17:22:29","985020851","262648276","5.0.14.0","1","3","demographics","gender","0","0","0","0","female","1","3307"
"092320","10:22:29","846250065","728278613","5.0.14.0","1","1","demographics","ProlificCode","0","0","0","0","5f2fa4f55f5bb30008902739","1","18927"
"092320","10:22:29","846250065","728278613","5.0.14.0","1","2","demographics","age","0","0","0","0","30","1","3099"
"092320","10:22:29","846250065","728278613","5.0.14.0","1","3","demographics","gender","0","0","0","0","female","1","3983"
"092220","20:21:27","530868239","3406018","5.0.14.0","1","1","demographics","ProlificCode","0","0","0","0","5d5ce1ec2daaa80015e1e168  ","1","52844"
"092220","19:22:33","108363862","385991285","5.0.14.0","1","1","demographics","ProlificCode","0","0","0","0","5f25e9bf321a452eaeae8bf2","1","28592"
"092220","19:22:33","108363862","385991285","5.0.14.0","1","2","demographics","age","0","0","0","0","29","1","3015"
"092220","19:22:33","108363862","385991285","5.0.14.0","1","3","demographics","gender","0","0","0","0","male","1","3951"
"092320","01:22:38","799599619","27740312","5.0.14.0","1","1","demographics","ProlificCode","0","0","0","0","5ef47e6e6ef89103cc49994b","1","22943"
"092320","01:22:38","799599619","27740312","5.0.14.0","1","2","demographics","age","0","0","0","0","18","1","3791"
"092320","01:22:38","799599619","27740312","5.0.14.0","1","3","demographics","gender","0","0","0","0","female","1","4926"
"092220","17:22:47","133781950","751357436","5.0.14.0","1","1","demographics","ProlificCode","0","0","0","0","5ddcbca2798297c203d13723","1","13232"
"092220","17:22:47","133781950","751357436","5.0.14.0","1","2","demographics","age","0","0","0","0","33","1","2143"
"092220","17:22:47","133781950","751357436","5.0.14.0","1","3","demographics","gender","0","0","0","0","male","1","3234"
"092220","17:23:03","38530950","309994302","5.0.14.0","1","1","demographics","ProlificCode","0","0","0","0","5df15818de8da606f8ed7fdb","1","11862"
"092220","17:23:03","38530950","309994302","5.0.14.0","1","2","demographics","age","0","0","0","0","18","1","4575"
"092220","17:23:03","38530950","309994302","5.0.14.0","1","3","demographics","gender","0","0","0","0","Female","1","3161"
"092320","09:23:08","81575650","978335963","5.0.14.0","1","1","demographics","ProlificCode","0","0","0","0","5f45a607b34be71ce319317a","1","12659"
"092320","09:23:08","81575650","978335963","5.0.14.0","1","2","demographics","age","0","0","0","0","41","1","2973"
"092320","09:23:08","81575650","978335963","5.0.14.0","1","3","demographics","gender","0","0","0","0","male","1","3855"
"092320","01:23:28","812981239","74997195","5.0.14.0","1","1","demographics","ProlificCode","0","0","0","0","597bbb74ae36d500016cb895","1","5677"
"092320","01:23:28","812981239","74997195","5.0.14.0","1","2","demographics","age","0","0","0","0","60","1","5017"
"092320","01:23:28","812981239","74997195","5.0.14.0","1","3","demographics","gender","0","0","0","0","male","1","5604"
"092220","20:23:17","948759697","210477529","5.0.14.0","1","1","demographics","ProlificCode","0","0","0","0","5e138a60946e979c5d080c4c","1","5379"
"092220","20:23:17","948759697","210477529","5.0.14.0","1","2","demographics","age","0","0","0","0","20","1","9185"
"092220","20:23:17","948759697","210477529","5.0.14.0","1","3","demographics","gender","0","0","0","0","male","1","2465"
"092220","19:23:07","534120181","406403222","5.0.14.0","1","1","demographics","ProlificCode","0","0","0","0","5b677778dc84c60001741282","1","12457"
"092220","19:23:07","534120181","406403222","5.0.14.0","1","2","demographics","age","0","0","0","0","30","1","5667"
"092220","19:23:07","534120181","406403222","5.0.14.0","1","3","demographics","gender","0","0","0","0","Male","1","7454"
"092220","17:23:25","782748908","664777447","5.0.14.0","1","1","demographics","ProlificCode","0","0","0","0","5c4032669e35e70001c25f6c","1","5013"
"092220","17:23:25","782748908","664777447","5.0.14.0","1","2","demographics","age","0","0","0","0","34","1","3802"
"092220","17:23:25","782748908","664777447","5.0.14.0","1","3","demographics","gender","0","0","0","0","Female","1","5938"
"092220","17:23:30","853452053","115169881","5.0.14.0","1","1","demographics","ProlificCode","0","0","0","0","5a5bed3a76d1c60001ab3c4c","1","15990"
"092220","17:23:30","853452053","115169881","5.0.14.0","1","2","demographics","age","0","0","0","0","29","1","5594"
"092220","17:23:30","853452053","115169881","5.0.14.0","1","3","demographics","gender","0","0","0","0","Male","1","2956"
"092220","19:24:07","645807933","917271266","5.0.14.0","1","1","demographics","ProlificCode","0","0","0","0","5acfc892d9f7470001db04d6","1","2919"
"092220","19:24:07","645807933","917271266","5.0.14.0","1","2","demographics","age","0","0","0","0","32","1","1759"
"092220","19:24:07","645807933","917271266","5.0.14.0","1","3","demographics","gender","0","0","0","0","male","1","3335"
"092220","20:24:18","700563441","889722044","5.0.14.0","1","1","demographics","ProlificCode","0","0","0","0","5eb874e6c1a2497c3e723cdd","1","11172"
"092220","20:24:18","700563441","889722044","5.0.14.0","1","2","demographics","age","0","0","0","0","31","1","2672"
"092220","20:24:18","700563441","889722044","5.0.14.0","1","3","demographics","gender","0","0","0","0","female","1","4619"
"092220","20:24:53","933372792","585703245","5.0.14.0","1","1","demographics","ProlificCode","0","0","0","0","5f0f433757b4760d3f185e97","1","5915"
"092220","20:24:53","933372792","585703245","5.0.14.0","1","2","demographics","age","0","0","0","0","31","1","1821"
"092220","20:24:53","933372792","585703245","5.0.14.0","1","3","demographics","gender","0","0","0","0","Female","1","3277"
"092320","01:25:03","642940488","346434907","5.0.14.0","1","1","demographics","ProlificCode","0","0","0","0","5cf94ae16dc72d001a0ba4d2","1","6750"
"092320","01:25:03","642940488","346434907","5.0.14.0","1","2","demographics","age","0","0","0","0","31","1","3062"
"092320","01:25:03","642940488","346434907","5.0.14.0","1","3","demographics","gender","0","0","0","0","Female","1","3973"
"092220","20:25:16","211524397","439665093","5.0.14.0","1","1","demographics","ProlificCode","0","0","0","0","5e69d26e9452140389f5070f","1","6009"
"092220","20:25:16","211524397","439665093","5.0.14.0","1","2","demographics","age","0","0","0","0","33","1","3333"
"092220","20:25:16","211524397","439665093","5.0.14.0","1","3","demographics","gender","0","0","0","0","Male","1","5962"
"092320","01:23:34","158618725","241721720","5.0.14.0","1","1","demographics","ProlificCode","0","0","0","0","5ead920999a2df42100a2c42","1","63398"
"092320","01:23:34","158618725","241721720","5.0.14.0","1","2","demographics","age","0","0","0","0","35","1","8785"
"092320","01:23:34","158618725","241721720","5.0.14.0","1","3","demographics","gender","0","0","0","0","Male","1","6505"
"092320","01:25:08","708205648","590234190","5.0.14.0","1","1","demographics","ProlificCode","0","0","0","0","5f2f2e85c14511319b159fff","1","12359"
"092320","01:25:08","708205648","590234190","5.0.14.0","1","2","demographics","age","0","0","0","0","26","1","2618"
"092320","01:25:08","708205648","590234190","5.0.14.0","1","3","demographics","gender","0","0","0","0","female","1","5884"
"092320","01:25:16","813544156","76439821","5.0.14.0","1","1","demographics","ProlificCode","0","0","0","0","5d3d82ce29130a00195cd74f","1","15518"
"092320","01:25:16","813544156","76439821","5.0.14.0","1","2","demographics","age","0","0","0","0","20","1","4871"
"092320","01:25:16","813544156","76439821","5.0.14.0","1","3","demographics","gender","0","0","0","0","Male","1","4163"
"092220","20:25:53","891839903","544170352","5.0.14.0","1","1","demographics","ProlificCode","0","0","0","0","5d1b4ec634783e0001336019","1","10178"
"092220","20:25:53","891839903","544170352","5.0.14.0","1","2","demographics","age","0","0","0","0","20","1","3325"
"092220","20:25:53","891839903","544170352","5.0.14.0","1","3","demographics","gender","0","0","0","0","female","1","4390"
"092320","10:25:04","643543643","847732133","5.0.14.0","1","1","demographics","ProlificCode","0","0","0","0","5f464df57d590e000aefb586","1","13380"
"092320","10:25:04","643543643","847732133","5.0.14.0","1","2","demographics","age","0","0","0","0","22","1","4965"
"092320","10:25:04","643543643","847732133","5.0.14.0","1","3","demographics","gender","0","0","0","0","female","1","4420"
"092220","17:25:40","813246028","76141693","5.0.14.0","1","1","demographics","ProlificCode","0","0","0","0","5c9c05678ba35500015dbc29","1","24112"
"092220","17:25:40","813246028","76141693","5.0.14.0","1","2","demographics","age","0","0","0","0","55","1","5584"
"092220","17:25:40","813246028","76141693","5.0.14.0","1","3","demographics","gender","0","0","0","0","Male","1","9272"
"092220","20:26:03","931583664","744861409","5.0.14.0","1","1","demographics","ProlificCode","0","0","0","0","5c159f7745de2c000133c3f2","1","22938"
"092220","20:26:03","931583664","744861409","5.0.14.0","1","2","demographics","age","0","0","0","0","37","1","3093"
"092220","20:26:03","931583664","744861409","5.0.14.0","1","3","demographics","gender","0","0","0","0","male","1","2693"
"092320","01:26:32","808142944","280680726","5.0.14.0","1","1","demographics","ProlificCode","0","0","0","0","5aca34565cd1050001626480","1","4484"
