"date","time","group","subject","build","blocknum","trialnum","blockcode","trialcode","pretrialpause","posttrialpause","windowcenter","trialduration","trialtimeout","blocktimeout","response","correct","latency","inwindow","stimulusnumber1","stimulusitem1","stimulusvpos1","stimulushpos1","stimulusonset1","stimulusnumber2","stimulusitem2","stimulusvpos2","stimulushpos2","stimulusonset2","stimulusnumber3","stimulusitem3","stimulusvpos3","stimulushpos3","stimulusonset3","stimulusnumber4","stimulusitem4","stimulusvpos4","stimulushpos4","stimulusonset4","stimulusnumber5","stimulusitem5","stimulusvpos5","stimulushpos5","stimulusonset5"
"062320","13:37:42","295730169","987281493","4.0.10.0","1","3","practice","prime_positive_practice","0","0","0","0","0","0","23","1","686","0","1","+","50pct","50pct","-8","11","pleasant11.jpg","50pct","50pct","491","1","blank","50pct","50pct","591","14","pic14.jpg","50pct","50pct","691","1","mask.jpg","50pct","50pct","791"
"062320","13:37:42","295730169","987281493","4.0.10.0","1","4","practice","prime_negative_practice","0","0","0","0","0","0","57","0","1740","0","1","+","50pct","50pct","-8","10","unpleasant10.jpg","50pct","50pct","491","1","blank","50pct","50pct","591","57","pic57.jpg","50pct","50pct","691","1","mask.jpg","50pct","50pct","791"
"062320","13:37:42","295730169","987281493","4.0.10.0","1","5","practice","prime_positive_practice","0","0","0","0","0","0","23","1","1339","0","1","+","50pct","50pct","-8","10","pleasant10.jpg","50pct","50pct","491","1","blank","50pct","50pct","591","49","pic49.jpg","50pct","50pct","691","1","mask.jpg","50pct","50pct","791"
"062320","13:37:42","295730169","987281493","4.0.10.0","1","6","practice","prime_negative_practice","0","0","0","0","0","0","23","1","2667","0","1","+","50pct","50pct","-8","11","unpleasant11.jpg","50pct","50pct","491","1","blank","50pct","50pct","591","19","pic19.jpg","50pct","50pct","691","1","mask.jpg","50pct","50pct","791"
"062320","13:37:42","295730169","987281493","4.0.10.0","1","7","practice","prime_negative_practice","0","0","0","0","0","0","57","0","1378","0","1","+","50pct","50pct","-8","12","unpleasant12.jpg","50pct","50pct","491","1","blank","50pct","50pct","591","62","pic62.jpg","50pct","50pct","691","1","mask.jpg","50pct","50pct","791"
"062320","13:37:42","295730169","987281493","4.0.10.0","1","8","practice","prime_positive_practice","0","0","0","0","0","0","Ctrl+'B'","1","1074","0","1","+","50pct","50pct","-8","4","pleasant4.jpg","50pct","50pct","491","1","blank","50pct","50pct","591","22","pic22.jpg","50pct","50pct","691","1","mask.jpg","50pct","50pct","791"
"062320","12:52:34","885483656","677932533","4.0.10.0","1","3","practice","prime_positive_practice","0","0","0","0","0","0","57","0","1450","0","1","+","50pct","50pct","0","4","pleasant4.jpg","50pct","50pct","499","1","blank","50pct","50pct","599","35","pic35.jpg","50pct","50pct","699","1","mask.jpg","50pct","50pct","799"
"062320","12:52:34","885483656","677932533","4.0.10.0","1","4","practice","prime_positive_practice","0","0","0","0","0","0","23","1","1393","0","1","+","50pct","50pct","0","8","pleasant8.jpg","50pct","50pct","499","1","blank","50pct","50pct","599","27","pic27.jpg","50pct","50pct","699","1","mask.jpg","50pct","50pct","799"
"062320","12:52:34","885483656","677932533","4.0.10.0","1","5","practice","prime_negative_practice","0","0","0","0","0","0","18","0","1184","0","1","+","50pct","50pct","0","8","unpleasant8.jpg","50pct","50pct","499","1","blank","50pct","50pct","599","3","pic3.jpg","50pct","50pct","699","1","mask.jpg","50pct","50pct","799"
"062320","12:52:34","885483656","677932533","4.0.10.0","1","6","practice","prime_negative_practice","0","0","0","0","0","0","57","0","2005","0","1","+","50pct","50pct","0","3","unpleasant3.jpg","50pct","50pct","499","1","blank","50pct","50pct","599","44","pic44.jpg","50pct","50pct","699","1","mask.jpg","50pct","50pct","799"
"062320","12:52:34","885483656","677932533","4.0.10.0","1","7","practice","prime_positive_practice","0","0","0","0","0","0","23","1","1025","0","1","+","50pct","50pct","0","12","pleasant12.jpg","50pct","50pct","499","1","blank","50pct","50pct","599","32","pic32.jpg","50pct","50pct","699","1","mask.jpg","50pct","50pct","799"
"062320","12:52:34","885483656","677932533","4.0.10.0","1","8","practice","prime_negative_practice","0","0","0","0","0","0","23","1","724","0","1","+","50pct","50pct","0","4","unpleasant4.jpg","50pct","50pct","499","1","blank","50pct","50pct","599","47","pic47.jpg","50pct","50pct","699","1","mask.jpg","50pct","50pct","799"
"062320","12:52:34","885483656","677932533","4.0.10.0","1","9","practice","prime_negative_practice","0","0","0","0","0","0","23","1","647","0","1","+","50pct","50pct","0","9","unpleasant9.jpg","50pct","50pct","499","1","blank","50pct","50pct","599","55","pic55.jpg","50pct","50pct","699","1","mask.jpg","50pct","50pct","799"
"062320","12:52:34","885483656","677932533","4.0.10.0","1","10","practice","prime_positive_practice","0","0","0","0","0","0","18","0","936","0","1","+","50pct","50pct","0","11","pleasant11.jpg","50pct","50pct","499","1","blank","50pct","50pct","599","71","pic71.jpg","50pct","50pct","699","1","mask.jpg","50pct","50pct","799"
"062320","12:52:34","885483656","677932533","4.0.10.0","1","11","practice","prime_positive_practice","0","0","0","0","0","0","23","1","1101","0","1","+","50pct","50pct","0","5","pleasant5.jpg","50pct","50pct","499","1","blank","50pct","50pct","599","37","pic37.jpg","50pct","50pct","699","1","mask.jpg","50pct","50pct","799"
"062320","12:52:34","885483656","677932533","4.0.10.0","1","12","practice","prime_negative_practice","0","0","0","0","0","0","18","0","1341","0","1","+","50pct","50pct","0","2","unpleasant2.jpg","50pct","50pct","499","1","blank","50pct","50pct","599","70","pic70.jpg","50pct","50pct","699","1","mask.jpg","50pct","50pct","799"
"062320","12:52:34","885483656","677932533","4.0.10.0","2","2","test","prime_negative","0","0","0","0","0","0","23","1","574","0","1","+","50pct","50pct","0","12","unpleasant12.jpg","50pct","50pct","499","1","blank","50pct","50pct","599","12","pic12.jpg","50pct","50pct","699","1","mask.jpg","50pct","50pct","799"
"062320","12:52:34","885483656","677932533","4.0.10.0","2","3","test","prime_positive","0","0","0","0","0","0","23","1","460","0","1","+","50pct","50pct","0","7","pleasant7.jpg","50pct","50pct","499","1","blank","50pct","50pct","599","63","pic63.jpg","50pct","50pct","699","1","mask.jpg","50pct","50pct","799"
"062320","12:52:34","885483656","677932533","4.0.10.0","2","4","test","prime_negative","0","0","0","0","0","0","18","0","750","0","1","+","50pct","50pct","0","10","unpleasant10.jpg","50pct","50pct","499","1","blank","50pct","50pct","599","53","pic53.jpg","50pct","50pct","699","1","mask.jpg","50pct","50pct","799"
"062320","12:52:34","885483656","677932533","4.0.10.0","2","5","test","prime_negative","0","0","0","0","0","0","18","0","1429","0","1","+","50pct","50pct","0","7","unpleasant7.jpg","50pct","50pct","499","1","blank","50pct","50pct","599","36","pic36.jpg","50pct","50pct","699","1","mask.jpg","50pct","50pct","799"
"062320","12:52:34","885483656","677932533","4.0.10.0","2","6","test","prime_negative","0","0","0","0","0","0","57","0","2933","0","1","+","50pct","50pct","0","5","unpleasant5.jpg","50pct","50pct","499","1","blank","50pct","50pct","599","65","pic65.jpg","50pct","50pct","699","1","mask.jpg","50pct","50pct","799"
"062320","12:52:34","885483656","677932533","4.0.10.0","2","7","test","prime_positive","0","0","0","0","0","0","23","1","599","0","1","+","50pct","50pct","0","9","pleasant9.jpg","50pct","50pct","499","1","blank","50pct","50pct","599","58","pic58.jpg","50pct","50pct","699","1","mask.jpg","50pct","50pct","799"
"062320","12:52:34","885483656","677932533","4.0.10.0","2","8","test","prime_positive","0","0","0","0","0","0","23","1","749","0","1","+","50pct","50pct","0","10","pleasant10.jpg","50pct","50pct","499","1","blank","50pct","50pct","599","64","pic64.jpg","50pct","50pct","699","1","mask.jpg","50pct","50pct","799"
"062320","12:52:34","885483656","677932533","4.0.10.0","2","9","test","prime_positive","0","0","0","0","0","0","23","1","622","0","1","+","50pct","50pct","0","2","pleasant2.jpg","50pct","50pct","499","1","blank","50pct","50pct","599","31","pic31.jpg","50pct","50pct","699","1","mask.jpg","50pct","50pct","799"
"062320","12:52:34","885483656","677932533","4.0.10.0","2","10","test","prime_negative","0","0","0","0","0","0","18","0","841","0","1","+","50pct","50pct","0","11","unpleasant11.jpg","50pct","50pct","499","1","blank","50pct","50pct","599","52","pic52.jpg","50pct","50pct","699","1","mask.jpg","50pct","50pct","799"
"062320","12:52:34","885483656","677932533","4.0.10.0","2","11","test","prime_positive","0","0","0","0","0","0","23","1","596","0","1","+","50pct","50pct","0","1","pleasant1.jpg","50pct","50pct","499","1","blank","50pct","50pct","599","42","pic42.jpg","50pct","50pct","699","1","mask.jpg","50pct","50pct","799"
"062320","12:52:34","885483656","677932533","4.0.10.0","2","12","test","prime_negative","0","0","0","0","0","0","57","0","1637","0","1","+","50pct","50pct","0","1","unpleasant1.jpg","50pct","50pct","499","1","blank","50pct","50pct","599","11","pic11.jpg","50pct","50pct","699","1","mask.jpg","50pct","50pct","799"
"062320","12:52:34","885483656","677932533","4.0.10.0","2","13","test","prime_positive","0","0","0","0","0","0","18","0","953","0","1","+","50pct","50pct","0","6","pleasant6.jpg","50pct","50pct","499","1","blank","50pct","50pct","599","7","pic7.jpg","50pct","50pct","699","1","mask.jpg","50pct","50pct","799"
"062320","12:52:34","885483656","677932533","4.0.10.0","2","14","test","prime_negative","0","0","0","0","0","0","23","1","684","0","1","+","50pct","50pct","0","6","unpleasant6.jpg","50pct","50pct","499","1","blank","50pct","50pct","599","46","pic46.jpg","50pct","50pct","699","1","mask.jpg","50pct","50pct","799"
"062320","12:52:34","885483656","677932533","4.0.10.0","2","15","test","prime_negative","0","0","0","0","0","0","23","1","618","0","1","+","50pct","50pct","0","5","unpleasant5.jpg","50pct","50pct","499","1","blank","50pct","50pct","599","66","pic66.jpg","50pct","50pct","699","1","mask.jpg","50pct","50pct","799"
"062320","12:52:34","885483656","677932533","4.0.10.0","2","16","test","prime_positive","0","0","0","0","0","0","18","0","721","0","1","+","50pct","50pct","0","3","pleasant3.jpg","50pct","50pct","499","1","blank","50pct","50pct","599","67","pic67.jpg","50pct","50pct","699","1","mask.jpg","50pct","50pct","799"
"062320","12:52:34","885483656","677932533","4.0.10.0","2","17","test","prime_negative","0","0","0","0","0","0","23","1","648","0","1","+","50pct","50pct","0","11","unpleasant11.jpg","50pct","50pct","499","1","blank","50pct","50pct","599","13","pic13.jpg","50pct","50pct","699","1","mask.jpg","50pct","50pct","799"
"062320","12:52:34","885483656","677932533","4.0.10.0","2","18","test","prime_negative","0","0","0","0","0","0","23","1","690","0","1","+","50pct","50pct","0","1","unpleasant1.jpg","50pct","50pct","499","1","blank","50pct","50pct","599","69","pic69.jpg","50pct","50pct","699","1","mask.jpg","50pct","50pct","799"
"062320","12:52:34","885483656","677932533","4.0.10.0","2","19","test","prime_positive","0","0","0","0","0","0","18","0","770","0","1","+","50pct","50pct","0","1","pleasant1.jpg","50pct","50pct","499","1","blank","50pct","50pct","599","68","pic68.jpg","50pct","50pct","699","1","mask.jpg","50pct","50pct","799"
"062320","12:52:34","885483656","677932533","4.0.10.0","2","20","test","prime_positive","0","0","0","0","0","0","18","0","1048","0","1","+","50pct","50pct","0","12","pleasant12.jpg","50pct","50pct","499","1","blank","50pct","50pct","599","22","pic22.jpg","50pct","50pct","699","1","mask.jpg","50pct","50pct","799"
"062320","12:52:34","885483656","677932533","4.0.10.0","2","21","test","prime_positive","0","0","0","0","0","0","23","1","639","0","1","+","50pct","50pct","0","2","pleasant2.jpg","50pct","50pct","499","1","blank","50pct","50pct","599","41","pic41.jpg","50pct","50pct","699","1","mask.jpg","50pct","50pct","799"
"062320","12:52:34","885483656","677932533","4.0.10.0","2","22","test","prime_positive","0","0","0","0","0","0","23","1","435","0","1","+","50pct","50pct","0","7","pleasant7.jpg","50pct","50pct","499","1","blank","50pct","50pct","599","14","pic14.jpg","50pct","50pct","699","1","mask.jpg","50pct","50pct","799"
"062320","12:52:34","885483656","677932533","4.0.10.0","2","23","test","prime_positive","0","0","0","0","0","0","23","1","385","0","1","+","50pct","50pct","0","10","pleasant10.jpg","50pct","50pct","499","1","blank","50pct","50pct","599","48","pic48.jpg","50pct","50pct","699","1","mask.jpg","50pct","50pct","799"
"062320","12:52:34","885483656","677932533","4.0.10.0","2","24","test","prime_negative","0","0","0","0","0","0","23","1","521","0","1","+","50pct","50pct","0","6","unpleasant6.jpg","50pct","50pct","499","1","blank","50pct","50pct","599","26","pic26.jpg","50pct","50pct","699","1","mask.jpg","50pct","50pct","799"
"062320","12:52:34","885483656","677932533","4.0.10.0","2","25","test","prime_negative","0","0","0","0","0","0","23","1","594","0","1","+","50pct","50pct","0","2","unpleasant2.jpg","50pct","50pct","499","1","blank","50pct","50pct","599","20","pic20.jpg","50pct","50pct","699","1","mask.jpg","50pct","50pct","799"
"062320","12:52:34","885483656","677932533","4.0.10.0","2","26","test","prime_negative","0","0","0","0","0","0","18","0","554","0","1","+","50pct","50pct","0","7","unpleasant7.jpg","50pct","50pct","499","1","blank","50pct","50pct","599","17","pic17.jpg","50pct","50pct","699","1","mask.jpg","50pct","50pct","799"
"062320","12:52:34","885483656","677932533","4.0.10.0","2","27","test","prime_positive","0","0","0","0","0","0","18","0","864","0","1","+","50pct","50pct","0","5","pleasant5.jpg","50pct","50pct","499","1","blank","50pct","50pct","599","5","pic5.jpg","50pct","50pct","699","1","mask.jpg","50pct","50pct","799"
"062320","12:52:34","885483656","677932533","4.0.10.0","2","28","test","prime_negative","0","0","0","0","0","0","23","1","507","0","1","+","50pct","50pct","0","4","unpleasant4.jpg","50pct","50pct","499","1","blank","50pct","50pct","599","1","pic1.jpg","50pct","50pct","699","1","mask.jpg","50pct","50pct","799"
"062320","12:52:34","885483656","677932533","4.0.10.0","2","29","test","prime_positive","0","0","0","0","0","0","23","1","467","0","1","+","50pct","50pct","0","4","pleasant4.jpg","50pct","50pct","499","1","blank","50pct","50pct","599","45","pic45.jpg","50pct","50pct","699","1","mask.jpg","50pct","50pct","799"
"062320","12:52:34","885483656","677932533","4.0.10.0","2","30","test","prime_positive","0","0","0","0","0","0","18","0","719","0","1","+","50pct","50pct","0","9","pleasant9.jpg","50pct","50pct","499","1","blank","50pct","50pct","599","24","pic24.jpg","50pct","50pct","699","1","mask.jpg","50pct","50pct","799"
"062320","12:52:34","885483656","677932533","4.0.10.0","2","31","test","prime_positive","0","0","0","0","0","0","23","1","586","0","1","+","50pct","50pct","0","8","pleasant8.jpg","50pct","50pct","499","1","blank","50pct","50pct","599","40","pic40.jpg","50pct","50pct","699","1","mask.jpg","50pct","50pct","799"
"062320","12:52:34","885483656","677932533","4.0.10.0","2","32","test","prime_positive","0","0","0","0","0","0","23","1","453","0","1","+","50pct","50pct","0","6","pleasant6.jpg","50pct","50pct","499","1","blank","50pct","50pct","599","34","pic34.jpg","50pct","50pct","699","1","mask.jpg","50pct","50pct","799"
"062320","12:52:34","885483656","677932533","4.0.10.0","2","33","test","prime_positive","0","0","0","0","0","0","23","1","441","0","1","+","50pct","50pct","0","3","pleasant3.jpg","50pct","50pct","499","1","blank","50pct","50pct","599","59","pic59.jpg","50pct","50pct","699","1","mask.jpg","50pct","50pct","799"
"062320","12:52:34","885483656","677932533","4.0.10.0","2","34","test","prime_positive","0","0","0","0","0","0","23","1","531","0","1","+","50pct","50pct","0","11","pleasant11.jpg","50pct","50pct","499","1","blank","50pct","50pct","599","15","pic15.jpg","50pct","50pct","699","1","mask.jpg","50pct","50pct","799"
"062320","12:52:34","885483656","677932533","4.0.10.0","2","35","test","prime_negative","0","0","0","0","0","0","23","1","1414","0","1","+","50pct","50pct","0","9","unpleasant9.jpg","50pct","50pct","499","1","blank","50pct","50pct","599","43","pic43.jpg","50pct","50pct","699","1","mask.jpg","50pct","50pct","799"
"062320","12:52:34","885483656","677932533","4.0.10.0","2","36","test","prime_negative","0","0","0","0","0","0","18","0","498","0","1","+","50pct","50pct","0","8","unpleasant8.jpg","50pct","50pct","499","1","blank","50pct","50pct","599","23","pic23.jpg","50pct","50pct","699","1","mask.jpg","50pct","50pct","799"
"062320","12:52:34","885483656","677932533","4.0.10.0","2","37","test","prime_positive","0","0","0","0","0","0","18","0","689","0","1","+","50pct","50pct","0","9","pleasant9.jpg","50pct","50pct","499","1","blank","50pct","50pct","599","2","pic2.jpg","50pct","50pct","699","1","mask.jpg","50pct","50pct","799"
"062320","12:52:34","885483656","677932533","4.0.10.0","2","38","test","prime_positive","0","0","0","0","0","0","18","0","1020","0","1","+","50pct","50pct","0","10","pleasant10.jpg","50pct","50pct","499","1","blank","50pct","50pct","599","57","pic57.jpg","50pct","50pct","699","1","mask.jpg","50pct","50pct","799"
"062320","12:52:34","885483656","677932533","4.0.10.0","2","39","test","prime_positive","0","0","0","0","0","0","18","0","743","0","1","+","50pct","50pct","0","7","pleasant7.jpg","50pct","50pct","499","1","blank","50pct","50pct","599","28","pic28.jpg","50pct","50pct","699","1","mask.jpg","50pct","50pct","799"
"062320","12:52:34","885483656","677932533","4.0.10.0","2","40","test","prime_positive","0","0","0","0","0","0","18","0","854","0","1","+","50pct","50pct","0","12","pleasant12.jpg","50pct","50pct","499","1","blank","50pct","50pct","599","25","pic25.jpg","50pct","50pct","699","1","mask.jpg","50pct","50pct","799"
"062320","12:52:34","885483656","677932533","4.0.10.0","2","41","test","prime_positive","0","0","0","0","0","0","23","1","364","0","1","+","50pct","50pct","0","4","pleasant4.jpg","50pct","50pct","499","1","blank","50pct","50pct","599","50","pic50.jpg","50pct","50pct","699","1","mask.jpg","50pct","50pct","799"
"062320","12:52:34","885483656","677932533","4.0.10.0","2","42","test","prime_positive","0","0","0","0","0","0","23","1","627","0","1","+","50pct","50pct","0","5","pleasant5.jpg","50pct","50pct","499","1","blank","50pct","50pct","599","19","pic19.jpg","50pct","50pct","699","1","mask.jpg","50pct","50pct","799"
"062320","12:52:34","885483656","677932533","4.0.10.0","2","43","test","prime_positive","0","0","0","0","0","0","23","1","524","0","1","+","50pct","50pct","0","8","pleasant8.jpg","50pct","50pct","499","1","blank","50pct","50pct","599","4","pic4.jpg","50pct","50pct","699","1","mask.jpg","50pct","50pct","799"
"062320","12:52:34","885483656","677932533","4.0.10.0","2","44","test","prime_positive","0","0","0","0","0","0","23","1","772","0","1","+","50pct","50pct","0","11","pleasant11.jpg","50pct","50pct","499","1","blank","50pct","50pct","599","62","pic62.jpg","50pct","50pct","699","1","mask.jpg","50pct","50pct","799"
"062320","12:52:34","885483656","677932533","4.0.10.0","2","45","test","prime_negative","0","0","0","0","0","0","23","1","1420","0","1","+","50pct","50pct","0","12","unpleasant12.jpg","50pct","50pct","499","1","blank","50pct","50pct","599","29","pic29.jpg","50pct","50pct","699","1","mask.jpg","50pct","50pct","799"
"062320","12:52:34","885483656","677932533","4.0.10.0","2","46","test","prime_positive","0","0","0","0","0","0","18","0","534","0","1","+","50pct","50pct","0","3","pleasant3.jpg","50pct","50pct","499","1","blank","50pct","50pct","599","72","pic72.jpg","50pct","50pct","699","1","mask.jpg","50pct","50pct","799"
"062320","12:52:34","885483656","677932533","4.0.10.0","2","47","test","prime_positive","0","0","0","0","0","0","23","1","623","0","1","+","50pct","50pct","0","1","pleasant1.jpg","50pct","50pct","499","1","blank","50pct","50pct","599","30","pic30.jpg","50pct","50pct","699","1","mask.jpg","50pct","50pct","799"
"062320","12:52:34","885483656","677932533","4.0.10.0","2","48","test","prime_negative","0","0","0","0","0","0","18","0","626","0","1","+","50pct","50pct","0","3","unpleasant3.jpg","50pct","50pct","499","1","blank","50pct","50pct","599","60","pic60.jpg","50pct","50pct","699","1","mask.jpg","50pct","50pct","799"
"062320","12:52:34","885483656","677932533","4.0.10.0","2","49","test","prime_negative","0","0","0","0","0","0","18","0","958","0","1","+","50pct","50pct","0","10","unpleasant10.jpg","50pct","50pct","499","1","blank","50pct","50pct","599","49","pic49.jpg","50pct","50pct","699","1","mask.jpg","50pct","50pct","799"
"062320","12:52:34","885483656","677932533","4.0.10.0","2","50","test","prime_positive","0","0","0","0","0","0","18","0","757","0","1","+","50pct","50pct","0","6","pleasant6.jpg","50pct","50pct","499","1","blank","50pct","50pct","599","18","pic18.jpg","50pct","50pct","699","1","mask.jpg","50pct","50pct","799"
"062320","12:52:34","885483656","677932533","4.0.10.0","2","51","test","prime_negative","0","0","0","0","0","0","18","0","1657","0","1","+","50pct","50pct","0","8","unpleasant8.jpg","50pct","50pct","499","1","blank","50pct","50pct","599","38","pic38.jpg","50pct","50pct","699","1","mask.jpg","50pct","50pct","799"
"062320","12:52:34","885483656","677932533","4.0.10.0","2","52","test","prime_negative","0","0","0","0","0","0","57","0","1571","0","1","+","50pct","50pct","0","5","unpleasant5.jpg","50pct","50pct","499","1","blank","50pct","50pct","599","61","pic61.jpg","50pct","50pct","699","1","mask.jpg","50pct","50pct","799"
"062320","12:52:34","885483656","677932533","4.0.10.0","2","53","test","prime_positive","0","0","0","0","0","0","18","0","1446","0","1","+","50pct","50pct","0","2","pleasant2.jpg","50pct","50pct","499","1","blank","50pct","50pct","599","33","pic33.jpg","50pct","50pct","699","1","mask.jpg","50pct","50pct","799"
"062320","12:52:34","885483656","677932533","4.0.10.0","2","54","test","prime_negative","0","0","0","0","0","0","18","0","946","0","1","+","50pct","50pct","0","7","unpleasant7.jpg","50pct","50pct","499","1","blank","50pct","50pct","599","21","pic21.jpg","50pct","50pct","699","1","mask.jpg","50pct","50pct","799"
"062320","12:52:34","885483656","677932533","4.0.10.0","2","55","test","prime_negative","0","0","0","0","0","0","18","0","647","0","1","+","50pct","50pct","0","4","unpleasant4.jpg","50pct","50pct","499","1","blank","50pct","50pct","599","6","pic6.jpg","50pct","50pct","699","1","mask.jpg","50pct","50pct","799"
"062320","12:52:34","885483656","677932533","4.0.10.0","2","56","test","prime_negative","0","0","0","0","0","0","23","1","638","0","1","+","50pct","50pct","0","12","unpleasant12.jpg","50pct","50pct","499","1","blank","50pct","50pct","599","56","pic56.jpg","50pct","50pct","699","1","mask.jpg","50pct","50pct","799"
"062320","12:52:34","885483656","677932533","4.0.10.0","2","57","test","prime_negative","0","0","0","0","0","0","57","0","1080","0","1","+","50pct","50pct","0","1","unpleasant1.jpg","50pct","50pct","499","1","blank","50pct","50pct","599","10","pic10.jpg","50pct","50pct","699","1","mask.jpg","50pct","50pct","799"
"062320","12:52:34","885483656","677932533","4.0.10.0","2","58","test","prime_positive","0","0","0","0","0","0","18","0","931","0","1","+","50pct","50pct","0","3","pleasant3.jpg","50pct","50pct","499","1","blank","50pct","50pct","599","8","pic8.jpg","50pct","50pct","699","1","mask.jpg","50pct","50pct","799"
"062320","12:52:34","885483656","677932533","4.0.10.0","2","59","test","prime_negative","0","0","0","0","0","0","18","0","689","0","1","+","50pct","50pct","0","6","unpleasant6.jpg","50pct","50pct","499","1","blank","50pct","50pct","599","39","pic39.jpg","50pct","50pct","699","1","mask.jpg","50pct","50pct","799"
"062320","12:52:34","885483656","677932533","4.0.10.0","2","60","test","prime_negative","0","0","0","0","0","0","18","0","746","0","1","+","50pct","50pct","0","10","unpleasant10.jpg","50pct","50pct","499","1","blank","50pct","50pct","599","9","pic9.jpg","50pct","50pct","699","1","mask.jpg","50pct","50pct","799"
"062320","12:52:34","885483656","677932533","4.0.10.0","2","61","test","prime_negative","0","0","0","0","0","0","23","1","1086","0","1","+","50pct","50pct","0","3","unpleasant3.jpg","50pct","50pct","499","1","blank","50pct","50pct","599","51","pic51.jpg","50pct","50pct","699","1","mask.jpg","50pct","50pct","799"
"062320","12:52:34","885483656","677932533","4.0.10.0","2","62","test","prime_positive","0","0","0","0","0","0","18","0","741","0","1","+","50pct","50pct","0","6","pleasant6.jpg","50pct","50pct","499","1","blank","50pct","50pct","599","16","pic16.jpg","50pct","50pct","699","1","mask.jpg","50pct","50pct","799"
"062320","12:52:34","885483656","677932533","4.0.10.0","2","63","test","prime_negative","0","0","0","0","0","0","18","0","918","0","1","+","50pct","50pct","0","2","unpleasant2.jpg","50pct","50pct","499","1","blank","50pct","50pct","599","54","pic54.jpg","50pct","50pct","699","1","mask.jpg","50pct","50pct","799"
"062320","12:52:34","885483656","677932533","4.0.10.0","2","64","test","prime_negative","0","0","0","0","0","0","18","0","736","0","1","+","50pct","50pct","0","9","unpleasant9.jpg","50pct","50pct","499","1","blank","50pct","50pct","599","9","pic9.jpg","50pct","50pct","699","1","mask.jpg","50pct","50pct","799"
"062320","12:52:34","885483656","677932533","4.0.10.0","2","65","test","prime_negative","0","0","0","0","0","0","18","0","571","0","1","+","50pct","50pct","0","11","unpleasant11.jpg","50pct","50pct","499","1","blank","50pct","50pct","599","17","pic17.jpg","50pct","50pct","699","1","mask.jpg","50pct","50pct","799"
"062320","12:52:34","885483656","677932533","4.0.10.0","2","66","test","prime_positive","0","0","0","0","0","0","23","1","874","0","1","+","50pct","50pct","0","11","pleasant11.jpg","50pct","50pct","499","1","blank","50pct","50pct","599","1","pic1.jpg","50pct","50pct","699","1","mask.jpg","50pct","50pct","799"
"062320","12:52:34","885483656","677932533","4.0.10.0","2","67","test","prime_negative","0","0","0","0","0","0","18","0","1075","0","1","+","50pct","50pct","0","8","unpleasant8.jpg","50pct","50pct","499","1","blank","50pct","50pct","599","37","pic37.jpg","50pct","50pct","699","1","mask.jpg","50pct","50pct","799"
"062320","12:52:34","885483656","677932533","4.0.10.0","2","68","test","prime_positive","0","0","0","0","0","0","18","0","571","0","1","+","50pct","50pct","0","9","pleasant9.jpg","50pct","50pct","499","1","blank","50pct","50pct","599","70","pic70.jpg","50pct","50pct","699","1","mask.jpg","50pct","50pct","799"
"062320","12:52:34","885483656","677932533","4.0.10.0","2","69","test","prime_negative","0","0","0","0","0","0","18","0","865","0","1","+","50pct","50pct","0","10","unpleasant10.jpg","50pct","50pct","499","1","blank","50pct","50pct","599","28","pic28.jpg","50pct","50pct","699","1","mask.jpg","50pct","50pct","799"
"062320","12:52:34","885483656","677932533","4.0.10.0","2","70","test","prime_negative","0","0","0","0","0","0","18","0","833","0","1","+","50pct","50pct","0","4","unpleasant4.jpg","50pct","50pct","499","1","blank","50pct","50pct","599","68","pic68.jpg","50pct","50pct","699","1","mask.jpg","50pct","50pct","799"
"062320","12:52:34","885483656","677932533","4.0.10.0","2","71","test","prime_positive","0","0","0","0","0","0","18","0","1349","0","1","+","50pct","50pct","0","1","pleasant1.jpg","50pct","50pct","499","1","blank","50pct","50pct","599","3","pic3.jpg","50pct","50pct","699","1","mask.jpg","50pct","50pct","799"
"062320","12:52:34","885483656","677932533","4.0.10.0","2","72","test","prime_negative","0","0","0","0","0","0","23","1","658","0","1","+","50pct","50pct","0","9","unpleasant9.jpg","50pct","50pct","499","1","blank","50pct","50pct","599","21","pic21.jpg","50pct","50pct","699","1","mask.jpg","50pct","50pct","799"
"062320","12:52:34","885483656","677932533","4.0.10.0","2","73","test","prime_negative","0","0","0","0","0","0","18","0","1082","0","1","+","50pct","50pct","0","5","unpleasant5.jpg","50pct","50pct","499","1","blank","50pct","50pct","599","59","pic59.jpg","50pct","50pct","699","1","mask.jpg","50pct","50pct","799"
"062320","12:54:49","909960120","379779100","4.0.10.0","1","3","practice","prime_positive_practice","0","0","0","0","0","0","57","0","1142","0","1","+","50pct","50pct","-8","11","pleasant11.jpg","50pct","50pct","491","1","blank","50pct","50pct","591","45","pic45.jpg","50pct","50pct","691","1","mask.jpg","50pct","50pct","791"
"062320","12:54:49","909960120","379779100","4.0.10.0","1","4","practice","prime_negative_practice","0","0","0","0","0","0","57","0","533","0","1","+","50pct","50pct","-8","7","unpleasant7.jpg","50pct","50pct","491","1","blank","50pct","50pct","591","22","pic22.jpg","50pct","50pct","691","1","mask.jpg","50pct","50pct","791"
"062320","12:54:49","909960120","379779100","4.0.10.0","1","5","practice","prime_negative_practice","0","0","0","0","0","0","18","0","1162","0","1","+","50pct","50pct","-8","1","unpleasant1.jpg","50pct","50pct","491","1","blank","50pct","50pct","591","41","pic41.jpg","50pct","50pct","691","1","mask.jpg","50pct","50pct","791"
"062320","12:54:49","909960120","379779100","4.0.10.0","1","6","practice","prime_positive_practice","0","0","0","0","0","0","23","1","2413","0","1","+","50pct","50pct","30","9","pleasant9.jpg","50pct","50pct","491","1","blank","50pct","50pct","591","66","pic66.jpg","50pct","50pct","691","1","mask.jpg","50pct","50pct","791"
"062320","12:54:49","909960120","379779100","4.0.10.0","1","7","practice","prime_negative_practice","0","0","0","0","0","0","23","1","703","0","1","+","50pct","50pct","-8","5","unpleasant5.jpg","50pct","50pct","491","1","blank","50pct","50pct","591","55","pic55.jpg","50pct","50pct","691","1","mask.jpg","50pct","50pct","791"
"062320","12:54:49","909960120","379779100","4.0.10.0","1","8","practice","prime_negative_practice","0","0","0","0","0","0","57","0","597","0","1","+","50pct","50pct","-8","8","unpleasant8.jpg","50pct","50pct","491","1","blank","50pct","50pct","591","29","pic29.jpg","50pct","50pct","691","1","mask.jpg","50pct","50pct","791"
"062320","12:54:49","909960120","379779100","4.0.10.0","1","9","practice","prime_positive_practice","0","0","0","0","0","0","57","0","708","0","1","+","50pct","50pct","-8","8","pleasant8.jpg","50pct","50pct","491","1","blank","50pct","50pct","591","48","pic48.jpg","50pct","50pct","691","1","mask.jpg","50pct","50pct","791"
"062320","12:54:49","909960120","379779100","4.0.10.0","1","10","practice","prime_positive_practice","0","0","0","0","0","0","57","0","339","0","1","+","50pct","50pct","13","7","pleasant7.jpg","50pct","50pct","491","1","blank","50pct","50pct","591","62","pic62.jpg","50pct","50pct","691","1","mask.jpg","50pct","50pct","791"
"062320","12:54:49","909960120","379779100","4.0.10.0","1","11","practice","prime_positive_practice","0","0","0","0","0","0","57","0","160","0","1","+","50pct","50pct","-8","12","pleasant12.jpg","50pct","50pct","491","1","blank","50pct","50pct","591","13","pic13.jpg","50pct","50pct","691","1","mask.jpg","50pct","50pct","791"
"062320","12:54:49","909960120","379779100","4.0.10.0","1","12","practice","prime_negative_practice","0","0","0","0","0","0","57","0","65","0","1","+","50pct","50pct","-8","9","unpleasant9.jpg","50pct","50pct","491","1","blank","50pct","50pct","591","47","pic47.jpg","50pct","50pct","691","1","mask.jpg","50pct","50pct","791"
"062320","12:54:49","909960120","379779100","4.0.10.0","2","2","test","prime_positive","0","0","0","0","0","0","57","0","751","0","1","+","50pct","50pct","-8","6","pleasant6.jpg","50pct","50pct","491","1","blank","50pct","50pct","591","6","pic6.jpg","50pct","50pct","691","1","mask.jpg","50pct","50pct","791"
"062320","12:54:49","909960120","379779100","4.0.10.0","2","3","test","prime_negative","0","0","0","0","0","0","18","0","795","0","1","+","50pct","50pct","-8","10","unpleasant10.jpg","50pct","50pct","491","1","blank","50pct","50pct","591","56","pic56.jpg","50pct","50pct","691","1","mask.jpg","50pct","50pct","791"
"062320","12:54:49","909960120","379779100","4.0.10.0","2","4","test","prime_positive","0","0","0","0","0","0","23","1","560","0","1","+","50pct","50pct","-8","3","pleasant3.jpg","50pct","50pct","491","1","blank","50pct","50pct","591","11","pic11.jpg","50pct","50pct","691","1","mask.jpg","50pct","50pct","791"
"062320","12:54:49","909960120","379779100","4.0.10.0","2","5","test","prime_negative","0","0","0","0","0","0","57","0","409","0","1","+","50pct","50pct","-8","2","unpleasant2.jpg","50pct","50pct","491","1","blank","50pct","50pct","591","24","pic24.jpg","50pct","50pct","691","1","mask.jpg","50pct","50pct","791"
"062320","12:54:49","909960120","379779100","4.0.10.0","2","6","test","prime_negative","0","0","0","0","0","0","57","0","110","0","1","+","50pct","50pct","13","11","unpleasant11.jpg","50pct","50pct","491","1","blank","50pct","50pct","591","7","pic7.jpg","50pct","50pct","691","1","mask.jpg","50pct","50pct","791"
"062320","12:54:49","909960120","379779100","4.0.10.0","2","7","test","prime_positive","0","0","0","0","0","0","57","0","412","0","1","+","50pct","50pct","-8","4","pleasant4.jpg","50pct","50pct","491","1","blank","50pct","50pct","591","65","pic65.jpg","50pct","50pct","691","1","mask.jpg","50pct","50pct","791"
"062320","12:54:49","909960120","379779100","4.0.10.0","2","8","test","prime_negative","0","0","0","0","0","0","57","0","100","0","1","+","50pct","50pct","-8","6","unpleasant6.jpg","50pct","50pct","491","1","blank","50pct","50pct","591","9","pic9.jpg","50pct","50pct","691","1","mask.jpg","50pct","50pct","791"
"062320","12:54:49","909960120","379779100","4.0.10.0","2","9","test","prime_positive","0","0","0","0","0","0","57","0","264","0","1","+","50pct","50pct","-8","10","pleasant10.jpg","50pct","50pct","491","1","blank","50pct","50pct","591","61","pic61.jpg","50pct","50pct","691","1","mask.jpg","50pct","50pct","791"
"062320","12:54:49","909960120","379779100","4.0.10.0","2","10","test","prime_negative","0","0","0","0","0","0","57","0","409","0","1","+","50pct","50pct","-8","3","unpleasant3.jpg","50pct","50pct","491","1","blank","50pct","50pct","591","58","pic58.jpg","50pct","50pct","691","1","mask.jpg","50pct","50pct","791"
"062320","12:54:49","909960120","379779100","4.0.10.0","2","11","test","prime_negative","0","0","0","0","0","0","57","0","1336","0","1","+","50pct","50pct","-8","4","unpleasant4.jpg","50pct","50pct","491","1","blank","50pct","50pct","591","27","pic27.jpg","50pct","50pct","691","1","mask.jpg","50pct","50pct","791"
"062320","12:54:49","909960120","379779100","4.0.10.0","2","12","test","prime_positive","0","0","0","0","0","0","57","0","191","0","1","+","50pct","50pct","-8","2","pleasant2.jpg","50pct","50pct","491","1","blank","50pct","50pct","591","36","pic36.jpg","50pct","50pct","691","1","mask.jpg","50pct","50pct","791"
"062320","12:54:49","909960120","379779100","4.0.10.0","2","13","test","prime_negative","0","0","0","0","0","0","57","0","294","0","1","+","50pct","50pct","-8","12","unpleasant12.jpg","50pct","50pct","491","1","blank","50pct","50pct","591","14","pic14.jpg","50pct","50pct","691","1","mask.jpg","50pct","50pct","791"
"062320","12:54:49","909960120","379779100","4.0.10.0","2","14","test","prime_positive","0","0","0","0","0","0","57","0","309","0","1","+","50pct","50pct","-8","1","pleasant1.jpg","50pct","50pct","491","1","blank","50pct","50pct","591","26","pic26.jpg","50pct","50pct","691","1","mask.jpg","50pct","50pct","791"
"062320","12:54:49","909960120","379779100","4.0.10.0","2","15","test","prime_positive","0","0","0","0","0","0","57","0","486","0","1","+","50pct","50pct","-8","5","pleasant5.jpg","50pct","50pct","491","1","blank","50pct","50pct","591","12","pic12.jpg","50pct","50pct","691","1","mask.jpg","50pct","50pct","791"
"062320","12:54:49","909960120","379779100","4.0.10.0","2","16","test","prime_positive","0","0","0","0","0","0","57","0","587","0","1","+","50pct","50pct","-8","12","pleasant12.jpg","50pct","50pct","491","1","blank","50pct","50pct","591","34","pic34.jpg","50pct","50pct","691","1","mask.jpg","50pct","50pct","791"
"062320","12:54:49","909960120","379779100","4.0.10.0","2","17","test","prime_positive","0","0","0","0","0","0","57","0","111","0","1","+","50pct","50pct","-8","10","pleasant10.jpg","50pct","50pct","491","1","blank","50pct","50pct","591","20","pic20.jpg","50pct","50pct","691","1","mask.jpg","50pct","50pct","791"
"062320","12:54:49","909960120","379779100","4.0.10.0","2","18","test","prime_positive","0","0","0","0","0","0","57","0","514","0","1","+","50pct","50pct","-8","2","pleasant2.jpg","50pct","50pct","491","1","blank","50pct","50pct","591","4","pic4.jpg","50pct","50pct","691","1","mask.jpg","50pct","50pct","791"
"062320","12:54:49","909960120","379779100","4.0.10.0","2","19","test","prime_negative","0","0","0","0","0","0","57","0","22","0","1","+","50pct","50pct","-8","5","unpleasant5.jpg","50pct","50pct","491","1","blank","50pct","50pct","591","54","pic54.jpg","50pct","50pct","691","1","mask.jpg","50pct","50pct","791"
"062320","12:54:49","909960120","379779100","4.0.10.0","2","20","test","prime_negative","0","0","0","0","0","0","57","0","24","0","1","+","50pct","50pct","-8","11","unpleasant11.jpg","50pct","50pct","491","1","blank","50pct","50pct","591","37","pic37.jpg","50pct","50pct","691","1","mask.jpg","50pct","50pct","791"
"062320","12:54:49","909960120","379779100","4.0.10.0","2","21","test","prime_negative","0","0","0","0","0","0","57","0","540","0","1","+","50pct","50pct","-8","12","unpleasant12.jpg","50pct","50pct","491","1","blank","50pct","50pct","591","38","pic38.jpg","50pct","50pct","691","1","mask.jpg","50pct","50pct","791"
"062320","12:54:49","909960120","379779100","4.0.10.0","2","22","test","prime_negative","0","0","0","0","0","0","18","0","981","0","1","+","50pct","50pct","-8","7","unpleasant7.jpg","50pct","50pct","491","1","blank","50pct","50pct","591","68","pic68.jpg","50pct","50pct","691","1","mask.jpg","50pct","50pct","791"
"062320","12:54:49","909960120","379779100","4.0.10.0","2","23","test","prime_negative","0","0","0","0","0","0","57","0","3064","0","1","+","50pct","50pct","30","10","unpleasant10.jpg","50pct","50pct","491","1","blank","50pct","50pct","591","3","pic3.jpg","50pct","50pct","691","1","mask.jpg","50pct","50pct","791"
"062320","12:54:49","909960120","379779100","4.0.10.0","2","24","test","prime_negative","0","0","0","0","0","0","57","0","115","0","1","+","50pct","50pct","-8","6","unpleasant6.jpg","50pct","50pct","491","1","blank","50pct","50pct","591","44","pic44.jpg","50pct","50pct","691","1","mask.jpg","50pct","50pct","791"
"062320","12:54:49","909960120","379779100","4.0.10.0","2","25","test","prime_positive","0","0","0","0","0","0","57","0","8","0","1","+","50pct","50pct","-8","9","pleasant9.jpg","50pct","50pct","491","1","blank","50pct","50pct","591","52","pic52.jpg","50pct","50pct","691","1","mask.jpg","50pct","50pct","791"
"062320","12:54:49","909960120","379779100","4.0.10.0","2","26","test","prime_positive","0","0","0","0","0","0","57","0","119","0","1","+","50pct","50pct","-8","1","pleasant1.jpg","50pct","50pct","491","1","blank","50pct","50pct","591","10","pic10.jpg","50pct","50pct","691","1","mask.jpg","50pct","50pct","791"
"062320","12:54:49","909960120","379779100","4.0.10.0","2","27","test","prime_negative","0","0","0","0","0","0","57","0","27","0","1","+","50pct","50pct","-8","9","unpleasant9.jpg","50pct","50pct","491","1","blank","50pct","50pct","591","53","pic53.jpg","50pct","50pct","691","1","mask.jpg","50pct","50pct","791"
"062320","12:54:49","909960120","379779100","4.0.10.0","2","28","test","prime_positive","0","0","0","0","0","0","57","0","327","0","1","+","50pct","50pct","-8","6","pleasant6.jpg","50pct","50pct","491","1","blank","50pct","50pct","591","40","pic40.jpg","50pct","50pct","691","1","mask.jpg","50pct","50pct","791"
"062320","12:54:49","909960120","379779100","4.0.10.0","2","29","test","prime_negative","0","0","0","0","0","0","57","0","109","0","1","+","50pct","50pct","-8","4","unpleasant4.jpg","50pct","50pct","491","1","blank","50pct","50pct","591","32","pic32.jpg","50pct","50pct","691","1","mask.jpg","50pct","50pct","791"
"062320","12:54:49","909960120","379779100","4.0.10.0","2","30","test","prime_negative","0","0","0","0","0","0","57","0","149","0","1","+","50pct","50pct","-8","2","unpleasant2.jpg","50pct","50pct","491","1","blank","50pct","50pct","591","17","pic17.jpg","50pct","50pct","691","1","mask.jpg","50pct","50pct","791"
"062320","12:54:49","909960120","379779100","4.0.10.0","2","31","test","prime_positive","0","0","0","0","0","0","57","0","168","0","1","+","50pct","50pct","-8","11","pleasant11.jpg","50pct","50pct","491","1","blank","50pct","50pct","591","64","pic64.jpg","50pct","50pct","691","1","mask.jpg","50pct","50pct","791"
"062320","12:54:49","909960120","379779100","4.0.10.0","2","32","test","prime_positive","0","0","0","0","0","0","57","0","152","0","1","+","50pct","50pct","-8","4","pleasant4.jpg","50pct","50pct","491","1","blank","50pct","50pct","591","19","pic19.jpg","50pct","50pct","691","1","mask.jpg","50pct","50pct","791"
"062320","12:54:49","909960120","379779100","4.0.10.0","2","33","test","prime_negative","0","0","0","0","0","0","57","0","15","0","1","+","50pct","50pct","-8","3","unpleasant3.jpg","50pct","50pct","491","1","blank","50pct","50pct","591","70","pic70.jpg","50pct","50pct","691","1","mask.jpg","50pct","50pct","791"
"062320","12:54:49","909960120","379779100","4.0.10.0","2","34","test","prime_positive","0","0","0","0","0","0","57","0","168","0","1","+","50pct","50pct","-8","3","pleasant3.jpg","50pct","50pct","491","1","blank","50pct","50pct","591","25","pic25.jpg","50pct","50pct","691","1","mask.jpg","50pct","50pct","791"
"062320","12:54:49","909960120","379779100","4.0.10.0","2","35","test","prime_negative","0","0","0","0","0","0","57","0","14","0","1","+","50pct","50pct","-8","8","unpleasant8.jpg","50pct","50pct","491","1","blank","50pct","50pct","591","72","pic72.jpg","50pct","50pct","691","1","mask.jpg","50pct","50pct","791"
"062320","12:54:49","909960120","379779100","4.0.10.0","2","36","test","prime_positive","0","0","0","0","0","0","57","0","177","0","1","+","50pct","50pct","-8","7","pleasant7.jpg","50pct","50pct","491","1","blank","50pct","50pct","591","21","pic21.jpg","50pct","50pct","691","1","mask.jpg","50pct","50pct","791"
"062320","12:54:49","909960120","379779100","4.0.10.0","2","37","test","prime_negative","0","0","0","0","0","0","57","0","31","0","1","+","50pct","50pct","-8","1","unpleasant1.jpg","50pct","50pct","491","1","blank","50pct","50pct","591","28","pic28.jpg","50pct","50pct","691","1","mask.jpg","50pct","50pct","791"
"062320","12:54:49","909960120","379779100","4.0.10.0","2","38","test","prime_negative","0","0","0","0","0","0","57","0","97","0","1","+","50pct","50pct","-8","10","unpleasant10.jpg","50pct","50pct","491","1","blank","50pct","50pct","591","51","pic51.jpg","50pct","50pct","691","1","mask.jpg","50pct","50pct","791"
"062320","12:54:49","909960120","379779100","4.0.10.0","2","39","test","prime_positive","0","0","0","0","0","0","57","0","85","0","1","+","50pct","50pct","-8","8","pleasant8.jpg","50pct","50pct","491","1","blank","50pct","50pct","591","5","pic5.jpg","50pct","50pct","691","1","mask.jpg","50pct","50pct","791"
"062320","12:54:49","909960120","379779100","4.0.10.0","2","40","test","prime_positive","0","0","0","0","0","0","57","0","62","0","1","+","50pct","50pct","-8","5","pleasant5.jpg","50pct","50pct","491","1","blank","50pct","50pct","591","49","pic49.jpg","50pct","50pct","691","1","mask.jpg","50pct","50pct","791"
"062320","12:54:49","909960120","379779100","4.0.10.0","2","41","test","prime_positive","0","0","0","0","0","0","57","0","1333","0","1","+","50pct","50pct","-8","12","pleasant12.jpg","50pct","50pct","491","1","blank","50pct","50pct","591","69","pic69.jpg","50pct","50pct","691","1","mask.jpg","50pct","50pct","791"
"062320","12:54:49","909960120","379779100","4.0.10.0","2","42","test","prime_positive","0","0","0","0","0","0","57","0","448","0","1","+","50pct","50pct","-8","2","pleasant2.jpg","50pct","50pct","491","1","blank","50pct","50pct","591","59","pic59.jpg","50pct","50pct","691","1","mask.jpg","50pct","50pct","791"
"062320","12:54:49","909960120","379779100","4.0.10.0","2","43","test","prime_positive","0","0","0","0","0","0","57","0","43","0","1","+","50pct","50pct","-8","8","pleasant8.jpg","50pct","50pct","491","1","blank","50pct","50pct","591","71","pic71.jpg","50pct","50pct","691","1","mask.jpg","50pct","50pct","791"
"062320","12:54:49","909960120","379779100","4.0.10.0","2","44","test","prime_positive","0","0","0","0","0","0","57","0","143","0","1","+","50pct","50pct","-8","10","pleasant10.jpg","50pct","50pct","491","1","blank","50pct","50pct","591","1","pic1.jpg","50pct","50pct","691","1","mask.jpg","50pct","50pct","791"
"062320","12:54:49","909960120","379779100","4.0.10.0","2","45","test","prime_negative","0","0","0","0","0","0","57","0","72","0","1","+","50pct","50pct","-8","11","unpleasant11.jpg","50pct","50pct","491","1","blank","50pct","50pct","591","57","pic57.jpg","50pct","50pct","691","1","mask.jpg","50pct","50pct","791"
"062320","12:54:49","909960120","379779100","4.0.10.0","2","46","test","prime_positive","0","0","0","0","0","0","57","0","114","0","1","+","50pct","50pct","-8","11","pleasant11.jpg","50pct","50pct","491","1","blank","50pct","50pct","591","43","pic43.jpg","50pct","50pct","691","1","mask.jpg","50pct","50pct","791"
"062320","12:54:49","909960120","379779100","4.0.10.0","2","47","test","prime_positive","0","0","0","0","0","0","57","0","128","0","1","+","50pct","50pct","-8","6","pleasant6.jpg","50pct","50pct","491","1","blank","50pct","50pct","591","60","pic60.jpg","50pct","50pct","691","1","mask.jpg","50pct","50pct","791"
"062320","12:54:49","909960120","379779100","4.0.10.0","2","48","test","prime_negative","0","0","0","0","0","0","57","0","93","0","1","+","50pct","50pct","-8","12","unpleasant12.jpg","50pct","50pct","491","1","blank","50pct","50pct","591","42","pic42.jpg","50pct","50pct","691","1","mask.jpg","50pct","50pct","791"
"062320","12:54:49","909960120","379779100","4.0.10.0","2","49","test","prime_positive","0","0","0","0","0","0","57","0","390","0","1","+","50pct","50pct","-8","3","pleasant3.jpg","50pct","50pct","491","1","blank","50pct","50pct","591","31","pic31.jpg","50pct","50pct","691","1","mask.jpg","50pct","50pct","791"
"062320","12:54:49","909960120","379779100","4.0.10.0","2","50","test","prime_negative","0","0","0","0","0","0","57","0","93","0","1","+","50pct","50pct","-8","2","unpleasant2.jpg","50pct","50pct","491","1","blank","50pct","50pct","591","23","pic23.jpg","50pct","50pct","691","1","mask.jpg","50pct","50pct","791"
"062320","12:54:49","909960120","379779100","4.0.10.0","2","51","test","prime_positive","0","0","0","0","0","0","57","0","23","0","1","+","50pct","50pct","-8","1","pleasant1.jpg","50pct","50pct","491","1","blank","50pct","50pct","591","15","pic15.jpg","50pct","50pct","691","1","mask.jpg","50pct","50pct","791"
"062320","12:54:49","909960120","379779100","4.0.10.0","2","52","test","prime_positive","0","0","0","0","0","0","57","0","161","0","1","+","50pct","50pct","-8","4","pleasant4.jpg","50pct","50pct","491","1","blank","50pct","50pct","591","35","pic35.jpg","50pct","50pct","691","1","mask.jpg","50pct","50pct","791"
"062320","12:54:49","909960120","379779100","4.0.10.0","2","53","test","prime_negative","0","0","0","0","0","0","57","0","92","0","1","+","50pct","50pct","-8","8","unpleasant8.jpg","50pct","50pct","491","1","blank","50pct","50pct","591","50","pic50.jpg","50pct","50pct","691","1","mask.jpg","50pct","50pct","791"
"062320","12:54:49","909960120","379779100","4.0.10.0","2","54","test","prime_positive","0","0","0","0","0","0","57","0","24","0","1","+","50pct","50pct","-8","5","pleasant5.jpg","50pct","50pct","491","1","blank","50pct","50pct","591","30","pic30.jpg","50pct","50pct","691","1","mask.jpg","50pct","50pct","791"
"062320","12:54:49","909960120","379779100","4.0.10.0","2","55","test","prime_negative","0","0","0","0","0","0","57","0","83","0","1","+","50pct","50pct","-8","7","unpleasant7.jpg","50pct","50pct","491","1","blank","50pct","50pct","591","8","pic8.jpg","50pct","50pct","691","1","mask.jpg","50pct","50pct","791"
"062320","12:54:49","909960120","379779100","4.0.10.0","2","56","test","prime_negative","0","0","0","0","0","0","57","0","57","0","1","+","50pct","50pct","-8","1","unpleasant1.jpg","50pct","50pct","491","1","blank","50pct","50pct","591","63","pic63.jpg","50pct","50pct","691","1","mask.jpg","50pct","50pct","791"
"062320","12:54:49","909960120","379779100","4.0.10.0","2","57","test","prime_positive","0","0","0","0","0","0","57","0","204","0","1","+","50pct","50pct","-8","9","pleasant9.jpg","50pct","50pct","491","1","blank","50pct","50pct","591","16","pic16.jpg","50pct","50pct","691","1","mask.jpg","50pct","50pct","791"
"062320","12:54:49","909960120","379779100","4.0.10.0","2","58","test","prime_negative","0","0","0","0","0","0","57","0","130","0","1","+","50pct","50pct","-8","6","unpleasant6.jpg","50pct","50pct","491","1","blank","50pct","50pct","591","33","pic33.jpg","50pct","50pct","691","1","mask.jpg","50pct","50pct","791"
"062320","12:54:49","909960120","379779100","4.0.10.0","2","59","test","prime_negative","0","0","0","0","0","0","57","0","53","0","1","+","50pct","50pct","-8","3","unpleasant3.jpg","50pct","50pct","491","1","blank","50pct","50pct","591","46","pic46.jpg","50pct","50pct","691","1","mask.jpg","50pct","50pct","791"
"062320","12:54:49","909960120","379779100","4.0.10.0","2","60","test","prime_negative","0","0","0","0","0","0","57","0","60","0","1","+","50pct","50pct","-8","4","unpleasant4.jpg","50pct","50pct","491","1","blank","50pct","50pct","591","18","pic18.jpg","50pct","50pct","691","1","mask.jpg","50pct","50pct","791"
"062320","12:54:49","909960120","379779100","4.0.10.0","2","61","test","prime_positive","0","0","0","0","0","0","57","0","3651","0","1","+","50pct","50pct","-8","7","pleasant7.jpg","50pct","50pct","491","1","blank","50pct","50pct","591","39","pic39.jpg","50pct","50pct","691","1","mask.jpg","50pct","50pct","791"
"062320","12:54:49","909960120","379779100","4.0.10.0","2","62","test","prime_negative","0","0","0","0","0","0","57","0","239","0","1","+","50pct","50pct","30","5","unpleasant5.jpg","50pct","50pct","491","1","blank","50pct","50pct","591","67","pic67.jpg","50pct","50pct","691","1","mask.jpg","50pct","50pct","791"
"062320","12:54:49","909960120","379779100","4.0.10.0","2","63","test","prime_negative","0","0","0","0","0","0","57","0","1554","0","1","+","50pct","50pct","-8","9","unpleasant9.jpg","50pct","50pct","491","1","blank","50pct","50pct","591","2","pic2.jpg","50pct","50pct","691","1","mask.jpg","50pct","50pct","791"
"062320","12:54:49","909960120","379779100","4.0.10.0","2","64","test","prime_positive","0","0","0","0","0","0","57","0","214","0","1","+","50pct","50pct","30","3","pleasant3.jpg","50pct","50pct","491","1","blank","50pct","50pct","591","71","pic71.jpg","50pct","50pct","691","1","mask.jpg","50pct","50pct","791"
"062320","12:54:49","909960120","379779100","4.0.10.0","2","65","test","prime_negative","0","0","0","0","0","0","57","0","1708","0","1","+","50pct","50pct","-8","4","unpleasant4.jpg","50pct","50pct","491","1","blank","50pct","50pct","591","69","pic69.jpg","50pct","50pct","691","1","mask.jpg","50pct","50pct","791"
"062320","12:54:49","909960120","379779100","4.0.10.0","2","66","test","prime_negative","0","0","0","0","0","0","57","0","1784","0","1","+","50pct","50pct","13","7","unpleasant7.jpg","50pct","50pct","491","1","blank","50pct","50pct","591","48","pic48.jpg","50pct","50pct","691","1","mask.jpg","50pct","50pct","791"
"062320","12:54:49","909960120","379779100","4.0.10.0","2","67","test","prime_negative","0","0","0","0","0","0","18","0","861","0","1","+","50pct","50pct","-8","11","unpleasant11.jpg","50pct","50pct","491","1","blank","50pct","50pct","591","50","pic50.jpg","50pct","50pct","691","1","mask.jpg","50pct","50pct","791"
"062320","12:54:49","909960120","379779100","4.0.10.0","2","68","test","prime_positive","0","0","0","0","0","0","23","1","496","0","1","+","50pct","50pct","-8","1","pleasant1.jpg","50pct","50pct","491","1","blank","50pct","50pct","591","19","pic19.jpg","50pct","50pct","691","1","mask.jpg","50pct","50pct","791"
"062320","12:54:49","909960120","379779100","4.0.10.0","2","69","test","prime_positive","0","0","0","0","0","0","23","1","361","0","1","+","50pct","50pct","-8","11","pleasant11.jpg","50pct","50pct","491","1","blank","50pct","50pct","591","47","pic47.jpg","50pct","50pct","691","1","mask.jpg","50pct","50pct","791"
"062320","12:54:49","909960120","379779100","4.0.10.0","2","70","test","prime_positive","0","0","0","0","0","0","23","1","230","0","1","+","50pct","50pct","29","10","pleasant10.jpg","50pct","50pct","491","1","blank","50pct","50pct","591","6","pic6.jpg","50pct","50pct","691","1","mask.jpg","50pct","50pct","791"
"062320","12:54:49","909960120","379779100","4.0.10.0","2","71","test","prime_negative","0","0","0","0","0","0","18","0","327","0","1","+","50pct","50pct","-8","1","unpleasant1.jpg","50pct","50pct","491","1","blank","50pct","50pct","591","46","pic46.jpg","50pct","50pct","691","1","mask.jpg","50pct","50pct","791"
"062320","12:54:49","909960120","379779100","4.0.10.0","2","72","test","prime_negative","0","0","0","0","0","0","23","1","173","0","1","+","50pct","50pct","30","10","unpleasant10.jpg","50pct","50pct","491","1","blank","50pct","50pct","591","56","pic56.jpg","50pct","50pct","691","1","mask.jpg","50pct","50pct","791"
"062320","12:54:49","909960120","379779100","4.0.10.0","2","73","test","prime_positive","0","0","0","0","0","0","23","1","314","0","1","+","50pct","50pct","-8","4","pleasant4.jpg","50pct","50pct","491","1","blank","50pct","50pct","591","43","pic43.jpg","50pct","50pct","691","1","mask.jpg","50pct","50pct","791"
"062320","12:56:04","686848922","602610803","4.0.10.0","1","3","practice","prime_negative_practice","0","0","0","0","0","0","18","0","2421","0","1","+","50pct","50pct","0","3","unpleasant3.jpg","50pct","50pct","499","1","blank","50pct","50pct","599","30","pic30.jpg","50pct","50pct","699","1","mask.jpg","50pct","50pct","799"
"062320","12:56:04","686848922","602610803","4.0.10.0","1","4","practice","prime_negative_practice","0","0","0","0","0","0","18","0","2599","0","1","+","50pct","50pct","0","10","unpleasant10.jpg","50pct","50pct","499","1","blank","50pct","50pct","599","38","pic38.jpg","50pct","50pct","699","1","mask.jpg","50pct","50pct","799"
"062320","12:56:04","686848922","602610803","4.0.10.0","1","5","practice","prime_positive_practice","0","0","0","0","0","0","23","1","600","0","1","+","50pct","50pct","0","7","pleasant7.jpg","50pct","50pct","499","1","blank","50pct","50pct","599","70","pic70.jpg","50pct","50pct","699","1","mask.jpg","50pct","50pct","799"
"062320","12:56:04","686848922","602610803","4.0.10.0","1","6","practice","prime_negative_practice","0","0","0","0","0","0","18","0","846","0","1","+","50pct","50pct","0","8","unpleasant8.jpg","50pct","50pct","499","1","blank","50pct","50pct","599","3","pic3.jpg","50pct","50pct","699","1","mask.jpg","50pct","50pct","799"
"062320","12:56:04","686848922","602610803","4.0.10.0","1","7","practice","prime_positive_practice","0","0","0","0","0","0","23","1","605","0","1","+","50pct","50pct","0","10","pleasant10.jpg","50pct","50pct","499","1","blank","50pct","50pct","599","2","pic2.jpg","50pct","50pct","699","1","mask.jpg","50pct","50pct","799"
"062320","12:56:04","686848922","602610803","4.0.10.0","1","8","practice","prime_positive_practice","0","0","0","0","0","0","23","1","492","0","1","+","50pct","50pct","0","1","pleasant1.jpg","50pct","50pct","499","1","blank","50pct","50pct","599","39","pic39.jpg","50pct","50pct","699","1","mask.jpg","50pct","50pct","799"
"062320","12:56:04","686848922","602610803","4.0.10.0","1","9","practice","prime_negative_practice","0","0","0","0","0","0","18","0","1191","0","1","+","50pct","50pct","0","5","unpleasant5.jpg","50pct","50pct","499","1","blank","50pct","50pct","599","6","pic6.jpg","50pct","50pct","699","1","mask.jpg","50pct","50pct","799"
"062320","12:56:04","686848922","602610803","4.0.10.0","1","10","practice","prime_negative_practice","0","0","0","0","0","0","23","1","664","0","1","+","50pct","50pct","0","6","unpleasant6.jpg","50pct","50pct","499","1","blank","50pct","50pct","599","46","pic46.jpg","50pct","50pct","699","1","mask.jpg","50pct","50pct","799"
"062320","12:56:04","686848922","602610803","4.0.10.0","1","11","practice","prime_positive_practice","0","0","0","0","0","0","18","0","2897","0","1","+","50pct","50pct","0","11","pleasant11.jpg","50pct","50pct","501","1","blank","50pct","50pct","599","71","pic71.jpg","50pct","50pct","699","1","mask.jpg","50pct","50pct","799"
"062320","12:56:04","686848922","602610803","4.0.10.0","1","12","practice","prime_positive_practice","0","0","0","0","0","0","23","1","1103","0","1","+","50pct","50pct","0","2","pleasant2.jpg","50pct","50pct","499","1","blank","50pct","50pct","599","31","pic31.jpg","50pct","50pct","699","1","mask.jpg","50pct","50pct","799"
"062320","12:56:04","686848922","602610803","4.0.10.0","2","2","test","prime_negative","0","0","0","0","0","0","23","1","1341","0","1","+","50pct","50pct","0","11","unpleasant11.jpg","50pct","50pct","499","1","blank","50pct","50pct","599","61","pic61.jpg","50pct","50pct","699","1","mask.jpg","50pct","50pct","799"
"062320","12:56:04","686848922","602610803","4.0.10.0","2","3","test","prime_negative","0","0","0","0","0","0","23","1","984","0","1","+","50pct","50pct","0","2","unpleasant2.jpg","50pct","50pct","499","1","blank","50pct","50pct","599","7","pic7.jpg","50pct","50pct","699","1","mask.jpg","50pct","50pct","799"
"062320","12:56:04","686848922","602610803","4.0.10.0","2","4","test","prime_positive","0","0","0","0","0","0","23","1","664","0","1","+","50pct","50pct","0","9","pleasant9.jpg","50pct","50pct","499","1","blank","50pct","50pct","599","19","pic19.jpg","50pct","50pct","699","1","mask.jpg","50pct","50pct","799"
"062320","12:56:04","686848922","602610803","4.0.10.0","2","5","test","prime_positive","0","0","0","0","0","0","23","1","950","0","1","+","50pct","50pct","0","12","pleasant12.jpg","50pct","50pct","499","1","blank","50pct","50pct","599","24","pic24.jpg","50pct","50pct","699","1","mask.jpg","50pct","50pct","799"
"062320","12:56:04","686848922","602610803","4.0.10.0","2","6","test","prime_negative","0","0","0","0","0","0","23","1","1545","0","1","+","50pct","50pct","0","7","unpleasant7.jpg","50pct","50pct","499","1","blank","50pct","50pct","599","22","pic22.jpg","50pct","50pct","699","1","mask.jpg","50pct","50pct","799"
"062320","12:56:04","686848922","602610803","4.0.10.0","2","7","test","prime_positive","0","0","0","0","0","0","23","1","587","0","1","+","50pct","50pct","0","5","pleasant5.jpg","50pct","50pct","499","1","blank","50pct","50pct","599","25","pic25.jpg","50pct","50pct","699","1","mask.jpg","50pct","50pct","799"
"062320","12:56:04","686848922","602610803","4.0.10.0","2","8","test","prime_negative","0","0","0","0","0","0","23","1","538","0","1","+","50pct","50pct","0","9","unpleasant9.jpg","50pct","50pct","499","1","blank","50pct","50pct","599","17","pic17.jpg","50pct","50pct","699","1","mask.jpg","50pct","50pct","799"
"062320","12:56:04","686848922","602610803","4.0.10.0","2","9","test","prime_negative","0","0","0","0","0","0","18","0","393","0","1","+","50pct","50pct","0","1","unpleasant1.jpg","50pct","50pct","499","1","blank","50pct","50pct","599","21","pic21.jpg","50pct","50pct","699","1","mask.jpg","50pct","50pct","799"
"062320","12:56:04","686848922","602610803","4.0.10.0","2","10","test","prime_positive","0","0","0","0","0","0","23","1","731","0","1","+","50pct","50pct","0","3","pleasant3.jpg","50pct","50pct","499","1","blank","50pct","50pct","599","36","pic36.jpg","50pct","50pct","699","1","mask.jpg","50pct","50pct","799"
"062320","12:56:04","686848922","602610803","4.0.10.0","2","11","test","prime_positive","0","0","0","0","0","0","18","0","604","0","1","+","50pct","50pct","0","8","pleasant8.jpg","50pct","50pct","499","1","blank","50pct","50pct","599","59","pic59.jpg","50pct","50pct","699","1","mask.jpg","50pct","50pct","799"
"062320","12:56:04","686848922","602610803","4.0.10.0","2","12","test","prime_positive","0","0","0","0","0","0","18","0","530","0","1","+","50pct","50pct","0","4","pleasant4.jpg","50pct","50pct","499","1","blank","50pct","50pct","599","50","pic50.jpg","50pct","50pct","699","1","mask.jpg","50pct","50pct","799"
"062320","12:56:04","686848922","602610803","4.0.10.0","2","13","test","prime_negative","0","0","0","0","0","0","18","0","549","0","1","+","50pct","50pct","0","4","unpleasant4.jpg","50pct","50pct","499","1","blank","50pct","50pct","599","57","pic57.jpg","50pct","50pct","699","1","mask.jpg","50pct","50pct","799"
"062320","12:56:04","686848922","602610803","4.0.10.0","2","14","test","prime_positive","0","0","0","0","0","0","18","0","566","0","1","+","50pct","50pct","0","6","pleasant6.jpg","50pct","50pct","499","1","blank","50pct","50pct","599","32","pic32.jpg","50pct","50pct","699","1","mask.jpg","50pct","50pct","799"
"062320","12:56:04","686848922","602610803","4.0.10.0","2","15","test","prime_negative","0","0","0","0","0","0","18","0","582","0","1","+","50pct","50pct","0","12","unpleasant12.jpg","50pct","50pct","499","1","blank","50pct","50pct","599","5","pic5.jpg","50pct","50pct","699","1","mask.jpg","50pct","50pct","799"
"062320","12:56:04","686848922","602610803","4.0.10.0","2","16","test","prime_negative","0","0","0","0","0","0","57","0","5316","0","1","+","50pct","50pct","0","1","unpleasant1.jpg","50pct","50pct","499","1","blank","50pct","50pct","599","35","pic35.jpg","50pct","50pct","699","1","mask.jpg","50pct","50pct","799"
"062320","12:56:04","686848922","602610803","4.0.10.0","2","17","test","prime_positive","0","0","0","0","0","0","23","1","638","0","1","+","50pct","50pct","0","9","pleasant9.jpg","50pct","50pct","499","1","blank","50pct","50pct","599","29","pic29.jpg","50pct","50pct","699","1","mask.jpg","50pct","50pct","799"
"062320","12:56:04","686848922","602610803","4.0.10.0","2","18","test","prime_negative","0","0","0","0","0","0","18","0","618","0","1","+","50pct","50pct","0","4","unpleasant4.jpg","50pct","50pct","499","1","blank","50pct","50pct","599","12","pic12.jpg","50pct","50pct","699","1","mask.jpg","50pct","50pct","799"
"062320","12:56:04","686848922","602610803","4.0.10.0","2","19","test","prime_negative","0","0","0","0","0","0","18","0","407","0","1","+","50pct","50pct","0","5","unpleasant5.jpg","50pct","50pct","499","1","blank","50pct","50pct","599","41","pic41.jpg","50pct","50pct","699","1","mask.jpg","50pct","50pct","799"
"062320","12:56:04","686848922","602610803","4.0.10.0","2","20","test","prime_negative","0","0","0","0","0","0","18","0","598","0","1","+","50pct","50pct","0","10","unpleasant10.jpg","50pct","50pct","499","1","blank","50pct","50pct","599","28","pic28.jpg","50pct","50pct","699","1","mask.jpg","50pct","50pct","799"
"062320","12:56:04","686848922","602610803","4.0.10.0","2","21","test","prime_positive","0","0","0","0","0","0","18","0","614","0","1","+","50pct","50pct","0","1","pleasant1.jpg","50pct","50pct","499","1","blank","50pct","50pct","599","18","pic18.jpg","50pct","50pct","699","1","mask.jpg","50pct","50pct","799"
"062320","12:56:04","686848922","602610803","4.0.10.0","2","22","test","prime_positive","0","0","0","0","0","0","23","1","719","0","1","+","50pct","50pct","0","3","pleasant3.jpg","50pct","50pct","499","1","blank","50pct","50pct","599","33","pic33.jpg","50pct","50pct","699","1","mask.jpg","50pct","50pct","799"
"062320","12:56:04","686848922","602610803","4.0.10.0","2","23","test","prime_negative","0","0","0","0","0","0","18","0","599","0","1","+","50pct","50pct","0","2","unpleasant2.jpg","50pct","50pct","499","1","blank","50pct","50pct","599","13","pic13.jpg","50pct","50pct","699","1","mask.jpg","50pct","50pct","799"
"062320","12:56:04","686848922","602610803","4.0.10.0","2","24","test","prime_positive","0","0","0","0","0","0","18","0","454","0","1","+","50pct","50pct","0","4","pleasant4.jpg","50pct","50pct","499","1","blank","50pct","50pct","599","1","pic1.jpg","50pct","50pct","699","1","mask.jpg","50pct","50pct","799"
"062320","12:56:04","686848922","602610803","4.0.10.0","2","25","test","prime_positive","0","0","0","0","0","0","18","0","723","0","1","+","50pct","50pct","0","12","pleasant12.jpg","50pct","50pct","499","1","blank","50pct","50pct","599","43","pic43.jpg","50pct","50pct","699","1","mask.jpg","50pct","50pct","799"
"062320","12:56:04","686848922","602610803","4.0.10.0","2","26","test","prime_negative","0","0","0","0","0","0","18","0","606","0","1","+","50pct","50pct","0","3","unpleasant3.jpg","50pct","50pct","499","1","blank","50pct","50pct","599","45","pic45.jpg","50pct","50pct","699","1","mask.jpg","50pct","50pct","799"
"062320","12:56:04","686848922","602610803","4.0.10.0","2","27","test","prime_negative","0","0","0","0","0","0","18","0","525","0","1","+","50pct","50pct","0","9","unpleasant9.jpg","50pct","50pct","499","1","blank","50pct","50pct","599","68","pic68.jpg","50pct","50pct","699","1","mask.jpg","50pct","50pct","799"
"062320","12:56:04","686848922","602610803","4.0.10.0","2","28","test","prime_positive","0","0","0","0","0","0","23","1","496","0","1","+","50pct","50pct","0","2","pleasant2.jpg","50pct","50pct","499","1","blank","50pct","50pct","599","14","pic14.jpg","50pct","50pct","699","1","mask.jpg","50pct","50pct","799"
"062320","12:56:04","686848922","602610803","4.0.10.0","2","29","test","prime_positive","0","0","0","0","0","0","18","0","731","0","1","+","50pct","50pct","0","10","pleasant10.jpg","50pct","50pct","499","1","blank","50pct","50pct","599","58","pic58.jpg","50pct","50pct","699","1","mask.jpg","50pct","50pct","799"
"062320","12:56:04","686848922","602610803","4.0.10.0","2","30","test","prime_positive","0","0","0","0","0","0","18","0","774","0","1","+","50pct","50pct","0","5","pleasant5.jpg","50pct","50pct","499","1","blank","50pct","50pct","599","11","pic11.jpg","50pct","50pct","699","1","mask.jpg","50pct","50pct","799"
"062320","12:56:04","686848922","602610803","4.0.10.0","2","31","test","prime_positive","0","0","0","0","0","0","23","1","1225","0","1","+","50pct","50pct","0","6","pleasant6.jpg","50pct","50pct","499","1","blank","50pct","50pct","599","47","pic47.jpg","50pct","50pct","699","1","mask.jpg","50pct","50pct","799"
"062320","12:56:04","686848922","602610803","4.0.10.0","2","32","test","prime_positive","0","0","0","0","0","0","23","1","760","0","1","+","50pct","50pct","0","7","pleasant7.jpg","50pct","50pct","499","1","blank","50pct","50pct","599","60","pic60.jpg","50pct","50pct","699","1","mask.jpg","50pct","50pct","799"
"062320","12:56:04","686848922","602610803","4.0.10.0","2","33","test","prime_positive","0","0","0","0","0","0","23","1","617","0","1","+","50pct","50pct","0","11","pleasant11.jpg","50pct","50pct","499","1","blank","50pct","50pct","599","10","pic10.jpg","50pct","50pct","699","1","mask.jpg","50pct","50pct","799"
"062320","12:56:04","686848922","602610803","4.0.10.0","2","34","test","prime_negative","0","0","0","0","0","0","23","1","624","0","1","+","50pct","50pct","0","7","unpleasant7.jpg","50pct","50pct","499","1","blank","50pct","50pct","599","27","pic27.jpg","50pct","50pct","699","1","mask.jpg","50pct","50pct","799"
"062320","12:56:04","686848922","602610803","4.0.10.0","2","35","test","prime_positive","0","0","0","0","0","0","23","1","606","0","1","+","50pct","50pct","0","8","pleasant8.jpg","50pct","50pct","499","1","blank","50pct","50pct","599","69","pic69.jpg","50pct","50pct","699","1","mask.jpg","50pct","50pct","799"
"062320","12:56:04","686848922","602610803","4.0.10.0","2","36","test","prime_negative","0","0","0","0","0","0","18","0","532","0","1","+","50pct","50pct","0","6","unpleasant6.jpg","50pct","50pct","499","1","blank","50pct","50pct","599","15","pic15.jpg","50pct","50pct","699","1","mask.jpg","50pct","50pct","799"
"062320","12:56:04","686848922","602610803","4.0.10.0","2","37","test","prime_positive","0","0","0","0","0","0","23","1","543","0","1","+","50pct","50pct","0","3","pleasant3.jpg","50pct","50pct","499","1","blank","50pct","50pct","599","63","pic63.jpg","50pct","50pct","699","1","mask.jpg","50pct","50pct","799"
"062320","12:56:04","686848922","602610803","4.0.10.0","2","38","test","prime_negative","0","0","0","0","0","0","18","0","519","0","1","+","50pct","50pct","0","11","unpleasant11.jpg","50pct","50pct","499","1","blank","50pct","50pct","599","55","pic55.jpg","50pct","50pct","699","1","mask.jpg","50pct","50pct","799"
"062320","12:56:04","686848922","602610803","4.0.10.0","2","39","test","prime_positive","0","0","0","0","0","0","23","1","748","0","1","+","50pct","50pct","0","5","pleasant5.jpg","50pct","50pct","499","1","blank","50pct","50pct","599","49","pic49.jpg","50pct","50pct","699","1","mask.jpg","50pct","50pct","799"
"062320","12:56:04","686848922","602610803","4.0.10.0","2","40","test","prime_negative","0","0","0","0","0","0","18","0","516","0","1","+","50pct","50pct","0","8","unpleasant8.jpg","50pct","50pct","499","1","blank","50pct","50pct","599","40","pic40.jpg","50pct","50pct","699","1","mask.jpg","50pct","50pct","799"
"062320","12:56:04","686848922","602610803","4.0.10.0","2","41","test","prime_negative","0","0","0","0","0","0","18","0","558","0","1","+","50pct","50pct","0","12","unpleasant12.jpg","50pct","50pct","499","1","blank","50pct","50pct","599","34","pic34.jpg","50pct","50pct","699","1","mask.jpg","50pct","50pct","799"
"062320","12:56:04","686848922","602610803","4.0.10.0","2","42","test","prime_negative","0","0","0","0","0","0","18","0","479","0","1","+","50pct","50pct","0","4","unpleasant4.jpg","50pct","50pct","499","1","blank","50pct","50pct","599","52","pic52.jpg","50pct","50pct","699","1","mask.jpg","50pct","50pct","799"
"062320","12:56:04","686848922","602610803","4.0.10.0","2","43","test","prime_positive","0","0","0","0","0","0","18","0","563","0","1","+","50pct","50pct","0","8","pleasant8.jpg","50pct","50pct","499","1","blank","50pct","50pct","599","72","pic72.jpg","50pct","50pct","699","1","mask.jpg","50pct","50pct","799"
"062320","12:56:04","686848922","602610803","4.0.10.0","2","44","test","prime_negative","0","0","0","0","0","0","18","0","580","0","1","+","50pct","50pct","0","2","unpleasant2.jpg","50pct","50pct","499","1","blank","50pct","50pct","599","44","pic44.jpg","50pct","50pct","699","1","mask.jpg","50pct","50pct","799"
"062320","12:56:04","686848922","602610803","4.0.10.0","2","45","test","prime_negative","0","0","0","0","0","0","18","0","564","0","1","+","50pct","50pct","0","5","unpleasant5.jpg","50pct","50pct","499","1","blank","50pct","50pct","599","48","pic48.jpg","50pct","50pct","699","1","mask.jpg","50pct","50pct","799"
"062320","12:56:04","686848922","602610803","4.0.10.0","2","46","test","prime_negative","0","0","0","0","0","0","18","0","838","0","1","+","50pct","50pct","0","3","unpleasant3.jpg","50pct","50pct","499","1","blank","50pct","50pct","599","54","pic54.jpg","50pct","50pct","699","1","mask.jpg","50pct","50pct","799"
"062320","12:56:04","686848922","602610803","4.0.10.0","2","47","test","prime_positive","0","0","0","0","0","0","18","0","1093","0","1","+","50pct","50pct","0","9","pleasant9.jpg","50pct","50pct","499","1","blank","50pct","50pct","599","64","pic64.jpg","50pct","50pct","699","1","mask.jpg","50pct","50pct","799"
"062320","12:56:04","686848922","602610803","4.0.10.0","2","48","test","prime_negative","0","0","0","0","0","0","23","1","441","0","1","+","50pct","50pct","0","9","unpleasant9.jpg","50pct","50pct","499","1","blank","50pct","50pct","599","9","pic9.jpg","50pct","50pct","699","1","mask.jpg","50pct","50pct","799"
"062320","12:56:04","686848922","602610803","4.0.10.0","2","49","test","prime_negative","0","0","0","0","0","0","18","0","574","0","1","+","50pct","50pct","0","7","unpleasant7.jpg","50pct","50pct","499","1","blank","50pct","50pct","599","42","pic42.jpg","50pct","50pct","699","1","mask.jpg","50pct","50pct","799"
"062320","12:56:04","686848922","602610803","4.0.10.0","2","50","test","prime_negative","0","0","0","0","0","0","18","0","927","0","1","+","50pct","50pct","0","10","unpleasant10.jpg","50pct","50pct","499","1","blank","50pct","50pct","599","16","pic16.jpg","50pct","50pct","699","1","mask.jpg","50pct","50pct","799"
"062320","12:56:04","686848922","602610803","4.0.10.0","2","51","test","prime_positive","0","0","0","0","0","0","23","1","563","0","1","+","50pct","50pct","0","10","pleasant10.jpg","50pct","50pct","499","1","blank","50pct","50pct","599","66","pic66.jpg","50pct","50pct","699","1","mask.jpg","50pct","50pct","799"
"062320","12:56:04","686848922","602610803","4.0.10.0","2","52","test","prime_negative","0","0","0","0","0","0","18","0","570","0","1","+","50pct","50pct","0","1","unpleasant1.jpg","50pct","50pct","499","1","blank","50pct","50pct","599","56","pic56.jpg","50pct","50pct","699","1","mask.jpg","50pct","50pct","799"
"062320","12:56:04","686848922","602610803","4.0.10.0","2","53","test","prime_positive","0","0","0","0","0","0","23","1","523","0","1","+","50pct","50pct","0","7","pleasant7.jpg","50pct","50pct","499","1","blank","50pct","50pct","599","20","pic20.jpg","50pct","50pct","699","1","mask.jpg","50pct","50pct","799"
"062320","12:56:04","686848922","602610803","4.0.10.0","2","54","test","prime_negative","0","0","0","0","0","0","18","0","668","0","1","+","50pct","50pct","0","11","unpleasant11.jpg","50pct","50pct","499","1","blank","50pct","50pct","599","67","pic67.jpg","50pct","50pct","699","1","mask.jpg","50pct","50pct","799"
"062320","12:56:04","686848922","602610803","4.0.10.0","2","55","test","prime_positive","0","0","0","0","0","0","18","0","680","0","1","+","50pct","50pct","0","6","pleasant6.jpg","50pct","50pct","499","1","blank","50pct","50pct","599","51","pic51.jpg","50pct","50pct","699","1","mask.jpg","50pct","50pct","799"
"062320","12:56:04","686848922","602610803","4.0.10.0","2","56","test","prime_positive","0","0","0","0","0","0","23","1","527","0","1","+","50pct","50pct","0","2","pleasant2.jpg","50pct","50pct","499","1","blank","50pct","50pct","599","8","pic8.jpg","50pct","50pct","699","1","mask.jpg","50pct","50pct","799"
"062320","12:56:04","686848922","602610803","4.0.10.0","2","57","test","prime_positive","0","0","0","0","0","0","18","0","784","0","1","+","50pct","50pct","0","1","pleasant1.jpg","50pct","50pct","499","1","blank","50pct","50pct","599","26","pic26.jpg","50pct","50pct","699","1","mask.jpg","50pct","50pct","799"
"062320","12:56:04","686848922","602610803","4.0.10.0","2","58","test","prime_negative","0","0","0","0","0","0","23","1","529","0","1","+","50pct","50pct","0","6","unpleasant6.jpg","50pct","50pct","499","1","blank","50pct","50pct","599","37","pic37.jpg","50pct","50pct","699","1","mask.jpg","50pct","50pct","799"
"062320","12:56:04","686848922","602610803","4.0.10.0","2","59","test","prime_positive","0","0","0","0","0","0","23","1","764","0","1","+","50pct","50pct","0","12","pleasant12.jpg","50pct","50pct","499","1","blank","50pct","50pct","599","23","pic23.jpg","50pct","50pct","699","1","mask.jpg","50pct","50pct","799"
"062320","12:56:04","686848922","602610803","4.0.10.0","2","60","test","prime_positive","0","0","0","0","0","0","23","1","1535","0","1","+","50pct","50pct","0","11","pleasant11.jpg","50pct","50pct","499","1","blank","50pct","50pct","599","65","pic65.jpg","50pct","50pct","699","1","mask.jpg","50pct","50pct","799"
"062320","12:56:04","686848922","602610803","4.0.10.0","2","61","test","prime_positive","0","0","0","0","0","0","18","0","743","0","1","+","50pct","50pct","0","4","pleasant4.jpg","50pct","50pct","499","1","blank","50pct","50pct","599","4","pic4.jpg","50pct","50pct","699","1","mask.jpg","50pct","50pct","799"
"062320","12:56:04","686848922","602610803","4.0.10.0","2","62","test","prime_negative","0","0","0","0","0","0","18","0","674","0","1","+","50pct","50pct","0","8","unpleasant8.jpg","50pct","50pct","499","1","blank","50pct","50pct","599","53","pic53.jpg","50pct","50pct","699","1","mask.jpg","50pct","50pct","799"
"062320","12:56:04","686848922","602610803","4.0.10.0","2","63","test","prime_negative","0","0","0","0","0","0","18","0","574","0","1","+","50pct","50pct","0","12","unpleasant12.jpg","50pct","50pct","499","1","blank","50pct","50pct","599","62","pic62.jpg","50pct","50pct","699","1","mask.jpg","50pct","50pct","799"
"062320","12:56:04","686848922","602610803","4.0.10.0","2","64","test","prime_negative","0","0","0","0","0","0","18","0","502","0","1","+","50pct","50pct","0","10","unpleasant10.jpg","50pct","50pct","499","1","blank","50pct","50pct","599","19","pic19.jpg","50pct","50pct","699","1","mask.jpg","50pct","50pct","799"
"062320","12:56:04","686848922","602610803","4.0.10.0","2","65","test","prime_negative","0","0","0","0","0","0","18","0","561","0","1","+","50pct","50pct","0","11","unpleasant11.jpg","50pct","50pct","499","1","blank","50pct","50pct","599","14","pic14.jpg","50pct","50pct","699","1","mask.jpg","50pct","50pct","799"
"062320","12:56:04","686848922","602610803","4.0.10.0","2","66","test","prime_negative","0","0","0","0","0","0","23","1","508","0","1","+","50pct","50pct","0","4","unpleasant4.jpg","50pct","50pct","499","1","blank","50pct","50pct","599","36","pic36.jpg","50pct","50pct","699","1","mask.jpg","50pct","50pct","799"
"062320","12:56:04","686848922","602610803","4.0.10.0","2","67","test","prime_positive","0","0","0","0","0","0","18","0","782","0","1","+","50pct","50pct","0","7","pleasant7.jpg","50pct","50pct","499","1","blank","50pct","50pct","599","62","pic62.jpg","50pct","50pct","699","1","mask.jpg","50pct","50pct","799"
"062320","12:56:04","686848922","602610803","4.0.10.0","2","68","test","prime_positive","0","0","0","0","0","0","23","1","656","0","1","+","50pct","50pct","0","6","pleasant6.jpg","50pct","50pct","499","1","blank","50pct","50pct","599","64","pic64.jpg","50pct","50pct","699","1","mask.jpg","50pct","50pct","799"
"062320","12:56:04","686848922","602610803","4.0.10.0","2","69","test","prime_positive","0","0","0","0","0","0","23","1","429","0","1","+","50pct","50pct","0","10","pleasant10.jpg","50pct","50pct","499","1","blank","50pct","50pct","599","41","pic41.jpg","50pct","50pct","699","1","mask.jpg","50pct","50pct","799"
"062320","12:56:04","686848922","602610803","4.0.10.0","2","70","test","prime_positive","0","0","0","0","0","0","23","1","587","0","1","+","50pct","50pct","0","2","pleasant2.jpg","50pct","50pct","499","1","blank","50pct","50pct","599","69","pic69.jpg","50pct","50pct","699","1","mask.jpg","50pct","50pct","799"
"062320","12:56:04","686848922","602610803","4.0.10.0","2","71","test","prime_negative","0","0","0","0","0","0","18","0","425","0","1","+","50pct","50pct","0","3","unpleasant3.jpg","50pct","50pct","499","1","blank","50pct","50pct","599","51","pic51.jpg","50pct","50pct","699","1","mask.jpg","50pct","50pct","799"
"062320","12:56:04","686848922","602610803","4.0.10.0","2","72","test","prime_positive","0","0","0","0","0","0","18","0","559","0","1","+","50pct","50pct","0","5","pleasant5.jpg","50pct","50pct","499","1","blank","50pct","50pct","599","56","pic56.jpg","50pct","50pct","699","1","mask.jpg","50pct","50pct","799"
"062320","12:56:04","686848922","602610803","4.0.10.0","2","73","test","prime_negative","0","0","0","0","0","0","18","0","576","0","1","+","50pct","50pct","0","6","unpleasant6.jpg","50pct","50pct","499","1","blank","50pct","50pct","599","32","pic32.jpg","50pct","50pct","699","1","mask.jpg","50pct","50pct","799"
"062320","13:00:25","702644043","662585569","4.0.10.0","1","3","practice","prime_negative_practice","0","0","0","0","0","0","57","0","2493","0","1","+","50pct","50pct","0","3","unpleasant3.jpg","50pct","50pct","499","1","blank","50pct","50pct","599","26","pic26.jpg","50pct","50pct","699","1","mask.jpg","50pct","50pct","799"
"062320","13:00:25","702644043","662585569","4.0.10.0","1","4","practice","prime_positive_practice","0","0","0","0","0","0","18","0","1424","0","1","+","50pct","50pct","0","7","pleasant7.jpg","50pct","50pct","500","1","blank","50pct","50pct","599","23","pic23.jpg","50pct","50pct","699","1","mask.jpg","50pct","50pct","799"
"062320","13:00:25","702644043","662585569","4.0.10.0","1","5","practice","prime_positive_practice","0","0","0","0","0","0","18","0","332","0","1","+","50pct","50pct","0","6","pleasant6.jpg","50pct","50pct","499","1","blank","50pct","50pct","599","41","pic41.jpg","50pct","50pct","699","1","mask.jpg","50pct","50pct","799"
"062320","13:00:25","702644043","662585569","4.0.10.0","1","6","practice","prime_negative_practice","0","0","0","0","0","0","23","1","279","0","1","+","50pct","50pct","0","10","unpleasant10.jpg","50pct","50pct","499","1","blank","50pct","50pct","599","65","pic65.jpg","50pct","50pct","699","1","mask.jpg","50pct","50pct","799"
"062320","13:00:25","702644043","662585569","4.0.10.0","1","7","practice","prime_positive_practice","0","0","0","0","0","0","18","0","373","0","1","+","50pct","50pct","0","8","pleasant8.jpg","50pct","50pct","499","1","blank","50pct","50pct","599","53","pic53.jpg","50pct","50pct","699","1","mask.jpg","50pct","50pct","799"
"062320","13:00:25","702644043","662585569","4.0.10.0","1","8","practice","prime_negative_practice","0","0","0","0","0","0","23","1","510","0","1","+","50pct","50pct","0","7","unpleasant7.jpg","50pct","50pct","499","1","blank","50pct","50pct","599","44","pic44.jpg","50pct","50pct","699","1","mask.jpg","50pct","50pct","799"
"062320","13:00:25","702644043","662585569","4.0.10.0","1","9","practice","prime_positive_practice","0","0","0","0","0","0","18","0","1056","0","1","+","50pct","50pct","0","2","pleasant2.jpg","50pct","50pct","499","1","blank","50pct","50pct","599","28","pic28.jpg","50pct","50pct","699","1","mask.jpg","50pct","50pct","799"
"062320","13:00:25","702644043","662585569","4.0.10.0","1","10","practice","prime_positive_practice","0","0","0","0","0","0","18","0","286","0","1","+","50pct","50pct","0","9","pleasant9.jpg","50pct","50pct","499","1","blank","50pct","50pct","599","15","pic15.jpg","50pct","50pct","699","1","mask.jpg","50pct","50pct","799"
"062320","13:00:25","702644043","662585569","4.0.10.0","1","11","practice","prime_negative_practice","0","0","0","0","0","0","23","1","320","0","1","+","50pct","50pct","0","4","unpleasant4.jpg","50pct","50pct","499","1","blank","50pct","50pct","599","61","pic61.jpg","50pct","50pct","699","1","mask.jpg","50pct","50pct","799"
"062320","13:00:25","702644043","662585569","4.0.10.0","1","12","practice","prime_negative_practice","0","0","0","0","0","0","23","1","833","0","1","+","50pct","50pct","0","12","unpleasant12.jpg","50pct","50pct","499","1","blank","50pct","50pct","599","34","pic34.jpg","50pct","50pct","699","1","mask.jpg","50pct","50pct","799"
"062320","13:00:25","702644043","662585569","4.0.10.0","2","2","test","prime_positive","0","0","0","0","0","0","18","0","1001","0","1","+","50pct","50pct","0","10","pleasant10.jpg","50pct","50pct","499","1","blank","50pct","50pct","599","29","pic29.jpg","50pct","50pct","699","1","mask.jpg","50pct","50pct","799"
"062320","13:00:25","702644043","662585569","4.0.10.0","2","3","test","prime_negative","0","0","0","0","0","0","23","1","509","0","1","+","50pct","50pct","0","8","unpleasant8.jpg","50pct","50pct","499","1","blank","50pct","50pct","599","47","pic47.jpg","50pct","50pct","699","1","mask.jpg","50pct","50pct","799"
"062320","13:00:25","702644043","662585569","4.0.10.0","2","4","test","prime_positive","0","0","0","0","0","0","18","0","369","0","1","+","50pct","50pct","0","3","pleasant3.jpg","50pct","50pct","499","1","blank","50pct","50pct","599","67","pic67.jpg","50pct","50pct","699","1","mask.jpg","50pct","50pct","799"
"062320","13:00:25","702644043","662585569","4.0.10.0","2","5","test","prime_positive","0","0","0","0","0","0","18","0","273","0","1","+","50pct","50pct","0","1","pleasant1.jpg","50pct","50pct","499","1","blank","50pct","50pct","599","39","pic39.jpg","50pct","50pct","699","1","mask.jpg","50pct","50pct","799"
"062320","13:00:25","702644043","662585569","4.0.10.0","2","6","test","prime_positive","0","0","0","0","0","0","18","0","191","0","1","+","50pct","50pct","0","5","pleasant5.jpg","50pct","50pct","499","1","blank","50pct","50pct","599","4","pic4.jpg","50pct","50pct","699","1","mask.jpg","50pct","50pct","799"
"062320","13:00:25","702644043","662585569","4.0.10.0","2","7","test","prime_negative","0","0","0","0","0","0","23","1","173","0","1","+","50pct","50pct","0","2","unpleasant2.jpg","50pct","50pct","499","1","blank","50pct","50pct","599","71","pic71.jpg","50pct","50pct","699","1","mask.jpg","50pct","50pct","799"
"062320","13:00:25","702644043","662585569","4.0.10.0","2","8","test","prime_negative","0","0","0","0","0","0","23","1","263","0","1","+","50pct","50pct","0","9","unpleasant9.jpg","50pct","50pct","499","1","blank","50pct","50pct","599","66","pic66.jpg","50pct","50pct","699","1","mask.jpg","50pct","50pct","799"
"062320","13:00:25","702644043","662585569","4.0.10.0","2","9","test","prime_negative","0","0","0","0","0","0","23","1","331","0","1","+","50pct","50pct","0","1","unpleasant1.jpg","50pct","50pct","499","1","blank","50pct","50pct","599","35","pic35.jpg","50pct","50pct","699","1","mask.jpg","50pct","50pct","799"
"062320","13:00:25","702644043","662585569","4.0.10.0","2","10","test","prime_negative","0","0","0","0","0","0","23","1","462","0","1","+","50pct","50pct","0","5","unpleasant5.jpg","50pct","50pct","499","1","blank","50pct","50pct","599","6","pic6.jpg","50pct","50pct","699","1","mask.jpg","50pct","50pct","799"
"062320","13:00:25","702644043","662585569","4.0.10.0","2","11","test","prime_positive","0","0","0","0","0","0","18","0","228","0","1","+","50pct","50pct","0","12","pleasant12.jpg","50pct","50pct","499","1","blank","50pct","50pct","599","27","pic27.jpg","50pct","50pct","699","1","mask.jpg","50pct","50pct","799"
"062320","13:00:25","702644043","662585569","4.0.10.0","2","12","test","prime_negative","0","0","0","0","0","0","23","1","534","0","1","+","50pct","50pct","0","6","unpleasant6.jpg","50pct","50pct","499","1","blank","50pct","50pct","599","43","pic43.jpg","50pct","50pct","699","1","mask.jpg","50pct","50pct","799"
"062320","13:00:25","702644043","662585569","4.0.10.0","2","13","test","prime_positive","0","0","0","0","0","0","18","0","325","0","1","+","50pct","50pct","0","4","pleasant4.jpg","50pct","50pct","499","1","blank","50pct","50pct","599","10","pic10.jpg","50pct","50pct","699","1","mask.jpg","50pct","50pct","799"
"062320","13:00:25","702644043","662585569","4.0.10.0","2","14","test","prime_positive","0","0","0","0","0","0","18","0","193","0","1","+","50pct","50pct","0","11","pleasant11.jpg","50pct","50pct","499","1","blank","50pct","50pct","599","38","pic38.jpg","50pct","50pct","699","1","mask.jpg","50pct","50pct","799"
"062320","13:00:25","702644043","662585569","4.0.10.0","2","15","test","prime_negative","0","0","0","0","0","0","23","1","418","0","1","+","50pct","50pct","0","11","unpleasant11.jpg","50pct","50pct","499","1","blank","50pct","50pct","599","22","pic22.jpg","50pct","50pct","699","1","mask.jpg","50pct","50pct","799"
"062320","13:00:25","702644043","662585569","4.0.10.0","2","16","test","prime_negative","0","0","0","0","0","0","23","1","406","0","1","+","50pct","50pct","0","7","unpleasant7.jpg","50pct","50pct","499","1","blank","50pct","50pct","599","55","pic55.jpg","50pct","50pct","699","1","mask.jpg","50pct","50pct","799"
"062320","13:00:25","702644043","662585569","4.0.10.0","2","17","test","prime_negative","0","0","0","0","0","0","18","0","191","0","1","+","50pct","50pct","0","2","unpleasant2.jpg","50pct","50pct","499","1","blank","50pct","50pct","599","1","pic1.jpg","50pct","50pct","699","1","mask.jpg","50pct","50pct","799"
"062320","13:00:25","702644043","662585569","4.0.10.0","2","18","test","prime_negative","0","0","0","0","0","0","23","1","351","0","1","+","50pct","50pct","0","1","unpleasant1.jpg","50pct","50pct","499","1","blank","50pct","50pct","599","14","pic14.jpg","50pct","50pct","699","1","mask.jpg","50pct","50pct","799"
"062320","13:00:25","702644043","662585569","4.0.10.0","2","19","test","prime_negative","0","0","0","0","0","0","23","1","277","0","1","+","50pct","50pct","0","8","unpleasant8.jpg","50pct","50pct","499","1","blank","50pct","50pct","599","18","pic18.jpg","50pct","50pct","699","1","mask.jpg","50pct","50pct","799"
"062320","13:00:25","702644043","662585569","4.0.10.0","2","20","test","prime_negative","0","0","0","0","0","0","23","1","215","0","1","+","50pct","50pct","0","12","unpleasant12.jpg","50pct","50pct","499","1","blank","50pct","50pct","599","3","pic3.jpg","50pct","50pct","699","1","mask.jpg","50pct","50pct","799"
"062320","13:00:25","702644043","662585569","4.0.10.0","2","21","test","prime_positive","0","0","0","0","0","0","18","0","286","0","1","+","50pct","50pct","0","3","pleasant3.jpg","50pct","50pct","499","1","blank","50pct","50pct","599","63","pic63.jpg","50pct","50pct","699","1","mask.jpg","50pct","50pct","799"
"062320","13:00:25","702644043","662585569","4.0.10.0","2","22","test","prime_positive","0","0","0","0","0","0","18","0","441","0","1","+","50pct","50pct","0","8","pleasant8.jpg","50pct","50pct","499","1","blank","50pct","50pct","599","64","pic64.jpg","50pct","50pct","699","1","mask.jpg","50pct","50pct","799"
"062320","13:00:25","702644043","662585569","4.0.10.0","2","23","test","prime_positive","0","0","0","0","0","0","18","0","225","0","1","+","50pct","50pct","0","6","pleasant6.jpg","50pct","50pct","499","1","blank","50pct","50pct","599","37","pic37.jpg","50pct","50pct","699","1","mask.jpg","50pct","50pct","799"
"062320","13:00:25","702644043","662585569","4.0.10.0","2","24","test","prime_positive","0","0","0","0","0","0","18","0","312","0","1","+","50pct","50pct","0","10","pleasant10.jpg","50pct","50pct","499","1","blank","50pct","50pct","599","7","pic7.jpg","50pct","50pct","699","1","mask.jpg","50pct","50pct","799"
"062320","13:00:25","702644043","662585569","4.0.10.0","2","25","test","prime_positive","0","0","0","0","0","0","18","0","213","0","1","+","50pct","50pct","0","12","pleasant12.jpg","50pct","50pct","499","1","blank","50pct","50pct","599","12","pic12.jpg","50pct","50pct","699","1","mask.jpg","50pct","50pct","799"
"062320","13:00:25","702644043","662585569","4.0.10.0","2","26","test","prime_positive","0","0","0","0","0","0","18","0","200","0","1","+","50pct","50pct","0","4","pleasant4.jpg","50pct","50pct","499","1","blank","50pct","50pct","599","68","pic68.jpg","50pct","50pct","699","1","mask.jpg","50pct","50pct","799"
"062320","13:00:25","702644043","662585569","4.0.10.0","2","27","test","prime_negative","0","0","0","0","0","0","23","1","236","0","1","+","50pct","50pct","0","11","unpleasant11.jpg","50pct","50pct","499","1","blank","50pct","50pct","599","30","pic30.jpg","50pct","50pct","699","1","mask.jpg","50pct","50pct","799"
"062320","13:00:25","702644043","662585569","4.0.10.0","2","28","test","prime_negative","0","0","0","0","0","0","23","1","229","0","1","+","50pct","50pct","0","9","unpleasant9.jpg","50pct","50pct","499","1","blank","50pct","50pct","599","11","pic11.jpg","50pct","50pct","699","1","mask.jpg","50pct","50pct","799"
"062320","13:00:25","702644043","662585569","4.0.10.0","2","29","test","prime_negative","0","0","0","0","0","0","23","1","208","0","1","+","50pct","50pct","0","6","unpleasant6.jpg","50pct","50pct","499","1","blank","50pct","50pct","599","40","pic40.jpg","50pct","50pct","699","1","mask.jpg","50pct","50pct","799"
"062320","13:00:25","702644043","662585569","4.0.10.0","2","30","test","prime_positive","0","0","0","0","0","0","18","0","296","0","1","+","50pct","50pct","0","11","pleasant11.jpg","50pct","50pct","499","1","blank","50pct","50pct","599","69","pic69.jpg","50pct","50pct","699","1","mask.jpg","50pct","50pct","799"
"062320","13:00:25","702644043","662585569","4.0.10.0","2","31","test","prime_positive","0","0","0","0","0","0","18","0","437","0","1","+","50pct","50pct","0","7","pleasant7.jpg","50pct","50pct","499","1","blank","50pct","50pct","599","36","pic36.jpg","50pct","50pct","699","1","mask.jpg","50pct","50pct","799"
"062320","13:00:25","702644043","662585569","4.0.10.0","2","32","test","prime_negative","0","0","0","0","0","0","23","1","413","0","1","+","50pct","50pct","0","5","unpleasant5.jpg","50pct","50pct","499","1","blank","50pct","50pct","599","33","pic33.jpg","50pct","50pct","699","1","mask.jpg","50pct","50pct","799"
"062320","13:00:25","702644043","662585569","4.0.10.0","2","33","test","prime_negative","0","0","0","0","0","0","23","1","273","0","1","+","50pct","50pct","0","10","unpleasant10.jpg","50pct","50pct","499","1","blank","50pct","50pct","599","42","pic42.jpg","50pct","50pct","699","1","mask.jpg","50pct","50pct","799"
"062320","13:00:25","702644043","662585569","4.0.10.0","2","34","test","prime_positive","0","0","0","0","0","0","18","0","253","0","1","+","50pct","50pct","0","9","pleasant9.jpg","50pct","50pct","499","1","blank","50pct","50pct","599","31","pic31.jpg","50pct","50pct","699","1","mask.jpg","50pct","50pct","799"
"062320","13:00:25","702644043","662585569","4.0.10.0","2","35","test","prime_negative","0","0","0","0","0","0","23","1","385","0","1","+","50pct","50pct","0","4","unpleasant4.jpg","50pct","50pct","499","1","blank","50pct","50pct","599","5","pic5.jpg","50pct","50pct","699","1","mask.jpg","50pct","50pct","799"
"062320","13:00:25","702644043","662585569","4.0.10.0","2","36","test","prime_negative","0","0","0","0","0","0","23","1","177","0","1","+","50pct","50pct","0","3","unpleasant3.jpg","50pct","50pct","501","1","blank","50pct","50pct","599","46","pic46.jpg","50pct","50pct","699","1","mask.jpg","50pct","50pct","799"
"062320","13:00:25","702644043","662585569","4.0.10.0","2","37","test","prime_positive","0","0","0","0","0","0","18","0","225","0","1","+","50pct","50pct","0","5","pleasant5.jpg","50pct","50pct","499","1","blank","50pct","50pct","599","8","pic8.jpg","50pct","50pct","699","1","mask.jpg","50pct","50pct","799"
"062320","13:00:25","702644043","662585569","4.0.10.0","2","38","test","prime_positive","0","0","0","0","0","0","18","0","206","0","1","+","50pct","50pct","0","2","pleasant2.jpg","50pct","50pct","499","1","blank","50pct","50pct","599","19","pic19.jpg","50pct","50pct","699","1","mask.jpg","50pct","50pct","799"
"062320","13:00:25","702644043","662585569","4.0.10.0","2","39","test","prime_positive","0","0","0","0","0","0","18","0","254","0","1","+","50pct","50pct","0","1","pleasant1.jpg","50pct","50pct","499","1","blank","50pct","50pct","599","72","pic72.jpg","50pct","50pct","699","1","mask.jpg","50pct","50pct","799"
"062320","13:00:25","702644043","662585569","4.0.10.0","2","40","test","prime_negative","0","0","0","0","0","0","23","1","221","0","1","+","50pct","50pct","0","3","unpleasant3.jpg","50pct","50pct","499","1","blank","50pct","50pct","599","16","pic16.jpg","50pct","50pct","699","1","mask.jpg","50pct","50pct","799"
"062320","13:00:25","702644043","662585569","4.0.10.0","2","41","test","prime_positive","0","0","0","0","0","0","18","0","320","0","1","+","50pct","50pct","0","7","pleasant7.jpg","50pct","50pct","499","1","blank","50pct","50pct","599","56","pic56.jpg","50pct","50pct","699","1","mask.jpg","50pct","50pct","799"
"062320","13:00:25","702644043","662585569","4.0.10.0","2","42","test","prime_negative","0","0","0","0","0","0","23","1","281","0","1","+","50pct","50pct","0","9","unpleasant9.jpg","50pct","50pct","499","1","blank","50pct","50pct","599","13","pic13.jpg","50pct","50pct","699","1","mask.jpg","50pct","50pct","799"
"062320","13:00:25","702644043","662585569","4.0.10.0","2","43","test","prime_positive","0","0","0","0","0","0","18","0","245","0","1","+","50pct","50pct","0","11","pleasant11.jpg","50pct","50pct","499","1","blank","50pct","50pct","599","17","pic17.jpg","50pct","50pct","699","1","mask.jpg","50pct","50pct","799"
"062320","13:00:25","702644043","662585569","4.0.10.0","2","44","test","prime_negative","0","0","0","0","0","0","23","1","314","0","1","+","50pct","50pct","0","1","unpleasant1.jpg","50pct","50pct","499","1","blank","50pct","50pct","599","48","pic48.jpg","50pct","50pct","699","1","mask.jpg","50pct","50pct","799"
"062320","13:00:25","702644043","662585569","4.0.10.0","2","45","test","prime_positive","0","0","0","0","0","0","18","0","261","0","1","+","50pct","50pct","0","12","pleasant12.jpg","50pct","50pct","499","1","blank","50pct","50pct","599","70","pic70.jpg","50pct","50pct","699","1","mask.jpg","50pct","50pct","800"
"062320","13:00:25","702644043","662585569","4.0.10.0","2","46","test","prime_positive","0","0","0","0","0","0","23","1","993","0","1","+","50pct","50pct","0","2","pleasant2.jpg","50pct","50pct","499","1","blank","50pct","50pct","599","60","pic60.jpg","50pct","50pct","699","1","mask.jpg","50pct","50pct","799"
"062320","13:00:25","702644043","662585569","4.0.10.0","2","47","test","prime_positive","0","0","0","0","0","0","18","0","135","0","1","+","50pct","50pct","0","6","pleasant6.jpg","50pct","50pct","499","1","blank","50pct","50pct","599","51","pic51.jpg","50pct","50pct","699","1","mask.jpg","50pct","50pct","799"
"062320","13:00:25","702644043","662585569","4.0.10.0","2","48","test","prime_negative","0","0","0","0","0","0","23","1","257","0","1","+","50pct","50pct","0","12","unpleasant12.jpg","50pct","50pct","499","1","blank","50pct","50pct","599","57","pic57.jpg","50pct","50pct","699","1","mask.jpg","50pct","50pct","799"
"062320","13:00:25","702644043","662585569","4.0.10.0","2","49","test","prime_positive","0","0","0","0","0","0","18","0","398","0","1","+","50pct","50pct","0","1","pleasant1.jpg","50pct","50pct","499","1","blank","50pct","50pct","599","24","pic24.jpg","50pct","50pct","699","1","mask.jpg","50pct","50pct","799"
"062320","13:00:25","702644043","662585569","4.0.10.0","2","50","test","prime_negative","0","0","0","0","0","0","23","1","258","0","1","+","50pct","50pct","0","6","unpleasant6.jpg","50pct","50pct","499","1","blank","50pct","50pct","599","20","pic20.jpg","50pct","50pct","699","1","mask.jpg","50pct","50pct","799"
"062320","13:00:25","702644043","662585569","4.0.10.0","2","51","test","prime_positive","0","0","0","0","0","0","18","0","365","0","1","+","50pct","50pct","0","5","pleasant5.jpg","50pct","50pct","499","1","blank","50pct","50pct","599","62","pic62.jpg","50pct","50pct","699","1","mask.jpg","50pct","50pct","799"
"062320","13:00:25","702644043","662585569","4.0.10.0","2","52","test","prime_negative","0","0","0","0","0","0","23","1","236","0","1","+","50pct","50pct","0","8","unpleasant8.jpg","50pct","50pct","499","1","blank","50pct","50pct","599","21","pic21.jpg","50pct","50pct","699","1","mask.jpg","50pct","50pct","799"
"062320","13:00:25","702644043","662585569","4.0.10.0","2","53","test","prime_negative","0","0","0","0","0","0","23","1","402","0","1","+","50pct","50pct","0","2","unpleasant2.jpg","50pct","50pct","499","1","blank","50pct","50pct","599","45","pic45.jpg","50pct","50pct","699","1","mask.jpg","50pct","50pct","799"
"062320","13:00:25","702644043","662585569","4.0.10.0","2","54","test","prime_negative","0","0","0","0","0","0","23","1","289","0","1","+","50pct","50pct","0","4","unpleasant4.jpg","50pct","50pct","499","1","blank","50pct","50pct","599","49","pic49.jpg","50pct","50pct","699","1","mask.jpg","50pct","50pct","799"
