"date","time","subject","blockcode","blocknum","trialcode","trialnum","values.primestim","values.targetstim","correct","latency","trial.prime_positive.totalpercentcorrect","trial.prime_negative.totalpercentcorrect"
"062320","13:34:41","987281493","practice","1","prime_positive_practice","4","0","0","0","555","0","0"
"062320","13:34:41","987281493","practice","1","prime_negative_practice","5","0","0","1","482","0","0"
"062320","13:34:41","987281493","practice","1","prime_negative_practice","6","0","0","1","342","0","0"
"062320","13:34:41","987281493","practice","1","prime_negative_practice","7","0","0","0","464","0","0"
"062320","13:34:41","987281493","practice","1","prime_negative_practice","8","0","0","1","222","0","0"
"062320","13:34:41","987281493","practice","1","prime_positive_practice","9","0","0","1","246","0","0"
"062320","13:34:41","987281493","practice","1","prime_positive_practice","10","0","0","0","198","0","0"
"062320","13:34:41","987281493","practice","1","prime_negative_practice","11","0","0","1","200","0","0"
"062320","13:34:41","987281493","practice","1","prime_positive_practice","12","0","0","0","207","0","0"
"062320","13:34:41","987281493","practice","1","prime_positive_practice","13","0","0","1","214","0","0"
"062320","12:47:30","677932533","practice","1","prime_positive_practice","4","0","0","0","7346","0","0"
"062320","12:47:30","677932533","practice","1","prime_positive_practice","5","0","0","0","4843","0","0"
"062320","12:47:30","677932533","practice","1","prime_positive_practice","6","0","0","1","825","0","0"
"062320","12:47:30","677932533","practice","1","prime_negative_practice","7","0","0","1","716","0","0"
"062320","12:47:30","677932533","practice","1","prime_negative_practice","8","0","0","1","785","0","0"
"062320","12:47:30","677932533","practice","1","prime_positive_practice","9","0","0","1","525","0","0"
"062320","12:47:30","677932533","practice","1","prime_negative_practice","10","0","0","1","1082","0","0"
"062320","12:47:30","677932533","practice","1","prime_positive_practice","11","0","0","0","1052","0","0"
"062320","12:47:30","677932533","practice","1","prime_negative_practice","12","0","0","1","590","0","0"
"062320","12:47:30","677932533","practice","1","prime_negative_practice","13","0","0","1","785","0","0"
"062320","12:47:30","677932533","test","2","prime_negative","2","5","10","0","1431","0","0"
"062320","12:47:30","677932533","test","2","prime_positive","3","2","48","1","844","100","0"
"062320","12:47:30","677932533","test","2","prime_negative","4","3","58","1","905","100","50"
"062320","12:47:30","677932533","test","2","prime_negative","5","9","39","0","678","100","33"
"062320","12:47:30","677932533","test","2","prime_negative","6","11","15","1","2377","100","50"
"062320","12:47:30","677932533","test","2","prime_negative","7","4","45","1","989","100","60"
"062320","12:47:30","677932533","test","2","prime_negative","8","2","4","1","1020","100","66"
"062320","12:47:30","677932533","test","2","prime_negative","9","10","31","0","912","100","57"
"062320","12:47:30","677932533","test","2","prime_positive","10","9","3","0","1181","50","57"
"062320","12:47:30","677932533","test","2","prime_negative","11","3","24","0","574","50","50"
"062320","12:47:30","677932533","test","2","prime_positive","12","11","63","1","517","66","50"
"062320","12:47:30","677932533","test","2","prime_positive","13","8","30","1","469","75","50"
"062320","12:47:30","677932533","test","2","prime_negative","14","6","11","0","1061","75","44"
"062320","12:47:30","677932533","test","2","prime_positive","15","1","27","0","620","60","44"
"062320","12:47:30","677932533","test","2","prime_positive","16","3","60","1","953","66","44"
"062320","12:47:30","677932533","test","2","prime_positive","17","6","68","0","656","57","44"
"062320","12:47:30","677932533","test","2","prime_positive","18","11","36","1","1211","62","44"
"062320","12:47:30","677932533","test","2","prime_negative","19","11","69","1","510","62","50"
"062320","12:47:30","677932533","test","2","prime_negative","20","12","38","1","1399","62","54"
"062320","12:47:30","677932533","test","2","prime_negative","21","7","59","1","669","62","58"
"062320","12:47:30","677932533","test","2","prime_positive","22","10","8","0","1474","55","58"
"062320","12:47:30","677932533","test","2","prime_positive","23","12","7","1","869","60","58"
"062320","12:47:30","677932533","test","2","prime_negative","24","5","17","0","951","60","53"
"062320","12:47:30","677932533","test","2","prime_negative","25","4","51","1","861","60","57"
"062320","12:47:30","677932533","test","2","prime_positive","26","6","52","1","709","63","57"
"062320","12:47:30","677932533","test","2","prime_negative","27","8","25","1","884","63","60"
"062320","12:47:30","677932533","test","2","prime_positive","28","1","57","1","750","66","60"
"062320","12:47:30","677932533","test","2","prime_positive","29","9","71","1","670","69","60"
"062320","12:47:30","677932533","test","2","prime_negative","30","10","44","1","607","69","62"
"062320","12:47:30","677932533","test","2","prime_negative","31","1","62","1","2561","69","64"
"062320","12:47:30","677932533","test","2","prime_positive","32","5","32","0","3266","64","64"
"062320","12:47:30","677932533","test","2","prime_positive","33","2","9","1","1950","66","64"
"062320","12:47:30","677932533","test","2","prime_negative","34","9","66","1","454","66","66"
"062320","12:47:30","677932533","test","2","prime_positive","35","3","47","1","522","68","66"
"062320","12:47:30","677932533","test","2","prime_negative","36","2","14","1","540","68","68"
"062320","12:47:30","677932533","test","2","prime_positive","37","8","21","1","461","70","68"
"062320","12:47:30","677932533","test","2","prime_positive","38","4","5","1","554","72","68"
"062320","12:47:30","677932533","test","2","prime_negative","39","7","55","1","508","72","70"
"062320","12:47:30","677932533","test","2","prime_positive","40","7","67","0","503","68","70"
"062320","12:47:30","677932533","test","2","prime_negative","41","12","12","1","542","68","71"
"062320","12:47:30","677932533","test","2","prime_positive","42","12","16","1","923","70","71"
"062320","12:47:30","677932533","test","2","prime_positive","43","6","19","0","1225","66","71"
"062320","12:47:30","677932533","test","2","prime_negative","44","4","42","0","708","66","68"
"062320","12:47:30","677932533","test","2","prime_positive","45","9","20","1","462","68","68"
"062320","12:47:30","677932533","test","2","prime_positive","46","5","23","0","492","65","68"
"062320","12:47:30","677932533","test","2","prime_positive","47","10","72","0","612","62","68"
"062320","12:47:30","677932533","test","2","prime_negative","48","10","65","1","661","62","69"
"062320","12:47:30","677932533","test","2","prime_positive","49","3","13","1","734","64","69"
"062320","12:47:30","677932533","test","2","prime_negative","50","9","33","0","1765","64","66"
"062320","12:47:30","677932533","test","2","prime_positive","51","8","26","1","537","65","66"
"062320","12:47:30","677932533","test","2","prime_positive","52","2","35","1","715","66","66"
"062320","12:47:30","677932533","test","2","prime_negative","53","2","29","0","1030","66","64"
"062320","12:47:30","677932533","test","2","prime_positive","54","11","43","1","1137","67","64"
"062320","12:47:30","677932533","test","2","prime_negative","55","6","50","1","609","67","65"
"062320","12:47:30","677932533","test","2","prime_negative","56","5","1","1","1057","67","66"
"062320","12:47:30","677932533","test","2","prime_negative","57","3","56","1","682","67","67"
"062320","12:47:30","677932533","test","2","prime_negative","58","1","41","1","1027","67","68"
"062320","12:47:30","677932533","test","2","prime_negative","59","11","18","1","656","67","70"
"062320","12:47:30","677932533","test","2","prime_negative","60","8","70","0","472","67","67"
"062320","12:47:30","677932533","test","2","prime_positive","61","1","64","1","551","68","67"
"062320","12:47:30","677932533","test","2","prime_positive","62","4","46","1","640","70","67"
"062320","12:47:30","677932533","test","2","prime_negative","63","4","6","0","741","70","65"
"062320","12:47:30","677932533","test","2","prime_negative","64","6","41","1","545","70","66"
"062320","12:47:30","677932533","test","2","prime_positive","65","7","31","1","451","70","66"
"062320","12:47:30","677932533","test","2","prime_positive","66","12","11","0","535","68","66"
"062320","12:47:30","677932533","test","2","prime_positive","67","8","21","1","560","69","66"
"062320","12:47:30","677932533","test","2","prime_negative","68","12","15","1","579","69","67"
"062320","12:47:30","677932533","test","2","prime_positive","69","3","63","0","721","67","67"
"062320","12:47:30","677932533","test","2","prime_positive","70","11","18","1","509","68","67"
"062320","12:47:30","677932533","test","2","prime_positive","71","5","9","1","863","69","67"
"062320","12:47:30","677932533","test","2","prime_negative","72","11","45","0","1192","69","65"
"062320","12:47:30","677932533","test","2","prime_negative","73","2","40","0","1113","69","63"
"062320","12:49:39","379779100","practice","1","prime_positive_practice","4","0","0","1","3644","0","0"
"062320","12:49:39","379779100","practice","1","prime_negative_practice","5","0","0","0","2247","0","0"
"062320","12:49:39","379779100","practice","1","prime_negative_practice","6","0","0","0","1901","0","0"
"062320","12:49:39","379779100","practice","1","prime_positive_practice","7","0","0","1","846","0","0"
"062320","12:49:39","379779100","practice","1","prime_positive_practice","8","0","0","1","1260","0","0"
"062320","12:49:39","379779100","practice","1","prime_positive_practice","9","0","0","1","1292","0","0"
"062320","12:49:39","379779100","practice","1","prime_negative_practice","10","0","0","0","769","0","0"
"062320","12:49:39","379779100","practice","1","prime_negative_practice","11","0","0","0","1180","0","0"
"062320","12:49:39","379779100","practice","1","prime_negative_practice","12","0","0","0","932","0","0"
"062320","12:49:39","379779100","practice","1","prime_positive_practice","13","0","0","1","612","0","0"
"062320","12:49:39","379779100","test","2","prime_negative","2","8","64","0","3561","0","0"
"062320","12:49:39","379779100","test","2","prime_negative","3","5","25","1","1383","0","50"
"062320","12:49:39","379779100","test","2","prime_negative","4","12","54","0","1042","0","33"
"062320","12:49:39","379779100","test","2","prime_positive","5","6","39","1","1350","100","33"
"062320","12:49:39","379779100","test","2","prime_positive","6","3","51","1","545","100","33"
"062320","12:49:39","379779100","test","2","prime_positive","7","12","26","1","361","100","33"
"062320","12:49:39","379779100","test","2","prime_positive","8","1","38","1","264","100","33"
"062320","12:49:39","379779100","test","2","prime_positive","9","2","11","1","190","100","33"
"062320","12:49:39","379779100","test","2","prime_positive","10","4","31","1","437","100","33"
"062320","12:49:39","379779100","test","2","prime_positive","11","11","29","1","581","100","33"
"062320","12:49:39","379779100","test","2","prime_negative","12","2","44","0","1194","100","25"
"062320","12:49:39","379779100","test","2","prime_positive","13","10","32","1","733","100","25"
"062320","12:49:39","379779100","test","2","prime_negative","14","7","4","0","667","100","20"
"062320","12:49:39","379779100","test","2","prime_positive","15","11","62","1","509","100","20"
"062320","12:49:39","379779100","test","2","prime_negative","16","1","59","0","620","100","16"
"062320","12:49:39","379779100","test","2","prime_positive","17","9","58","1","692","100","16"
"062320","12:49:39","379779100","test","2","prime_positive","18","7","40","1","639","100","16"
"062320","12:49:39","379779100","test","2","prime_negative","19","3","65","0","754","100","14"
"062320","12:49:39","379779100","test","2","prime_negative","20","5","37","1","749","100","25"
"062320","12:49:39","379779100","test","2","prime_negative","21","9","15","0","728","100","22"
"062320","12:49:39","379779100","test","2","prime_negative","22","12","70","0","1438","100","20"
"062320","12:49:39","379779100","test","2","prime_negative","23","8","19","1","750","100","27"
"062320","12:49:39","379779100","test","2","prime_positive","24","1","16","1","658","100","27"
"062320","12:49:39","379779100","test","2","prime_positive","25","6","71","1","1100","100","27"
"062320","12:49:39","379779100","test","2","prime_negative","26","3","28","0","777","100","25"
"062320","12:49:39","379779100","test","2","prime_negative","27","6","41","0","3085","100","23"
"062320","12:49:39","379779100","test","2","prime_negative","28","4","1","0","917","100","21"
"062320","12:49:39","379779100","test","2","prime_positive","29","3","43","1","645","100","21"
"062320","12:49:39","379779100","test","2","prime_negative","30","11","5","0","761","100","20"
"062320","12:49:39","379779100","test","2","prime_negative","31","1","6","0","573","100","18"
"062320","12:49:39","379779100","test","2","prime_positive","32","2","14","1","346","100","18"
"062320","12:49:39","379779100","test","2","prime_negative","33","7","7","0","388","100","17"
"062320","12:49:39","379779100","test","2","prime_positive","34","12","17","1","320","100","17"
"062320","12:49:39","379779100","test","2","prime_negative","35","10","56","0","601","100","16"
"062320","12:49:39","379779100","test","2","prime_negative","36","2","23","0","455","100","15"
"062320","12:49:39","379779100","test","2","prime_positive","37","4","27","1","601","100","15"
"062320","12:49:39","379779100","test","2","prime_positive","38","8","69","1","703","100","15"
"062320","12:49:39","379779100","test","2","prime_positive","39","5","42","1","587","100","15"
"062320","12:49:39","379779100","test","2","prime_negative","40","6","33","0","430","100","15"
"062320","12:49:39","379779100","test","2","prime_negative","41","8","30","1","372","100","19"
"062320","12:49:39","379779100","test","2","prime_negative","42","7","24","0","1178","100","18"
"062320","12:49:39","379779100","test","2","prime_positive","43","12","21","1","474","100","18"
"062320","12:49:39","379779100","test","2","prime_negative","44","3","48","0","1304","100","17"
"062320","12:49:39","379779100","test","2","prime_positive","45","8","50","1","493","100","17"
"062320","12:49:39","379779100","test","2","prime_negative","46","2","72","0","476","100","16"
"062320","12:49:39","379779100","test","2","prime_positive","47","11","10","1","365","100","16"
"062320","12:49:39","379779100","test","2","prime_positive","48","6","9","1","585","100","16"
"062320","12:49:39","379779100","test","2","prime_negative","49","12","55","1","2340","100","20"
"062320","12:49:39","379779100","test","2","prime_positive","50","2","8","1","372","100","20"
"062320","12:49:39","379779100","test","2","prime_positive","51","9","66","1","283","100","20"
"062320","12:49:39","379779100","test","2","prime_positive","52","3","60","1","374","100","20"
"062320","12:49:39","379779100","test","2","prime_negative","53","4","34","1","522","100","23"
"062320","12:49:39","379779100","test","2","prime_positive","54","5","68","1","322","100","23"
"062320","12:49:39","379779100","test","2","prime_negative","55","1","22","0","309","100","22"
"062320","12:49:39","379779100","test","2","prime_negative","56","9","12","0","435","100","21"
"062320","12:49:39","379779100","test","2","prime_positive","57","4","3","1","2134","100","21"
"062320","12:49:39","379779100","test","2","prime_positive","58","7","53","1","398","100","21"
"062320","12:49:39","379779100","test","2","prime_positive","59","1","63","1","393","100","21"
"062320","12:49:39","379779100","test","2","prime_negative","60","5","35","1","538","100","24"
"062320","12:49:39","379779100","test","2","prime_positive","61","10","18","1","874","100","24"
"062320","12:49:39","379779100","test","2","prime_positive","62","11","57","1","366","100","24"
"062320","12:49:39","379779100","test","2","prime_negative","63","10","46","0","428","100","23"
"062320","12:49:39","379779100","test","2","prime_negative","64","11","6","0","1846","100","22"
"062320","12:49:39","379779100","test","2","prime_positive","65","12","62","1","426","100","22"
"062320","12:49:39","379779100","test","2","prime_negative","66","6","41","0","381","100","21"
"062320","12:49:39","379779100","test","2","prime_positive","67","2","71","1","436","100","21"
"062320","12:49:39","379779100","test","2","prime_positive","68","6","3","1","244","100","21"
"062320","12:49:39","379779100","test","2","prime_negative","69","4","19","0","275","100","21"
"062320","12:49:39","379779100","test","2","prime_negative","70","9","31","0","381","100","20"
"062320","12:49:39","379779100","test","2","prime_negative","71","11","40","0","412","100","20"
"062320","12:49:39","379779100","test","2","prime_positive","72","10","15","1","364","100","20"
"062320","12:49:39","379779100","test","2","prime_negative","73","10","33","0","575","100","19"
"062320","12:51:22","602610803","practice","1","prime_negative_practice","4","0","0","0","3016","0","0"
"062320","12:51:22","602610803","practice","1","prime_positive_practice","5","0","0","1","2483","0","0"
"062320","12:51:22","602610803","practice","1","prime_positive_practice","6","0","0","1","1031","0","0"
"062320","12:51:22","602610803","practice","1","prime_positive_practice","7","0","0","1","949","0","0"
"062320","12:51:22","602610803","practice","1","prime_positive_practice","8","0","0","1","1816","0","0"
"062320","12:51:22","602610803","practice","1","prime_negative_practice","9","0","0","0","876","0","0"
"062320","12:51:22","602610803","practice","1","prime_positive_practice","10","0","0","0","568","0","0"
"062320","12:51:22","602610803","practice","1","prime_negative_practice","11","0","0","0","423","0","0"
"062320","12:51:22","602610803","practice","1","prime_negative_practice","12","0","0","0","1302","0","0"
"062320","12:51:22","602610803","practice","1","prime_negative_practice","13","0","0","0","729","0","0"
"062320","12:51:22","602610803","test","2","prime_negative","2","9","3","0","1181","0","0"
"062320","12:51:22","602610803","test","2","prime_positive","3","12","8","1","1120","100","0"
"062320","12:51:22","602610803","test","2","prime_negative","4","11","11","0","736","100","0"
"062320","12:51:22","602610803","test","2","prime_positive","5","11","54","1","635","100","0"
"062320","12:51:22","602610803","test","2","prime_positive","6","8","37","1","1049","100","0"
"062320","12:51:22","602610803","test","2","prime_negative","7","3","22","0","732","100","0"
"062320","12:51:22","602610803","test","2","prime_negative","8","4","29","1","1024","100","25"
"062320","12:51:22","602610803","test","2","prime_positive","9","5","18","1","582","100","25"
"062320","12:51:22","602610803","test","2","prime_positive","10","9","71","1","855","100","25"
"062320","12:51:22","602610803","test","2","prime_positive","11","1","34","1","659","100","25"
"062320","12:51:22","602610803","test","2","prime_positive","12","10","46","1","728","100","25"
"062320","12:51:22","602610803","test","2","prime_negative","13","12","47","0","400","100","20"
"062320","12:51:22","602610803","test","2","prime_positive","14","10","43","1","649","100","20"
"062320","12:51:22","602610803","test","2","prime_positive","15","9","25","1","622","100","20"
"062320","12:51:22","602610803","test","2","prime_negative","16","7","61","0","706","100","16"
"062320","12:51:22","602610803","test","2","prime_negative","17","6","67","0","1800","100","14"
"062320","12:51:22","602610803","test","2","prime_negative","18","3","24","0","678","100","12"
"062320","12:51:22","602610803","test","2","prime_positive","19","2","69","1","516","100","12"
"062320","12:51:22","602610803","test","2","prime_negative","20","5","2","0","628","100","11"
"062320","12:51:22","602610803","test","2","prime_negative","21","2","28","0","466","100","10"
"062320","12:51:22","602610803","test","2","prime_negative","22","1","72","0","775","100","9"
"062320","12:51:22","602610803","test","2","prime_negative","23","10","38","0","494","100","8"
"062320","12:51:22","602610803","test","2","prime_negative","24","6","33","0","473","100","7"
"062320","12:51:22","602610803","test","2","prime_positive","25","5","53","1","391","100","7"
"062320","12:51:22","602610803","test","2","prime_positive","26","12","51","1","558","100","7"
"062320","12:51:22","602610803","test","2","prime_positive","27","1","36","1","454","100","7"
"062320","12:51:22","602610803","test","2","prime_negative","28","8","44","0","529","100","7"
"062320","12:51:22","602610803","test","2","prime_negative","29","7","15","0","668","100","6"
"062320","12:51:22","602610803","test","2","prime_positive","30","3","52","1","577","100","6"
"062320","12:51:22","602610803","test","2","prime_positive","31","11","68","1","642","100","6"
"062320","12:51:22","602610803","test","2","prime_positive","32","4","12","0","1271","93","6"
"062320","12:51:22","602610803","test","2","prime_negative","33","12","9","0","724","93","6"
"062320","12:51:22","602610803","test","2","prime_negative","34","11","27","0","614","93","5"
"062320","12:51:22","602610803","test","2","prime_positive","35","6","59","1","510","94","5"
"062320","12:51:22","602610803","test","2","prime_positive","36","7","16","1","441","94","5"
"062320","12:51:22","602610803","test","2","prime_negative","37","9","10","0","589","94","5"
"062320","12:51:22","602610803","test","2","prime_positive","38","8","31","1","566","94","5"
"062320","12:51:22","602610803","test","2","prime_positive","39","6","23","1","534","95","5"
"062320","12:51:22","602610803","test","2","prime_negative","40","4","32","0","3741","95","5"
"062320","12:51:22","602610803","test","2","prime_negative","41","1","66","0","1032","95","5"
"062320","12:51:22","602610803","test","2","prime_negative","42","10","48","1","824","95","9"
"062320","12:51:22","602610803","test","2","prime_negative","43","2","7","0","813","95","9"
"062320","12:51:22","602610803","test","2","prime_negative","44","9","62","0","748","95","8"
"062320","12:51:22","602610803","test","2","prime_positive","45","3","57","1","743","95","8"
"062320","12:51:22","602610803","test","2","prime_negative","46","3","60","0","399","95","8"
"062320","12:51:22","602610803","test","2","prime_negative","47","6","58","0","726","95","8"
"062320","12:51:22","602610803","test","2","prime_positive","48","10","21","1","770","95","8"
"062320","12:51:22","602610803","test","2","prime_negative","49","11","70","1","1950","95","11"
"062320","12:51:22","602610803","test","2","prime_positive","50","7","5","1","687","95","11"
"062320","12:51:22","602610803","test","2","prime_negative","51","4","42","0","1051","95","11"
"062320","12:51:22","602610803","test","2","prime_negative","52","8","19","1","834","95","14"
"062320","12:51:22","602610803","test","2","prime_negative","53","12","49","0","903","95","13"
"062320","12:51:22","602610803","test","2","prime_negative","54","7","14","0","1348","95","13"
"062320","12:51:22","602610803","test","2","prime_positive","55","11","4","1","1225","95","13"
"062320","12:51:22","602610803","test","2","prime_positive","56","4","65","0","1063","92","13"
"062320","12:51:22","602610803","test","2","prime_negative","57","5","56","0","773","92","12"
"062320","12:51:22","602610803","test","2","prime_positive","58","2","20","1","839","92","12"
"062320","12:51:22","602610803","test","2","prime_positive","59","1","55","1","661","92","12"
"062320","12:51:22","602610803","test","2","prime_positive","60","5","13","1","474","92","12"
"062320","12:51:22","602610803","test","2","prime_negative","61","7","6","1","1665","92","15"
"062320","12:51:22","602610803","test","2","prime_negative","62","1","45","0","476","92","15"
"062320","12:51:22","602610803","test","2","prime_negative","63","5","30","0","609","92","14"
"062320","12:51:22","602610803","test","2","prime_positive","64","9","28","1","858","93","14"
"062320","12:51:22","602610803","test","2","prime_negative","65","6","33","1","687","93","17"
"062320","12:51:22","602610803","test","2","prime_positive","66","8","29","1","699","93","17"
"062320","12:51:22","602610803","test","2","prime_positive","67","12","3","1","727","93","17"
"062320","12:51:22","602610803","test","2","prime_positive","68","1","46","1","513","93","17"
"062320","12:51:22","602610803","test","2","prime_negative","69","12","6","1","789","93","19"
"062320","12:51:22","602610803","test","2","prime_positive","70","5","66","1","1030","93","19"
"062320","12:51:22","602610803","test","2","prime_positive","71","4","39","1","700","94","19"
"062320","12:51:22","602610803","test","2","prime_positive","72","6","14","0","389","91","19"
"062320","12:51:22","602610803","test","2","prime_positive","73","12","1","0","517","88","19"
"062320","12:56:59","875811662","practice","1","prime_positive_practice","4","0","0","1","2558","0","0"
"062320","12:56:59","875811662","practice","1","prime_negative_practice","5","0","0","0","854","0","0"
"062320","12:56:59","875811662","practice","1","prime_negative_practice","6","0","0","0","681","0","0"
"062320","12:56:59","875811662","practice","1","prime_positive_practice","7","0","0","1","707","0","0"
"062320","12:56:59","875811662","practice","1","prime_negative_practice","8","0","0","1","581","0","0"
"062320","12:56:59","875811662","practice","1","prime_positive_practice","9","0","0","0","588","0","0"
"062320","12:56:59","875811662","practice","1","prime_positive_practice","10","0","0","1","354","0","0"
"062320","12:56:59","875811662","practice","1","prime_negative_practice","11","0","0","0","529","0","0"
"062320","12:56:59","875811662","practice","1","prime_negative_practice","12","0","0","1","354","0","0"
"062320","12:56:59","875811662","practice","1","prime_positive_practice","13","0","0","1","401","0","0"
"062320","12:56:59","875811662","test","2","prime_negative","2","9","15","0","932","0","0"
"062320","12:56:59","875811662","test","2","prime_negative","3","2","21","1","469","0","50"
"062320","12:56:59","875811662","test","2","prime_negative","4","7","19","1","319","0","66"
"062320","12:56:59","875811662","test","2","prime_negative","5","1","25","1","337","0","75"
"062320","12:56:59","875811662","test","2","prime_negative","6","11","61","0","376","0","60"
"062320","12:56:59","875811662","test","2","prime_negative","7","10","39","1","327","0","66"
"062320","12:56:59","875811662","test","2","prime_positive","8","5","9","1","296","100","66"
"062320","12:56:59","875811662","test","2","prime_negative","9","8","16","1","418","100","71"
"062320","12:56:59","875811662","test","2","prime_negative","10","12","17","0","358","100","62"
"062320","12:56:59","875811662","test","2","prime_positive","11","12","29","1","318","100","62"
"062320","12:56:59","875811662","test","2","prime_positive","12","7","42","1","255","100","62"
"062320","12:56:59","875811662","test","2","prime_negative","13","4","8","1","290","100","66"
"062320","12:56:59","875811662","test","2","prime_negative","14","1","27","1","324","100","70"
"062320","12:56:59","875811662","test","2","prime_positive","15","8","65","0","349","75","70"
"062320","12:56:59","875811662","test","2","prime_positive","16","10","36","0","405","60","70"
"062320","12:56:59","875811662","test","2","prime_positive","17","3","67","0","369","50","70"
"062320","12:56:59","875811662","test","2","prime_negative","18","5","54","1","224","50","72"
"062320","12:56:59","875811662","test","2","prime_positive","19","4","18","1","461","57","72"
"062320","12:56:59","875811662","test","2","prime_negative","20","7","24","0","265","57","66"
"062320","12:56:59","875811662","test","2","prime_negative","21","8","52","0","316","57","61"
"062320","12:56:59","875811662","test","2","prime_negative","22","3","71","1","277","57","64"
"062320","12:56:59","875811662","test","2","prime_negative","23","10","53","1","263","57","66"
"062320","12:56:59","875811662","test","2","prime_negative","24","6","58","1","267","57","68"
"062320","12:56:59","875811662","test","2","prime_positive","25","8","40","0","325","50","68"
"062320","12:56:59","875811662","test","2","prime_negative","26","2","60","0","262","50","64"
"062320","12:56:59","875811662","test","2","prime_positive","27","10","66","0","265","44","64"
"062320","12:56:59","875811662","test","2","prime_negative","28","9","5","1","133","44","66"
"062320","12:56:59","875811662","test","2","prime_negative","29","11","3","1","245","44","68"
"062320","12:56:59","875811662","test","2","prime_positive","30","5","44","0","233","40","68"
"062320","12:56:59","875811662","test","2","prime_positive","31","11","51","0","52","36","68"
"062320","12:56:59","875811662","test","2","prime_negative","32","10","28","1","576","36","70"
"062320","12:56:59","875811662","test","2","prime_negative","33","12","13","0","687","36","66"
"062320","12:56:59","875811662","test","2","prime_negative","34","1","43","0","456","36","63"
"062320","12:56:59","875811662","test","2","prime_negative","35","7","48","1","260","36","65"
"062320","12:56:59","875811662","test","2","prime_positive","36","6","59","1","224","41","65"
"062320","12:56:59","875811662","test","2","prime_positive","37","9","1","1","236","46","65"
"062320","12:56:59","875811662","test","2","prime_negative","38","3","46","1","256","46","66"
"062320","12:56:59","875811662","test","2","prime_negative","39","8","26","1","323","46","68"
"062320","12:56:59","875811662","test","2","prime_positive","40","1","14","1","372","50","68"
"062320","12:56:59","875811662","test","2","prime_positive","41","2","4","0","259","46","68"
"062320","12:56:59","875811662","test","2","prime_negative","42","9","69","0","286","46","65"
"062320","12:56:59","875811662","test","2","prime_positive","43","7","57","1","208","50","65"
"062320","12:56:59","875811662","test","2","prime_positive","44","4","34","0","69","47","65"
"062320","12:56:59","875811662","test","2","prime_negative","45","2","56","0","312","47","62"
"062320","12:56:59","875811662","test","2","prime_negative","46","5","70","0","433","47","60"
"062320","12:56:59","875811662","test","2","prime_positive","47","3","38","1","205","50","60"
"062320","12:56:59","875811662","test","2","prime_positive","48","12","30","1","347","52","60"
"062320","12:56:59","875811662","test","2","prime_positive","49","6","33","0","227","50","60"
"062320","12:56:59","875811662","test","2","prime_positive","50","12","50","0","392","47","60"
"062320","12:56:59","875811662","test","2","prime_positive","51","11","41","0","397","45","60"
"062320","12:56:59","875811662","test","2","prime_negative","52","6","12","1","309","45","62"
"062320","12:56:59","875811662","test","2","prime_negative","53","11","20","1","332","45","63"
"062320","12:56:59","875811662","test","2","prime_positive","54","5","23","0","293","43","63"
"062320","12:56:59","875811662","test","2","prime_positive","55","10","45","0","254","41","63"
"062320","12:56:59","875811662","test","2","prime_positive","56","4","6","1","58","44","63"
"062320","12:56:59","875811662","test","2","prime_negative","57","4","2","1","198","44","64"
"062320","12:56:59","875811662","test","2","prime_positive","58","9","10","0","171","42","64"
"062320","12:56:59","875811662","test","2","prime_positive","59","2","62","1","202","44","64"
"062320","12:56:59","875811662","test","2","prime_positive","60","3","32","0","408","42","64"
"062320","12:56:59","875811662","test","2","prime_positive","61","8","47","1","229","44","64"
"062320","12:56:59","875811662","test","2","prime_negative","62","3","49","1","450","44","65"
"062320","12:56:59","875811662","test","2","prime_positive","63","1","55","1","341","46","65"
"062320","12:56:59","875811662","test","2","prime_negative","64","11","19","1","405","46","66"
"062320","12:56:59","875811662","test","2","prime_positive","65","7","53","0","370","45","66"
"062320","12:56:59","875811662","test","2","prime_positive","66","6","48","1","953","46","66"
"062320","12:56:59","875811662","test","2","prime_positive","67","7","14","0","2224","45","66"
"062320","12:56:59","875811662","test","2","prime_positive","68","3","44","1","372","47","66"
"062320","12:56:59","875811662","test","2","prime_negative","69","10","21","1","436","47","67"
"062320","12:56:59","875811662","test","2","prime_positive","70","9","31","0","416","45","67"
"062320","12:56:59","875811662","test","2","prime_negative","71","2","68","0","460","45","65"
"062320","12:56:59","875811662","test","2","prime_negative","72","8","63","1","336","45","66"
"062320","12:56:59","875811662","test","2","prime_positive","73","10","3","1","280","47","66"
"062320","12:57:49","662585569","practice","1","prime_positive_practice","4","0","0","0","3470","0","0"
"062320","12:57:49","662585569","practice","1","prime_negative_practice","5","0","0","0","2177","0","0"
"062320","12:57:49","662585569","practice","1","prime_negative_practice","6","0","0","1","2792","0","0"
"062320","12:57:49","662585569","practice","1","prime_negative_practice","7","0","0","0","1047","0","0"
"062320","12:57:49","662585569","practice","1","prime_positive_practice","8","0","0","0","772","0","0"
"062320","12:57:49","662585569","practice","1","prime_negative_practice","9","0","0","1","884","0","0"
"062320","12:57:49","662585569","practice","1","prime_negative_practice","10","0","0","1","344","0","0"
"062320","12:57:49","662585569","practice","1","prime_positive_practice","11","0","0","0","772","0","0"
"062320","12:57:49","662585569","practice","1","prime_positive_practice","12","0","0","0","1636","0","0"
"062320","12:57:49","662585569","practice","1","prime_positive_practice","13","0","0","0","743","0","0"
"062320","12:57:49","662585569","test","2","prime_positive","2","6","18","0","1810","0","0"
"062320","12:57:49","662585569","test","2","prime_positive","3","12","38","0","427","0","0"
"062320","12:57:49","662585569","test","2","prime_positive","4","10","7","0","882","0","0"
"062320","12:57:49","662585569","test","2","prime_negative","5","10","48","1","436","0","100"
"062320","12:57:49","662585569","test","2","prime_positive","6","8","10","0","922","0","100"
"062320","12:57:49","662585569","test","2","prime_negative","7","12","28","1","1838","0","100"
"062320","12:57:49","662585569","test","2","prime_negative","8","9","17","1","2121","0","100"
"062320","12:57:49","662585569","test","2","prime_positive","9","4","61","0","3348","0","100"
"062320","12:57:49","662585569","test","2","prime_negative","10","7","30","1","1033","0","100"
"062320","12:57:49","662585569","test","2","prime_negative","11","3","11","1","441","0","100"
"062320","12:57:49","662585569","test","2","prime_negative","12","1","70","1","388","0","100"
"062320","12:57:49","662585569","test","2","prime_positive","13","11","5","0","394","0","100"
"062320","12:57:49","662585569","test","2","prime_negative","14","4","52","1","497","0","100"
"062320","12:57:49","662585569","test","2","prime_positive","15","5","45","0","1287","0","100"
"062320","12:57:49","662585569","test","2","prime_positive","16","2","22","0","411","0","100"
"062320","12:57:49","662585569","test","2","prime_positive","17","4","57","0","413","0","100"
"062320","12:57:49","662585569","test","2","prime_positive","18","6","9","0","288","0","100"
"062320","12:57:49","662585569","test","2","prime_positive","19","12","3","0","337","0","100"
"062320","12:57:49","662585569","test","2","prime_negative","20","11","41","1","593","0","100"
"062320","12:57:49","662585569","test","2","prime_positive","21","1","66","0","350","0","100"
"062320","12:57:49","662585569","test","2","prime_negative","22","9","55","1","365","0","100"
"062320","12:57:49","662585569","test","2","prime_positive","23","11","29","0","357","0","100"
"062320","12:57:49","662585569","test","2","prime_positive","24","5","58","0","498","0","100"
"062320","12:57:49","662585569","test","2","prime_negative","25","5","37","0","1150","0","90"
"062320","12:57:49","662585569","test","2","prime_negative","26","1","33","1","575","0","90"
"062320","12:57:49","662585569","test","2","prime_positive","27","7","44","0","495","0","90"
"062320","12:57:49","662585569","test","2","prime_negative","28","4","12","1","345","0","91"
"062320","12:57:49","662585569","test","2","prime_negative","29","3","1","1","497","0","92"
"062320","12:57:49","662585569","test","2","prime_positive","30","8","71","0","856","0","92"
"062320","12:57:49","662585569","test","2","prime_positive","31","10","53","0","886","0","92"
"062320","12:57:49","662585569","test","2","prime_negative","32","6","67","1","1511","0","92"
"062320","12:57:49","662585569","test","2","prime_negative","33","10","8","1","512","0","93"
"062320","12:57:49","662585569","test","2","prime_negative","34","12","56","1","336","0","93"
"062320","12:57:49","662585569","test","2","prime_negative","35","7","24","1","363","0","94"
"062320","12:57:49","662585569","test","2","prime_negative","36","2","32","1","372","0","94"
"062320","12:57:49","662585569","test","2","prime_negative","37","8","62","1","636","0","94"
"062320","12:57:49","662585569","test","2","prime_negative","38","2","14","1","228","0","95"
"062320","12:57:49","662585569","test","2","prime_positive","39","9","46","0","280","0","95"
"062320","12:57:49","662585569","test","2","prime_negative","40","1","2","1","517","0","95"
"062320","12:57:49","662585569","test","2","prime_positive","41","3","19","0","383","0","95"
"062320","12:57:49","662585569","test","2","prime_positive","42","6","34","0","236","0","95"
"062320","12:57:49","662585569","test","2","prime_negative","43","4","31","1","220","0","95"
"062320","12:57:49","662585569","test","2","prime_negative","44","10","16","1","558","0","95"
"062320","12:57:49","662585569","test","2","prime_negative","45","6","6","1","815","0","95"
"062320","12:57:49","662585569","test","2","prime_positive","46","12","64","0","430","0","95"
"062320","12:57:49","662585569","test","2","prime_negative","47","7","13","1","361","0","96"
"062320","12:57:49","662585569","test","2","prime_negative","48","11","49","1","565","0","96"
"062320","12:57:49","662585569","test","2","prime_positive","49","5","63","1","295","4","96"
"062320","12:57:49","662585569","test","2","prime_positive","50","8","35","0","1645","4","96"
"062320","12:57:49","662585569","test","2","prime_positive","51","9","27","0","289","4","96"
"062320","12:57:49","662585569","test","2","prime_negative","52","8","54","1","344","4","96"
"062320","12:57:49","662585569","test","2","prime_positive","53","3","25","0","384","4","96"
"062320","12:57:49","662585569","test","2","prime_negative","54","12","69","1","333","4","96"
"062320","12:57:49","662585569","test","2","prime_negative","55","5","21","1","417","4","96"
"062320","12:57:49","662585569","test","2","prime_positive","56","2","59","0","383","3","96"
"062320","12:57:49","662585569","test","2","prime_negative","57","9","51","1","406","3","96"
"062320","12:57:49","662585569","test","2","prime_positive","58","10","43","0","410","3","96"
"062320","12:57:49","662585569","test","2","prime_positive","59","4","72","0","727","3","96"
"062320","12:57:49","662585569","test","2","prime_negative","60","3","39","1","412","3","96"
"062320","12:57:49","662585569","test","2","prime_positive","61","1","60","0","544","3","96"
"062320","12:57:49","662585569","test","2","prime_negative","62","10","4","1","511","3","96"
"062320","12:57:49","662585569","test","2","prime_negative","63","4","40","1","570","3","96"
"062320","12:57:49","662585569","test","2","prime_positive","64","7","65","0","796","3","96"
"062320","12:57:49","662585569","test","2","prime_negative","65","11","54","1","954","3","97"
"062320","12:57:49","662585569","test","2","prime_positive","66","11","29","1","1081","6","97"
"062320","12:57:49","662585569","test","2","prime_positive","67","7","16","0","1024","6","97"
"062320","12:57:49","662585569","test","2","prime_positive","68","1","63","0","273","6","97"
"062320","12:57:49","662585569","test","2","prime_positive","69","3","11","0","325","5","97"
"062320","12:57:49","662585569","test","2","prime_positive","70","2","34","0","285","5","97"
"062320","12:57:49","662585569","test","2","prime_negative","71","3","24","1","166","5","97"
"062320","12:57:49","662585569","test","2","prime_positive","72","10","48","0","605","5","97"
"062320","12:57:49","662585569","test","2","prime_negative","73","1","27","1","243","5","97"
"062320","12:57:11","950691993","practice","1","prime_positive_practice","4","0","0","1","7919","0","0"
"062320","12:57:11","950691993","practice","1","prime_negative_practice","5","0","0","1","503","0","0"
"062320","12:57:11","950691993","practice","1","prime_negative_practice","6","0","0","1","2363","0","0"
"062320","12:57:11","950691993","practice","1","prime_positive_practice","7","0","0","0","543","0","0"
"062320","12:57:11","950691993","practice","1","prime_negative_practice","8","0","0","1","359","0","0"
"062320","12:57:11","950691993","practice","1","prime_positive_practice","9","0","0","0","354","0","0"
"062320","12:57:11","950691993","practice","1","prime_negative_practice","10","0","0","0","362","0","0"
"062320","12:57:11","950691993","practice","1","prime_positive_practice","11","0","0","1","456","0","0"
"062320","12:57:11","950691993","practice","1","prime_negative_practice","12","0","0","1","146","0","0"
"062320","12:57:11","950691993","practice","1","prime_positive_practice","13","0","0","0","60","0","0"
"062320","12:57:11","950691993","test","2","prime_negative","2","3","63","1","320","0","100"
"062320","12:57:11","950691993","test","2","prime_negative","3","9","41","1","1935","0","100"
"062320","12:57:11","950691993","test","2","prime_positive","4","11","25","1","843","100","100"
"062320","12:57:11","950691993","test","2","prime_negative","5","2","19","0","607","100","66"
"062320","12:57:11","950691993","test","2","prime_negative","6","8","3","0","670","100","50"
"062320","12:57:11","950691993","test","2","prime_positive","7","2","47","0","1165","50","50"
"062320","12:57:11","950691993","test","2","prime_negative","8","5","27","1","594","50","60"
"062320","12:57:11","950691993","test","2","prime_positive","9","6","26","1","398","66","60"
"062320","12:57:11","950691993","test","2","prime_positive","10","4","68","0","1457","50","60"
"062320","12:57:11","950691993","test","2","prime_positive","11","1","35","1","405","60","60"
"062320","12:57:11","950691993","test","2","prime_negative","12","12","12","0","701","60","50"
"062320","12:57:11","950691993","test","2","prime_positive","13","8","54","1","956","66","50"
"062320","12:57:11","950691993","test","2","prime_positive","14","3","18","1","312","71","50"
"062320","12:57:11","950691993","test","2","prime_negative","15","10","72","0","486","71","42"
"062320","12:57:11","950691993","test","2","prime_negative","16","5","23","1","425","71","50"
"062320","12:57:11","950691993","test","2","prime_negative","17","7","33","0","508","71","44"
"062320","12:57:11","950691993","test","2","prime_negative","18","10","62","0","396","71","40"
"062320","12:57:11","950691993","test","2","prime_positive","19","12","11","0","594","62","40"
"062320","12:57:11","950691993","test","2","prime_positive","20","5","13","1","322","66","40"
"062320","12:57:11","950691993","test","2","prime_positive","21","10","43","1","198","70","40"
"062320","12:57:11","950691993","test","2","prime_positive","22","9","31","1","447","72","40"
"062320","12:57:11","950691993","test","2","prime_positive","23","8","39","1","363","75","40"
"062320","12:57:11","950691993","test","2","prime_positive","24","7","40","1","328","76","40"
"062320","12:57:11","950691993","test","2","prime_positive","25","1","66","1","187","78","40"
"062320","12:57:11","950691993","test","2","prime_negative","26","1","69","0","340","78","36"
"062320","12:57:11","950691993","test","2","prime_positive","27","6","48","1","177","80","36"
"062320","12:57:11","950691993","test","2","prime_negative","28","11","42","1","289","80","41"
"062320","12:57:11","950691993","test","2","prime_negative","29","3","34","0","89","80","38"
"062320","12:57:11","950691993","test","2","prime_negative","30","12","59","1","225","80","42"
"062320","12:57:11","950691993","test","2","prime_positive","31","11","32","0","256","75","42"
"062320","12:57:11","950691993","test","2","prime_negative","32","6","1","0","401","75","40"
"062320","12:57:11","950691993","test","2","prime_negative","33","4","21","0","144","75","37"
"062320","12:57:11","950691993","test","2","prime_positive","34","2","67","0","227","70","37"
"062320","12:57:11","950691993","test","2","prime_positive","35","4","46","0","994","66","37"
"062320","12:57:11","950691993","test","2","prime_negative","36","2","38","0","203","66","35"
"062320","12:57:11","950691993","test","2","prime_negative","37","9","57","0","251","66","33"
"062320","12:57:11","950691993","test","2","prime_negative","38","8","70","1","693","66","36"
"062320","12:57:11","950691993","test","2","prime_positive","39","3","55","1","259","68","36"
"062320","12:57:11","950691993","test","2","prime_positive","40","5","36","0","128","65","36"
"062320","12:57:11","950691993","test","2","prime_negative","41","12","50","0","526","65","35"
"062320","12:57:11","950691993","test","2","prime_negative","42","5","28","0","126","65","33"
"062320","12:57:11","950691993","test","2","prime_positive","43","2","64","0","124","61","33"
"062320","12:57:11","950691993","test","2","prime_negative","44","9","45","0","338","61","31"
"062320","12:57:11","950691993","test","2","prime_positive","45","6","65","0","148","59","31"
"062320","12:57:11","950691993","test","2","prime_negative","46","11","4","0","146","59","30"
"062320","12:57:11","950691993","test","2","prime_negative","47","7","30","0","254","59","29"
"062320","12:57:11","950691993","test","2","prime_negative","48","10","7","0","110","59","28"
"062320","12:57:11","950691993","test","2","prime_negative","49","6","6","0","232","59","26"
"062320","12:57:11","950691993","test","2","prime_positive","50","3","60","1","219","60","26"
"062320","12:57:11","950691993","test","2","prime_negative","51","4","61","0","446","60","25"
"062320","12:57:11","950691993","test","2","prime_positive","52","9","44","0","276","58","25"
"062320","12:57:11","950691993","test","2","prime_positive","53","4","16","0","349","56","25"
"062320","12:57:11","950691993","test","2","prime_positive","54","7","71","1","364","57","25"
"062320","12:57:11","950691993","test","2","prime_positive","55","1","51","0","191","55","25"
"062320","12:57:11","950691993","test","2","prime_positive","56","10","5","1","536","57","25"
"062320","12:57:11","950691993","test","2","prime_positive","57","11","56","1","591","58","25"
"062320","12:57:11","950691993","test","2","prime_negative","58","2","9","0","244","58","25"
"062320","12:57:11","950691993","test","2","prime_positive","59","8","58","1","356","60","25"
"062320","12:57:11","950691993","test","2","prime_positive","60","12","14","0","424","58","25"
"062320","12:57:11","950691993","test","2","prime_negative","61","1","53","0","396","58","24"
"062320","12:57:11","950691993","test","2","prime_negative","62","8","24","0","217","58","23"
"062320","12:57:11","950691993","test","2","prime_negative","63","3","10","0","148","58","22"
"062320","12:57:11","950691993","test","2","prime_positive","64","5","16","0","142","56","22"
"062320","12:57:11","950691993","test","2","prime_negative","65","3","29","0","395","56","21"
"062320","12:57:11","950691993","test","2","prime_positive","66","11","57","1","331","57","21"
"062320","12:57:11","950691993","test","2","prime_negative","67","4","31","0","230","57","21"
"062320","12:57:11","950691993","test","2","prime_positive","68","1","30","1","250","58","21"
"062320","12:57:11","950691993","test","2","prime_negative","69","12","14","0","283","58","20"
"062320","12:57:11","950691993","test","2","prime_negative","70","9","8","0","324","58","20"
"062320","12:57:11","950691993","test","2","prime_negative","71","1","7","0","263","58","19"
"062320","12:57:11","950691993","test","2","prime_positive","72","12","38","0","279","57","19"
"062320","12:57:11","950691993","test","2","prime_positive","73","8","12","1","298","58","19"
"062320","12:59:03","30040446","practice","1","prime_negative_practice","4","0","0","0","2397","0","0"
"062320","12:59:03","30040446","practice","1","prime_positive_practice","5","0","0","0","3378","0","0"
"062320","12:59:03","30040446","practice","1","prime_positive_practice","6","0","0","1","1135","0","0"
"062320","12:59:03","30040446","practice","1","prime_positive_practice","7","0","0","1","2079","0","0"
"062320","12:59:03","30040446","practice","1","prime_negative_practice","8","0","0","1","2602","0","0"
"062320","12:59:03","30040446","practice","1","prime_positive_practice","9","0","0","1","2440","0","0"
"062320","12:59:03","30040446","practice","1","prime_negative_practice","10","0","0","0","1530","0","0"
"062320","12:59:03","30040446","practice","1","prime_negative_practice","11","0","0","1","3014","0","0"
"062320","12:59:03","30040446","practice","1","prime_negative_practice","12","0","0","0","1854","0","0"
"062320","12:59:03","30040446","practice","1","prime_positive_practice","13","0","0","1","2401","0","0"
"062320","12:59:03","30040446","test","2","prime_positive","2","3","51","1","854","100","0"
"062320","12:59:03","30040446","test","2","prime_negative","3","12","13","1","848","100","100"
"062320","12:59:03","30040446","test","2","prime_negative","4","2","62","0","1074","100","50"
"062320","12:59:03","30040446","test","2","prime_positive","5","11","14","0","949","50","50"
"062320","12:59:03","30040446","test","2","prime_positive","6","8","70","0","1008","33","50"
"062320","12:59:03","30040446","test","2","prime_negative","7","3","16","1","1211","33","66"
"062320","12:59:03","30040446","test","2","prime_positive","8","7","25","1","757","50","66"
"062320","12:59:03","30040446","test","2","prime_negative","9","11","6","1","541","50","75"
"062320","12:59:03","30040446","test","2","prime_negative","10","5","32","0","834","50","60"
"062320","12:59:03","30040446","test","2","prime_positive","11","1","72","0","578","40","60"
"062320","12:59:03","30040446","test","2","prime_positive","12","10","9","1","538","50","60"
"062320","12:59:03","30040446","test","2","prime_positive","13","4","11","0","544","42","60"
"062320","12:59:03","30040446","test","2","prime_positive","14","2","5","0","590","37","60"
"062320","12:59:03","30040446","test","2","prime_negative","15","10","49","1","577","37","66"
"062320","12:59:03","30040446","test","2","prime_positive","16","11","20","1","540","44","66"
"062320","12:59:03","30040446","test","2","prime_negative","17","7","69","0","689","44","57"
"062320","12:59:03","30040446","test","2","prime_negative","18","5","22","1","715","44","62"
"062320","12:59:03","30040446","test","2","prime_positive","19","10","64","0","577","40","62"
"062320","12:59:03","30040446","test","2","prime_negative","20","3","56","1","385","40","66"
"062320","12:59:03","30040446","test","2","prime_negative","21","10","10","0","516","40","60"
"062320","12:59:03","30040446","test","2","prime_negative","22","6","3","1","704","40","63"
"062320","12:59:03","30040446","test","2","prime_negative","23","11","12","1","544","40","66"
"062320","12:59:03","30040446","test","2","prime_positive","24","6","19","0","733","36","66"
"062320","12:59:03","30040446","test","2","prime_negative","25","1","57","1","557","36","69"
"062320","12:59:03","30040446","test","2","prime_positive","26","9","26","1","415","41","69"
"062320","12:59:03","30040446","test","2","prime_positive","27","3","66","1","504","46","69"
"062320","12:59:03","30040446","test","2","prime_negative","28","12","2","1","524","46","71"
"062320","12:59:03","30040446","test","2","prime_positive","29","12","58","1","398","50","71"
"062320","12:59:03","30040446","test","2","prime_negative","30","4","63","1","455","50","73"
"062320","12:59:03","30040446","test","2","prime_positive","31","7","39","1","323","53","73"
"062320","12:59:03","30040446","test","2","prime_positive","32","5","37","1","445","56","73"
"062320","12:59:03","30040446","test","2","prime_positive","33","1","23","0","471","52","73"
"062320","12:59:03","30040446","test","2","prime_negative","34","2","43","1","363","52","75"
"062320","12:59:03","30040446","test","2","prime_positive","35","8","48","1","540","55","75"
"062320","12:59:03","30040446","test","2","prime_positive","36","4","53","1","765","57","75"
"062320","12:59:03","30040446","test","2","prime_positive","37","2","44","1","366","60","75"
"062320","12:59:03","30040446","test","2","prime_negative","38","9","47","1","442","60","76"
"062320","12:59:03","30040446","test","2","prime_negative","39","7","65","0","460","60","72"
"062320","12:59:03","30040446","test","2","prime_negative","40","8","46","1","576","60","73"
"062320","12:59:03","30040446","test","2","prime_positive","41","4","34","1","430","61","73"
"062320","12:59:03","30040446","test","2","prime_negative","42","9","35","1","260","61","75"
"062320","12:59:03","30040446","test","2","prime_negative","43","12","60","1","349","61","76"
"062320","12:59:03","30040446","test","2","prime_positive","44","9","41","1","309","63","76"
"062320","12:59:03","30040446","test","2","prime_negative","45","4","71","1","605","63","77"
"062320","12:59:03","30040446","test","2","prime_negative","46","5","36","1","360","63","78"
"062320","12:59:03","30040446","test","2","prime_positive","47","5","15","1","319","65","78"
"062320","12:59:03","30040446","test","2","prime_negative","48","1","61","1","712","65","79"
"062320","12:59:03","30040446","test","2","prime_negative","49","11","52","0","954","65","76"
"062320","12:59:03","30040446","test","2","prime_negative","50","7","29","1","545","65","76"
"062320","12:59:03","30040446","test","2","prime_positive","51","7","21","1","749","66","76"
"062320","12:59:03","30040446","test","2","prime_positive","52","10","4","0","570","64","76"
"062320","12:59:03","30040446","test","2","prime_positive","53","8","38","1","444","65","76"
"062320","12:59:03","30040446","test","2","prime_negative","54","10","28","1","361","65","77"
"062320","12:59:03","30040446","test","2","prime_positive","55","6","30","1","309","66","77"
"062320","12:59:03","30040446","test","2","prime_positive","56","3","42","1","294","67","77"
"062320","12:59:03","30040446","test","2","prime_positive","57","1","67","0","590","65","77"
"062320","12:59:03","30040446","test","2","prime_negative","58","2","33","0","495","65","75"
"062320","12:59:03","30040446","test","2","prime_positive","59","11","31","1","444","66","75"
"062320","12:59:03","30040446","test","2","prime_positive","60","12","40","1","541","67","75"
"062320","12:59:03","30040446","test","2","prime_negative","61","8","45","0","660","67","72"
"062320","12:59:03","30040446","test","2","prime_negative","62","3","54","1","478","67","73"
"062320","12:59:03","30040446","test","2","prime_positive","63","1","8","1","724","68","73"
"062320","12:59:03","30040446","test","2","prime_positive","64","5","65","1","639","69","73"
"062320","12:59:03","30040446","test","2","prime_positive","65","8","67","1","392","70","73"
"062320","12:59:03","30040446","test","2","prime_positive","66","12","51","0","350","68","73"
"062320","12:59:03","30040446","test","2","prime_positive","67","7","71","1","170","69","73"
"062320","12:59:03","30040446","test","2","prime_negative","68","6","7","1","478","69","74"
"062320","12:59:03","30040446","test","2","prime_negative","69","1","37","1","481","69","75"
"062320","12:59:03","30040446","test","2","prime_negative","70","4","49","1","424","69","75"
"062320","12:59:03","30040446","test","2","prime_negative","71","7","57","1","270","69","76"
"062320","12:59:03","30040446","test","2","prime_negative","72","11","63","1","359","69","77"
"062320","12:59:03","30040446","test","2","prime_negative","73","5","61","1","314","69","77"
"062320","12:59:35","622424072","practice","1","prime_positive_practice","4","0","0","1","1804","0","0"
"062320","12:59:35","622424072","practice","1","prime_negative_practice","5","0","0","1","2388","0","0"
"062320","12:59:35","622424072","practice","1","prime_negative_practice","6","0","0","1","1043","0","0"
"062320","12:59:35","622424072","practice","1","prime_negative_practice","7","0","0","1","679","0","0"
"062320","12:59:35","622424072","practice","1","prime_negative_practice","8","0","0","1","1084","0","0"
"062320","12:59:35","622424072","practice","1","prime_positive_practice","9","0","0","0","697","0","0"
"062320","12:59:35","622424072","practice","1","prime_positive_practice","10","0","0","0","2971","0","0"
"062320","12:59:35","622424072","practice","1","prime_positive_practice","11","0","0","0","831","0","0"
"062320","12:59:35","622424072","practice","1","prime_positive_practice","12","0","0","1","928","0","0"
"062320","12:59:35","622424072","practice","1","prime_negative_practice","13","0","0","1","685","0","0"
"062320","12:59:35","622424072","test","2","prime_positive","2","5","29","1","765","100","0"
"062320","12:59:35","622424072","test","2","prime_positive","3","6","60","0","470","50","0"
"062320","12:59:35","622424072","test","2","prime_positive","4","11","48","1","766","66","0"
"062320","12:59:35","622424072","test","2","prime_positive","5","9","63","0","1499","50","0"
"062320","12:59:35","622424072","test","2","prime_negative","6","1","10","1","652","50","100"
"062320","12:59:35","622424072","test","2","prime_positive","7","4","64","1","744","60","100"
"062320","12:59:35","622424072","test","2","prime_positive","8","8","30","1","579","66","100"
"062320","12:59:35","622424072","test","2","prime_negative","9","4","23","1","856","66","100"
"062320","12:59:35","622424072","test","2","prime_negative","10","11","7","1","671","66","100"
"062320","12:59:35","622424072","test","2","prime_negative","11","6","40","1","550","66","100"
"062320","12:59:35","622424072","test","2","prime_negative","12","2","50","0","580","66","80"
"062320","12:59:35","622424072","test","2","prime_negative","13","7","35","1","1041","66","83"
"062320","12:59:35","622424072","test","2","prime_positive","14","10","42","1","598","71","83"
"062320","12:59:35","622424072","test","2","prime_positive","15","9","16","1","1190","75","83"
"062320","12:59:35","622424072","test","2","prime_positive","16","7","3","1","486","77","83"
"062320","12:59:35","622424072","test","2","prime_negative","17","10","47","1","548","77","85"
"062320","12:59:35","622424072","test","2","prime_negative","18","1","65","1","726","77","87"
"062320","12:59:35","622424072","test","2","prime_positive","19","2","46","1","670","80","87"
"062320","12:59:35","622424072","test","2","prime_positive","20","6","68","1","651","81","87"
"062320","12:59:35","622424072","test","2","prime_negative","21","6","59","1","733","81","88"
"062320","12:59:35","622424072","test","2","prime_positive","22","3","54","1","645","83","88"
"062320","12:59:35","622424072","test","2","prime_negative","23","5","24","0","835","83","80"
"062320","12:59:35","622424072","test","2","prime_positive","24","10","52","0","663","76","80"
"062320","12:59:35","622424072","test","2","prime_negative","25","8","28","0","659","76","72"
"062320","12:59:35","622424072","test","2","prime_negative","26","9","18","0","866","76","66"
"062320","12:59:35","622424072","test","2","prime_positive","27","8","11","1","614","78","66"
"062320","12:59:35","622424072","test","2","prime_negative","28","4","67","1","611","78","69"
"062320","12:59:35","622424072","test","2","prime_negative","29","7","51","1","1071","78","71"
"062320","12:59:35","622424072","test","2","prime_positive","30","1","66","1","747","80","71"
"062320","12:59:35","622424072","test","2","prime_negative","31","10","44","0","435","80","66"
"062320","12:59:35","622424072","test","2","prime_negative","32","3","56","0","775","80","62"
"062320","12:59:35","622424072","test","2","prime_negative","33","11","58","1","634","80","64"
"062320","12:59:35","622424072","test","2","prime_negative","34","2","14","0","556","80","61"
"062320","12:59:35","622424072","test","2","prime_positive","35","4","61","1","628","81","61"
"062320","12:59:35","622424072","test","2","prime_positive","36","11","55","1","473","82","61"
"062320","12:59:35","622424072","test","2","prime_negative","37","12","72","1","705","82","63"
"062320","12:59:35","622424072","test","2","prime_negative","38","9","27","1","878","82","65"
"062320","12:59:35","622424072","test","2","prime_negative","39","2","41","1","372","82","66"
"062320","12:59:35","622424072","test","2","prime_positive","40","12","6","0","444","77","66"
"062320","12:59:35","622424072","test","2","prime_negative","41","10","32","1","412","77","68"
"062320","12:59:35","622424072","test","2","prime_positive","42","5","4","1","626","78","68"
"062320","12:59:35","622424072","test","2","prime_negative","43","4","34","1","445","78","69"
"062320","12:59:35","622424072","test","2","prime_negative","44","8","15","1","457","78","70"
"062320","12:59:35","622424072","test","2","prime_negative","45","12","70","0","517","78","68"
"062320","12:59:35","622424072","test","2","prime_positive","46","6","2","1","647","80","68"
"062320","12:59:35","622424072","test","2","prime_negative","47","5","62","0","828","80","65"
"062320","12:59:35","622424072","test","2","prime_negative","48","7","12","0","642","80","62"
"062320","12:59:35","622424072","test","2","prime_negative","49","1","37","0","439","80","60"
"062320","12:59:35","622424072","test","2","prime_positive","50","11","5","1","810","80","60"
"062320","12:59:35","622424072","test","2","prime_positive","51","9","39","1","549","81","60"
"062320","12:59:35","622424072","test","2","prime_negative","52","6","17","1","1048","81","62"
"062320","12:59:35","622424072","test","2","prime_positive","53","12","31","0","597","78","62"
"062320","12:59:35","622424072","test","2","prime_positive","54","1","57","1","457","79","62"
"062320","12:59:35","622424072","test","2","prime_negative","55","11","69","1","393","79","63"
"062320","12:59:35","622424072","test","2","prime_positive","56","4","71","1","403","80","63"
"062320","12:59:35","622424072","test","2","prime_positive","57","10","49","1","706","80","63"
"062320","12:59:35","622424072","test","2","prime_negative","58","3","36","0","395","80","61"
"062320","12:59:35","622424072","test","2","prime_positive","59","2","38","0","422","77","61"
"062320","12:59:35","622424072","test","2","prime_positive","60","5","20","1","790","78","61"
"062320","12:59:35","622424072","test","2","prime_negative","61","4","53","1","475","78","62"
"062320","12:59:35","622424072","test","2","prime_negative","62","11","19","0","516","78","60"
"062320","12:59:35","622424072","test","2","prime_negative","63","7","22","0","615","78","58"
"062320","12:59:35","622424072","test","2","prime_positive","64","7","3","1","550","79","58"
"062320","12:59:35","622424072","test","2","prime_positive","65","8","29","1","442","80","58"
"062320","12:59:35","622424072","test","2","prime_positive","66","3","34","1","492","80","58"
"062320","12:59:35","622424072","test","2","prime_positive","67","1","35","1","408","81","58"
"062320","12:59:35","622424072","test","2","prime_positive","68","3","25","1","422","81","58"
"062320","12:59:35","622424072","test","2","prime_positive","69","9","48","0","430","79","58"
"062320","12:59:35","622424072","test","2","prime_positive","70","12","21","0","546","77","58"
"062320","12:59:35","622424072","test","2","prime_positive","71","4","47","0","676","75","58"
"062320","12:59:35","622424072","test","2","prime_negative","72","6","11","0","460","75","57"
"062320","12:59:35","622424072","test","2","prime_negative","73","3","13","0","365","75","55"
"062320","13:01:02","58776875","practice","1","prime_negative_practice","4","0","0","0","3473","0","0"
"062320","13:01:02","58776875","practice","1","prime_negative_practice","5","0","0","1","2222","0","0"
"062320","13:01:02","58776875","practice","1","prime_positive_practice","6","0","0","1","916","0","0"
"062320","13:01:02","58776875","practice","1","prime_positive_practice","7","0","0","1","1376","0","0"
"062320","13:01:02","58776875","practice","1","prime_positive_practice","8","0","0","1","967","0","0"
"062320","13:01:02","58776875","practice","1","prime_negative_practice","9","0","0","0","586","0","0"
"062320","13:01:02","58776875","practice","1","prime_positive_practice","10","0","0","0","1676","0","0"
"062320","13:01:02","58776875","practice","1","prime_negative_practice","11","0","0","0","691","0","0"
"062320","13:01:02","58776875","practice","1","prime_negative_practice","12","0","0","0","867","0","0"
"062320","13:01:02","58776875","practice","1","prime_positive_practice","13","0","0","0","1273","0","0"
"062320","13:01:02","58776875","test","2","prime_positive","2","4","24","1","1167","100","0"
"062320","13:01:02","58776875","test","2","prime_negative","3","8","2","0","990","100","0"
"062320","13:01:02","58776875","test","2","prime_negative","4","11","22","1","2756","100","50"
"062320","13:01:02","58776875","test","2","prime_negative","5","7","36","1","829","100","66"
"062320","13:01:02","58776875","test","2","prime_negative","6","5","61","1","1223","100","75"
"062320","13:01:02","58776875","test","2","prime_positive","7","1","42","0","910","50","75"
"062320","13:01:02","58776875","test","2","prime_positive","8","7","40","0","888","33","75"
"062320","13:01:02","58776875","test","2","prime_positive","9","12","19","0","805","25","75"
"062320","13:01:02","58776875","test","2","prime_negative","10","10","27","1","1149","25","80"
"062320","13:01:02","58776875","test","2","prime_negative","11","3","47","0","1414","25","66"
"062320","13:01:02","58776875","test","2","prime_negative","12","1","11","0","756","25","57"
"062320","13:01:02","58776875","test","2","prime_positive","13","2","51","1","860","40","57"
"062320","13:01:02","58776875","test","2","prime_positive","14","3","68","0","1041","33","57"
"062320","13:01:02","58776875","test","2","prime_positive","15","8","52","0","1139","28","57"
"062320","13:01:02","58776875","test","2","prime_negative","16","8","44","0","809","28","50"
"062320","13:01:02","58776875","test","2","prime_negative","17","6","72","1","1011","28","55"
"062320","13:01:02","58776875","test","2","prime_negative","18","9","41","0","1492","28","50"
"062320","13:01:02","58776875","test","2","prime_positive","19","7","64","1","1445","37","50"
"062320","13:01:02","58776875","test","2","prime_negative","20","4","38","1","1937","37","54"
"062320","13:01:02","58776875","test","2","prime_positive","21","4","54","1","886","44","54"
"062320","13:01:02","58776875","test","2","prime_positive","22","6","55","0","1364","40","54"
"062320","13:01:02","58776875","test","2","prime_negative","23","3","43","1","1684","40","58"
"062320","13:01:02","58776875","test","2","prime_positive","24","1","48","0","1106","36","58"
"062320","13:01:02","58776875","test","2","prime_negative","25","10","28","0","915","36","53"
"062320","13:01:02","58776875","test","2","prime_negative","26","11","12","0","663","36","50"
"062320","13:01:02","58776875","test","2","prime_positive","27","9","13","0","678","33","50"
"062320","13:01:02","58776875","test","2","prime_negative","28","1","6","1","787","33","53"
"062320","13:01:02","58776875","test","2","prime_negative","29","7","18","0","626","33","50"
"062320","13:01:02","58776875","test","2","prime_negative","30","5","25","1","803","33","52"
"062320","13:01:02","58776875","test","2","prime_negative","31","2","10","0","833","33","50"
"062320","13:01:02","58776875","test","2","prime_negative","32","12","56","0","931","33","47"
"062320","13:01:02","58776875","test","2","prime_positive","33","11","67","0","702","30","47"
"062320","13:01:02","58776875","test","2","prime_positive","34","12","15","0","729","28","47"
"062320","13:01:02","58776875","test","2","prime_negative","35","5","26","0","1121","28","45"
"062320","13:01:02","58776875","test","2","prime_positive","36","10","1","1","579","33","45"
"062320","13:01:02","58776875","test","2","prime_negative","37","9","4","1","580","33","47"
"062320","13:01:02","58776875","test","2","prime_negative","38","11","30","0","637","33","45"
"062320","13:01:02","58776875","test","2","prime_negative","39","2","7","1","584","33","47"
"062320","13:01:02","58776875","test","2","prime_negative","40","8","66","1","643","33","50"
"062320","13:01:02","58776875","test","2","prime_positive","41","5","63","1","1238","37","50"
"062320","13:01:02","58776875","test","2","prime_positive","42","2","16","0","471","35","50"
"062320","13:01:02","58776875","test","2","prime_positive","43","8","57","1","663","38","50"
"062320","13:01:02","58776875","test","2","prime_positive","44","3","31","0","838","36","50"
"062320","13:01:02","58776875","test","2","prime_positive","45","8","14","1","904","40","50"
"062320","13:01:02","58776875","test","2","prime_positive","46","5","33","1","870","42","50"
"062320","13:01:02","58776875","test","2","prime_negative","47","3","50","0","485","42","48"
"062320","13:01:02","58776875","test","2","prime_positive","48","10","9","1","870","45","48"
"062320","13:01:02","58776875","test","2","prime_positive","49","2","34","1","556","47","48"
"062320","13:01:02","58776875","test","2","prime_negative","50","12","70","0","642","47","46"
"062320","13:01:02","58776875","test","2","prime_negative","51","10","69","0","918","47","44"
"062320","13:01:02","58776875","test","2","prime_positive","52","11","60","1","756","50","44"
"062320","13:01:02","58776875","test","2","prime_negative","53","7","39","0","576","50","42"
"062320","13:01:02","58776875","test","2","prime_positive","54","7","5","1","902","52","42"
"062320","13:01:02","58776875","test","2","prime_positive","55","3","35","1","595","53","42"
"062320","13:01:02","58776875","test","2","prime_negative","56","1","45","1","680","53","44"
"062320","13:01:02","58776875","test","2","prime_positive","57","12","17","1","668","55","44"
"062320","13:01:02","58776875","test","2","prime_positive","58","6","65","0","823","53","44"
"062320","13:01:02","58776875","test","2","prime_negative","59","6","59","0","957","53","43"
"062320","13:01:02","58776875","test","2","prime_negative","60","4","8","0","623","53","41"
"062320","13:01:02","58776875","test","2","prime_negative","61","5","46","1","986","53","43"
"062320","13:01:02","58776875","test","2","prime_positive","62","9","32","1","742","55","43"
"062320","13:01:02","58776875","test","2","prime_negative","63","6","20","0","721","55","42"
"062320","13:01:02","58776875","test","2","prime_positive","64","1","41","1","537","56","42"
"062320","13:01:02","58776875","test","2","prime_positive","65","4","53","1","786","58","42"
"062320","13:01:02","58776875","test","2","prime_negative","66","3","32","0","1016","58","41"
"062320","13:01:02","58776875","test","2","prime_positive","67","5","61","1","870","59","41"
"062320","13:01:02","58776875","test","2","prime_positive","68","4","58","1","739","60","41"
"062320","13:01:02","58776875","test","2","prime_positive","69","1","67","1","568","61","41"
"062320","13:01:02","58776875","test","2","prime_positive","70","3","45","1","601","62","41"
"062320","13:01:02","58776875","test","2","prime_positive","71","7","68","1","910","63","41"
"062320","13:01:02","58776875","test","2","prime_negative","72","4","19","0","409","63","40"
"062320","13:01:02","58776875","test","2","prime_negative","73","7","38","1","610","63","41"
"062320","13:00:03","885886673","practice","1","prime_positive_practice","4","0","0","1","8244","0","0"
"062320","13:00:03","885886673","practice","1","prime_positive_practice","5","0","0","1","2783","0","0"
"062320","13:00:03","885886673","practice","1","prime_positive_practice","6","0","0","1","1868","0","0"
"062320","13:00:03","885886673","practice","1","prime_positive_practice","7","0","0","0","9522","0","0"
"062320","13:00:03","885886673","practice","1","prime_negative_practice","8","0","0","0","4076","0","0"
"062320","13:00:03","885886673","practice","1","prime_negative_practice","9","0","0","0","1725","0","0"
"062320","13:00:03","885886673","practice","1","prime_negative_practice","10","0","0","0","2069","0","0"
"062320","13:00:03","885886673","practice","1","prime_negative_practice","11","0","0","0","1034","0","0"
"062320","13:00:03","885886673","practice","1","prime_positive_practice","12","0","0","1","1656","0","0"
"062320","13:00:03","885886673","practice","1","prime_negative_practice","13","0","0","1","1247","0","0"
"062320","13:00:03","885886673","test","2","prime_negative","2","10","4","0","1787","0","0"
"062320","13:00:03","885886673","test","2","prime_negative","3","1","1","0","3359","0","0"
"062320","13:00:03","885886673","test","2","prime_negative","4","12","32","1","1280","0","33"
"062320","13:00:03","885886673","test","2","prime_positive","5","3","16","1","676","100","33"
"062320","13:00:03","885886673","test","2","prime_negative","6","5","65","1","1218","100","50"
"062320","13:00:03","885886673","test","2","prime_negative","7","7","8","0","755","100","40"
"062320","13:00:03","885886673","test","2","prime_positive","8","10","36","0","2351","50","40"
"062320","13:00:03","885886673","test","2","prime_positive","9","7","64","1","902","66","40"
"062320","13:00:03","885886673","test","2","prime_positive","10","8","6","1","863","75","40"
"062320","13:00:03","885886673","test","2","prime_positive","11","1","41","1","940","80","40"
"062320","13:00:03","885886673","test","2","prime_negative","12","6","52","0","788","80","33"
"062320","13:00:03","885886673","test","2","prime_negative","13","2","3","0","1358","80","28"
"062320","13:00:03","885886673","test","2","prime_negative","14","8","40","0","820","80","25"
"062320","13:00:03","885886673","test","2","prime_positive","15","5","14","1","1072","83","25"
"062320","13:00:03","885886673","test","2","prime_negative","16","10","23","0","780","83","22"
"062320","13:00:03","885886673","test","2","prime_positive","17","12","59","1","1143","85","22"
"062320","13:00:03","885886673","test","2","prime_positive","18","2","19","1","931","87","22"
"062320","13:00:03","885886673","test","2","prime_negative","19","4","24","0","536","87","20"
"062320","13:00:03","885886673","test","2","prime_positive","20","4","22","1","1128","88","20"
"062320","13:00:03","885886673","test","2","prime_positive","21","5","5","1","1135","90","20"
"062320","13:00:03","885886673","test","2","prime_positive","22","9","21","1","2333","90","20"
"062320","13:00:03","885886673","test","2","prime_negative","23","11","15","0","1291","90","18"
"062320","13:00:03","885886673","test","2","prime_negative","24","2","58","0","417","90","16"
"062320","13:00:03","885886673","test","2","prime_positive","25","10","25","1","633","91","16"
"062320","13:00:03","885886673","test","2","prime_negative","26","3","18","0","489","91","15"
"062320","13:00:03","885886673","test","2","prime_positive","27","11","57","1","689","92","15"
"062320","13:00:03","885886673","test","2","prime_negative","28","5","63","1","1467","92","21"
"062320","13:00:03","885886673","test","2","prime_positive","29","6","71","1","644","92","21"
"062320","13:00:03","885886673","test","2","prime_negative","30","12","60","0","1325","92","20"
"062320","13:00:03","885886673","test","2","prime_negative","31","6","50","0","754","92","18"
"062320","13:00:03","885886673","test","2","prime_positive","32","12","38","1","846","93","18"
"062320","13:00:03","885886673","test","2","prime_negative","33","9","42","0","2348","93","17"
"062320","13:00:03","885886673","test","2","prime_positive","34","1","30","1","690","93","17"
"062320","13:00:03","885886673","test","2","prime_positive","35","3","33","1","535","94","17"
"062320","13:00:03","885886673","test","2","prime_positive","36","8","70","1","872","94","17"
"062320","13:00:03","885886673","test","2","prime_positive","37","7","26","1","757","94","17"
"062320","13:00:03","885886673","test","2","prime_positive","38","9","17","1","617","95","17"
"062320","13:00:03","885886673","test","2","prime_negative","39","1","34","0","505","95","16"
"062320","13:00:03","885886673","test","2","prime_positive","40","12","48","1","744","95","16"
"062320","13:00:03","885886673","test","2","prime_negative","41","7","56","0","511","95","15"
"062320","13:00:03","885886673","test","2","prime_positive","42","5","13","0","1762","90","15"
"062320","13:00:03","885886673","test","2","prime_positive","43","1","11","1","564","91","15"
"062320","13:00:03","885886673","test","2","prime_positive","44","7","49","1","525","91","15"
"062320","13:00:03","885886673","test","2","prime_negative","45","12","45","0","914","91","15"
"062320","13:00:03","885886673","test","2","prime_negative","46","8","46","0","552","91","14"
"062320","13:00:03","885886673","test","2","prime_negative","47","10","37","0","662","91","13"
"062320","13:00:03","885886673","test","2","prime_negative","48","9","7","0","913","91","13"
"062320","13:00:03","885886673","test","2","prime_negative","49","6","53","0","634","91","12"
"062320","13:00:03","885886673","test","2","prime_negative","50","11","67","1","522","91","16"
"062320","13:00:03","885886673","test","2","prime_positive","51","6","54","1","454","92","16"
"062320","13:00:03","885886673","test","2","prime_negative","52","7","27","0","428","92","15"
"062320","13:00:03","885886673","test","2","prime_negative","53","1","31","0","446","92","14"
"062320","13:00:03","885886673","test","2","prime_negative","54","4","69","0","500","92","14"
"062320","13:00:03","885886673","test","2","prime_positive","55","4","47","1","466","92","14"
"062320","13:00:03","885886673","test","2","prime_positive","56","11","55","1","536","92","14"
"062320","13:00:03","885886673","test","2","prime_positive","57","3","43","1","398","92","14"
"062320","13:00:03","885886673","test","2","prime_positive","58","10","2","1","671","93","14"
"062320","13:00:03","885886673","test","2","prime_negative","59","5","44","1","1161","93","17"
"062320","13:00:03","885886673","test","2","prime_positive","60","8","12","1","774","93","17"
"062320","13:00:03","885886673","test","2","prime_negative","61","3","51","0","1379","93","16"
"062320","13:00:03","885886673","test","2","prime_negative","62","2","35","0","529","93","16"
"062320","13:00:03","885886673","test","2","prime_negative","63","12","29","0","620","93","15"
"062320","13:00:03","885886673","test","2","prime_positive","64","2","40","1","374","93","15"
"062320","13:00:03","885886673","test","2","prime_negative","65","1","51","0","538","93","15"
"062320","13:00:03","885886673","test","2","prime_positive","66","10","9","1","491","93","15"
"062320","13:00:03","885886673","test","2","prime_negative","67","5","15","1","788","93","17"
"062320","13:00:03","885886673","test","2","prime_positive","68","6","56","1","412","93","17"
"062320","13:00:03","885886673","test","2","prime_positive","69","9","28","1","1154","94","17"
"062320","13:00:03","885886673","test","2","prime_positive","70","3","72","1","352","94","17"
"062320","13:00:03","885886673","test","2","prime_negative","71","4","53","0","475","94","17"
"062320","13:00:03","885886673","test","2","prime_positive","72","2","39","1","450","94","17"
"062320","13:00:03","885886673","test","2","prime_negative","73","2","60","0","461","94","16"
"062320","13:04:02","352663511","practice","1","prime_negative_practice","4","0","0","0","5392","0","0"
"062320","13:04:02","352663511","practice","1","prime_negative_practice","5","0","0","1","3396","0","0"
"062320","13:04:02","352663511","practice","1","prime_negative_practice","6","0","0","0","1367","0","0"
"062320","13:04:02","352663511","practice","1","prime_negative_practice","7","0","0","1","2561","0","0"
"062320","13:04:02","352663511","practice","1","prime_positive_practice","8","0","0","1","1204","0","0"
"062320","13:04:02","352663511","practice","1","prime_positive_practice","9","0","0","1","2091","0","0"
"062320","13:04:02","352663511","practice","1","prime_negative_practice","10","0","0","1","1151","0","0"
"062320","13:04:02","352663511","practice","1","prime_positive_practice","11","0","0","1","1050","0","0"
"062320","13:04:02","352663511","practice","1","prime_positive_practice","12","0","0","1","959","0","0"
"062320","13:04:02","352663511","practice","1","prime_positive_practice","13","0","0","1","698","0","0"
"062320","13:04:02","352663511","test","2","prime_negative","2","11","57","1","1139","0","100"
"062320","13:04:02","352663511","test","2","prime_positive","3","9","25","1","738","100","100"
"062320","13:04:02","352663511","test","2","prime_negative","4","4","27","0","907","100","50"
"062320","13:04:02","352663511","test","2","prime_positive","5","7","21","1","809","100","50"
"062320","13:04:02","352663511","test","2","prime_negative","6","3","59","1","2646","100","66"
"062320","13:04:02","352663511","test","2","prime_positive","7","2","61","1","620","100","66"
"062320","13:04:02","352663511","test","2","prime_negative","8","8","67","0","730","100","50"
"062320","13:04:02","352663511","test","2","prime_positive","9","4","72","0","825","75","50"
"062320","13:04:02","352663511","test","2","prime_positive","10","12","68","1","960","80","50"
"062320","13:04:02","352663511","test","2","prime_positive","11","10","62","0","1005","66","50"
"062320","13:04:02","352663511","test","2","prime_negative","12","12","60","0","2233","66","40"
"062320","13:04:02","352663511","test","2","prime_negative","13","7","66","0","854","66","33"
"062320","13:04:02","352663511","test","2","prime_positive","14","3","49","1","636","71","33"
"062320","13:04:02","352663511","test","2","prime_positive","15","10","47","1","1986","75","33"
"062320","13:04:02","352663511","test","2","prime_positive","16","1","53","1","546","77","33"
"062320","13:04:02","352663511","test","2","prime_negative","17","9","65","0","1948","77","28"
"062320","13:04:02","352663511","test","2","prime_negative","18","8","17","0","1424","77","25"
"062320","13:04:02","352663511","test","2","prime_negative","19","1","28","1","2547","77","33"
"062320","13:04:02","352663511","test","2","prime_negative","20","10","52","1","1555","77","40"
"062320","13:04:02","352663511","test","2","prime_negative","21","7","41","0","3091","77","36"
"062320","13:04:02","352663511","test","2","prime_negative","22","2","24","0","511","77","33"
"062320","13:04:02","352663511","test","2","prime_negative","23","9","50","0","1979","77","30"
"062320","13:04:02","352663511","test","2","prime_positive","24","5","70","1","1049","80","30"
"062320","13:04:02","352663511","test","2","prime_positive","25","6","64","1","1113","81","30"
"062320","13:04:02","352663511","test","2","prime_negative","26","5","35","1","3376","81","35"
"062320","13:04:02","352663511","test","2","prime_negative","27","11","8","1","1491","81","40"
"062320","13:04:02","352663511","test","2","prime_positive","28","3","54","1","666","83","40"
"062320","13:04:02","352663511","test","2","prime_negative","29","6","13","0","990","83","37"
"062320","13:04:02","352663511","test","2","prime_positive","30","7","34","1","904","84","37"
"062320","13:04:02","352663511","test","2","prime_positive","31","9","11","1","893","85","37"
"062320","13:04:02","352663511","test","2","prime_positive","32","8","38","1","888","86","37"
"062320","13:04:02","352663511","test","2","prime_negative","33","3","14","0","739","86","35"
"062320","13:04:02","352663511","test","2","prime_negative","34","4","4","0","715","86","33"
"062320","13:04:02","352663511","test","2","prime_positive","35","11","69","1","1847","87","33"
"062320","13:04:02","352663511","test","2","prime_negative","36","12","12","0","612","87","31"
"062320","13:04:02","352663511","test","2","prime_negative","37","9","31","0","915","87","30"
"062320","13:04:02","352663511","test","2","prime_positive","38","12","46","1","1758","88","30"
"062320","13:04:02","352663511","test","2","prime_negative","39","5","42","0","832","88","28"
"062320","13:04:02","352663511","test","2","prime_negative","40","8","63","0","1547","88","27"
"062320","13:04:02","352663511","test","2","prime_negative","41","10","33","0","647","88","26"
"062320","13:04:02","352663511","test","2","prime_positive","42","4","55","0","968","83","26"
"062320","13:04:02","352663511","test","2","prime_positive","43","2","29","1","453","84","26"
"062320","13:04:02","352663511","test","2","prime_positive","44","10","39","1","850","85","26"
"062320","13:04:02","352663511","test","2","prime_positive","45","2","36","1","453","85","26"
"062320","13:04:02","352663511","test","2","prime_positive","46","9","26","1","774","86","26"
"062320","13:04:02","352663511","test","2","prime_negative","47","3","16","0","446","86","25"
"062320","13:04:02","352663511","test","2","prime_negative","48","12","40","0","457","86","24"
"062320","13:04:02","352663511","test","2","prime_negative","49","6","1","0","919","86","23"
"062320","13:04:02","352663511","test","2","prime_negative","50","2","19","0","438","86","22"
"062320","13:04:02","352663511","test","2","prime_positive","51","7","43","1","462","86","22"
"062320","13:04:02","352663511","test","2","prime_positive","52","11","2","1","461","87","22"
"062320","13:04:02","352663511","test","2","prime_positive","53","1","44","1","406","88","22"
"062320","13:04:02","352663511","test","2","prime_positive","54","3","18","1","388","88","22"
"062320","13:04:02","352663511","test","2","prime_positive","55","12","71","0","547","85","22"
"062320","13:04:02","352663511","test","2","prime_positive","56","5","32","1","488","85","22"
"062320","13:04:02","352663511","test","2","prime_positive","57","6","51","1","394","86","22"
"062320","13:04:02","352663511","test","2","prime_positive","58","8","6","1","649","86","22"
"062320","13:04:02","352663511","test","2","prime_positive","59","4","3","0","672","83","22"
"062320","13:04:02","352663511","test","2","prime_negative","60","4","48","0","429","83","21"
"062320","13:04:02","352663511","test","2","prime_positive","61","11","23","1","386","84","21"
"062320","13:04:02","352663511","test","2","prime_negative","62","11","58","0","972","84","20"
"062320","13:04:02","352663511","test","2","prime_positive","63","2","37","1","391","84","20"
"062320","13:04:02","352663511","test","2","prime_negative","64","7","26","0","396","84","20"
"062320","13:04:02","352663511","test","2","prime_negative","65","1","64","0","564","84","19"
"062320","13:04:02","352663511","test","2","prime_negative","66","11","31","0","527","84","18"
"062320","13:04:02","352663511","test","2","prime_positive","67","5","1","1","341","85","18"
"062320","13:04:02","352663511","test","2","prime_positive","68","7","56","1","383","85","18"
"062320","13:04:02","352663511","test","2","prime_negative","69","6","20","0","396","85","18"
"062320","13:04:02","352663511","test","2","prime_negative","70","10","61","0","414","85","17"
"062320","13:04:02","352663511","test","2","prime_negative","71","8","36","1","339","85","20"
"062320","13:04:02","352663511","test","2","prime_negative","72","1","45","0","497","85","19"
"062320","13:04:02","352663511","test","2","prime_positive","73","3","32","1","601","86","19"
"062320","13:05:14","279209342","practice","1","prime_negative_practice","4","0","0","0","1776","0","0"
"062320","13:05:14","279209342","practice","1","prime_negative_practice","5","0","0","1","997","0","0"
"062320","13:05:14","279209342","practice","1","prime_negative_practice","6","0","0","1","930","0","0"
"062320","13:05:14","279209342","practice","1","prime_positive_practice","7","0","0","1","719","0","0"
"062320","13:05:14","279209342","practice","1","prime_positive_practice","8","0","0","0","187","0","0"
"062320","13:05:14","279209342","practice","1","prime_negative_practice","9","0","0","0","600","0","0"
"062320","13:05:14","279209342","practice","1","prime_positive_practice","10","0","0","1","467","0","0"
"062320","13:05:14","279209342","practice","1","prime_positive_practice","11","0","0","0","543","0","0"
"062320","13:05:14","279209342","practice","1","prime_positive_practice","12","0","0","1","751","0","0"
"062320","13:05:14","279209342","practice","1","prime_negative_practice","13","0","0","1","357","0","0"
"062320","13:05:14","279209342","test","2","prime_negative","2","10","5","0","540","0","0"
"062320","13:05:14","279209342","test","2","prime_negative","3","6","60","0","1818","0","0"
"062320","13:05:14","279209342","test","2","prime_negative","4","1","42","0","549","0","0"
"062320","13:05:14","279209342","test","2","prime_negative","5","2","26","0","312","0","0"
"062320","13:05:14","279209342","test","2","prime_positive","6","3","34","1","658","100","0"
"062320","13:05:14","279209342","test","2","prime_positive","7","12","24","1","900","100","0"
"062320","13:05:14","279209342","test","2","prime_positive","8","1","64","1","467","100","0"
"062320","13:05:14","279209342","test","2","prime_negative","9","4","44","1","490","100","20"
"062320","13:05:14","279209342","test","2","prime_negative","10","8","58","0","732","100","16"
"062320","13:05:14","279209342","test","2","prime_positive","11","5","11","1","733","100","16"
"062320","13:05:14","279209342","test","2","prime_negative","12","9","20","0","826","100","14"
"062320","13:05:14","279209342","test","2","prime_positive","13","2","62","0","608","80","14"
"062320","13:05:14","279209342","test","2","prime_positive","14","9","56","1","541","83","14"
"062320","13:05:14","279209342","test","2","prime_positive","15","10","8","0","1651","71","14"
"062320","13:05:14","279209342","test","2","prime_positive","16","6","33","1","1117","75","14"
"062320","13:05:14","279209342","test","2","prime_positive","17","10","66","1","437","77","14"
"062320","13:05:14","279209342","test","2","prime_negative","18","6","14","0","566","77","12"
"062320","13:05:14","279209342","test","2","prime_negative","19","1","54","0","425","77","11"
"062320","13:05:14","279209342","test","2","prime_positive","20","3","38","1","559","80","11"
"062320","13:05:14","279209342","test","2","prime_positive","21","11","23","1","475","81","11"
"062320","13:05:14","279209342","test","2","prime_negative","22","3","10","1","856","81","20"
"062320","13:05:14","279209342","test","2","prime_positive","23","7","3","0","692","75","20"
"062320","13:05:14","279209342","test","2","prime_negative","24","7","1","1","392","75","27"
"062320","13:05:14","279209342","test","2","prime_positive","25","2","41","1","341","76","27"
"062320","13:05:14","279209342","test","2","prime_positive","26","9","59","1","300","78","27"
"062320","13:05:14","279209342","test","2","prime_positive","27","5","31","1","387","80","27"
"062320","13:05:14","279209342","test","2","prime_positive","28","12","27","1","307","81","27"
"062320","13:05:14","279209342","test","2","prime_negative","29","9","43","0","327","81","25"
"062320","13:05:14","279209342","test","2","prime_positive","30","8","50","1","320","82","25"
"062320","13:05:14","279209342","test","2","prime_negative","31","8","69","0","461","82","23"
"062320","13:05:14","279209342","test","2","prime_negative","32","5","15","0","499","82","21"
"062320","13:05:14","279209342","test","2","prime_negative","33","11","72","1","287","82","26"
"062320","13:05:14","279209342","test","2","prime_positive","34","4","46","0","314","77","26"
"062320","13:05:14","279209342","test","2","prime_negative","35","4","48","0","355","77","25"
"062320","13:05:14","279209342","test","2","prime_negative","36","12","67","0","480","77","23"
"062320","13:05:14","279209342","test","2","prime_negative","37","10","18","1","337","77","27"
"062320","13:05:14","279209342","test","2","prime_positive","38","1","40","1","331","78","27"
"062320","13:05:14","279209342","test","2","prime_positive","39","6","36","1","320","80","27"
"062320","13:05:14","279209342","test","2","prime_negative","40","2","45","1","592","80","31"
"062320","13:05:14","279209342","test","2","prime_positive","41","5","13","0","916","76","31"
"062320","13:05:14","279209342","test","2","prime_negative","42","6","37","0","409","76","30"
"062320","13:05:14","279209342","test","2","prime_negative","43","3","47","0","263","76","28"
"062320","13:05:14","279209342","test","2","prime_positive","44","12","12","1","424","77","28"
"062320","13:05:14","279209342","test","2","prime_negative","45","8","71","0","329","77","27"
"062320","13:05:14","279209342","test","2","prime_negative","46","1","28","0","373","77","26"
"062320","13:05:14","279209342","test","2","prime_negative","47","9","6","0","311","77","25"
"062320","13:05:14","279209342","test","2","prime_positive","48","10","57","1","731","78","25"
"062320","13:05:14","279209342","test","2","prime_negative","49","2","39","0","539","78","24"
"062320","13:05:14","279209342","test","2","prime_negative","50","11","49","0","1060","78","23"
"062320","13:05:14","279209342","test","2","prime_positive","51","9","22","1","1089","79","23"
"062320","13:05:14","279209342","test","2","prime_positive","52","3","32","1","552","80","23"
"062320","13:05:14","279209342","test","2","prime_positive","53","1","63","0","657","76","23"
"062320","13:05:14","279209342","test","2","prime_negative","54","12","65","1","389","76","25"
"062320","13:05:14","279209342","test","2","prime_negative","55","10","17","0","318","76","25"
"062320","13:05:14","279209342","test","2","prime_positive","56","11","55","1","1313","77","25"
"062320","13:05:14","279209342","test","2","prime_negative","57","5","2","0","508","77","24"
"062320","13:05:14","279209342","test","2","prime_negative","58","4","16","0","372","77","23"
"062320","13:05:14","279209342","test","2","prime_positive","59","7","61","1","264","78","23"
"062320","13:05:14","279209342","test","2","prime_negative","60","7","7","0","487","78","22"
"062320","13:05:14","279209342","test","2","prime_negative","61","3","53","1","349","78","25"
"062320","13:05:14","279209342","test","2","prime_negative","62","7","52","0","533","78","24"
"062320","13:05:14","279209342","test","2","prime_positive","63","8","19","1","612","79","24"
"062320","13:05:14","279209342","test","2","prime_positive","64","4","33","0","246","76","24"
"062320","13:05:14","279209342","test","2","prime_positive","65","2","20","1","290","77","24"
"062320","13:05:14","279209342","test","2","prime_positive","66","8","66","1","321","78","24"
"062320","13:05:14","279209342","test","2","prime_negative","67","8","34","0","280","78","23"
"062320","13:05:14","279209342","test","2","prime_positive","68","1","35","1","296","78","23"
"062320","13:05:14","279209342","test","2","prime_positive","69","4","49","0","277","76","23"
"062320","13:05:14","279209342","test","2","prime_negative","70","11","44","0","634","76","22"
"062320","13:05:14","279209342","test","2","prime_positive","71","11","43","1","284","77","22"
"062320","13:05:14","279209342","test","2","prime_negative","72","2","16","0","773","77","22"
"062320","13:05:14","279209342","test","2","prime_positive","73","9","21","1","466","77","22"
"062320","21:37:23","743975716","practice","1","prime_negative_practice","4","0","0","0","2309","0","0"
"062320","21:37:23","743975716","practice","1","prime_positive_practice","5","0","0","1","2278","0","0"
"062320","21:37:23","743975716","practice","1","prime_positive_practice","6","0","0","0","1817","0","0"
"062320","21:37:23","743975716","practice","1","prime_negative_practice","7","0","0","0","2150","0","0"
"062320","21:37:23","743975716","practice","1","prime_positive_practice","8","0","0","0","1429","0","0"
"062320","21:37:23","743975716","practice","1","prime_negative_practice","9","0","0","1","802","0","0"
"062320","21:37:23","743975716","practice","1","prime_negative_practice","10","0","0","0","1295","0","0"
"062320","21:37:23","743975716","practice","1","prime_negative_practice","11","0","0","1","970","0","0"
"062320","21:37:23","743975716","practice","1","prime_positive_practice","12","0","0","1","976","0","0"
"062320","21:37:23","743975716","practice","1","prime_positive_practice","13","0","0","1","951","0","0"
"062320","21:37:23","743975716","test","2","prime_negative","2","7","8","1","896","0","100"
"062320","21:37:23","743975716","test","2","prime_positive","3","10","19","0","602","0","100"
"062320","21:37:23","743975716","test","2","prime_negative","4","6","39","1","687","0","100"
"062320","21:37:23","743975716","test","2","prime_negative","5","10","29","1","705","0","100"
"062320","21:37:23","743975716","test","2","prime_positive","6","12","60","1","1019","50","100"
"062320","21:37:23","743975716","test","2","prime_negative","7","9","17","1","528","50","100"
"062320","21:37:23","743975716","test","2","prime_positive","8","7","13","0","776","33","100"
"062320","21:37:23","743975716","test","2","prime_negative","9","2","3","0","503","33","80"
"062320","21:37:23","743975716","test","2","prime_positive","10","5","54","0","624","25","80"
"062320","21:37:23","743975716","test","2","prime_positive","11","8","64","0","493","20","80"
"062320","21:37:23","743975716","test","2","prime_negative","12","11","53","0","615","20","66"
"062320","21:37:23","743975716","test","2","prime_negative","13","12","68","1","644","20","71"
"062320","21:37:23","743975716","test","2","prime_negative","14","5","50","0","624","20","62"
"062320","21:37:23","743975716","test","2","prime_negative","15","3","72","0","1053","20","55"
"062320","21:37:23","743975716","test","2","prime_positive","16","6","25","1","744","33","55"
"062320","21:37:23","743975716","test","2","prime_negative","17","2","7","1","784","33","60"
"062320","21:37:23","743975716","test","2","prime_negative","18","1","34","0","630","33","54"
"062320","21:37:23","743975716","test","2","prime_positive","19","3","27","1","667","42","54"
"062320","21:37:23","743975716","test","2","prime_negative","20","10","57","0","1142","42","50"
"062320","21:37:23","743975716","test","2","prime_negative","21","8","69","0","974","42","46"
"062320","21:37:23","743975716","test","2","prime_negative","22","9","55","0","1236","42","42"
"062320","21:37:23","743975716","test","2","prime_positive","23","6","36","1","601","50","42"
"062320","21:37:23","743975716","test","2","prime_negative","24","12","45","0","630","50","40"
"062320","21:37:23","743975716","test","2","prime_positive","25","10","49","0","675","44","40"
"062320","21:37:23","743975716","test","2","prime_negative","26","4","56","0","421","44","37"
"062320","21:37:23","743975716","test","2","prime_negative","27","7","23","1","522","44","41"
"062320","21:37:23","743975716","test","2","prime_positive","28","8","42","0","635","40","41"
"062320","21:37:23","743975716","test","2","prime_negative","29","6","33","1","1007","40","44"
"062320","21:37:23","743975716","test","2","prime_negative","30","11","52","0","716","40","42"
"062320","21:37:23","743975716","test","2","prime_negative","31","2","16","0","661","40","40"
"062320","21:37:23","743975716","test","2","prime_negative","32","1","9","1","537","40","42"
