"date","time","subject","blockcode","blocknum","trialcode","trialnum","values.primestim","values.targetstim","correct","latency","trial.prime_positive.totalpercentcorrect","trial.prime_negative.totalpercentcorrect"
"092320","00:59:46","653853650","practice","1","prime_negative_practice","4","0","0","0","879","0","0"
"092320","00:59:46","653853650","practice","1","prime_negative_practice","5","0","0","1","300","0","0"
"092320","11:10:48","907624617","practice","1","prime_positive_practice","4","0","0","0","1552","0","0"
"092320","11:10:48","907624617","practice","1","prime_negative_practice","5","0","0","1","1223","0","0"
"092320","11:10:48","907624617","practice","1","prime_negative_practice","6","0","0","1","1126","0","0"
"092320","11:10:48","907624617","practice","1","prime_negative_practice","7","0","0","0","1637","0","0"
"092320","11:10:48","907624617","practice","1","prime_negative_practice","8","0","0","1","1665","0","0"
"092320","11:10:48","907624617","practice","1","prime_positive_practice","9","0","0","1","1138","0","0"
"092320","11:10:48","907624617","practice","1","prime_positive_practice","10","0","0","1","946","0","0"
"092320","11:10:48","907624617","practice","1","prime_positive_practice","11","0","0","1","1511","0","0"
"092320","11:10:48","907624617","practice","1","prime_negative_practice","12","0","0","0","1099","0","0"
"092320","11:10:48","907624617","practice","1","prime_positive_practice","13","0","0","0","1497","0","0"
"092320","11:10:48","907624617","test","2","prime_negative","2","4","33","0","1248","0","0"
"092320","11:10:48","907624617","test","2","prime_negative","3","8","60","0","1523","0","0"
"092320","11:10:48","907624617","test","2","prime_positive","4","2","6","1","1106","100","0"
"092320","11:10:48","907624617","test","2","prime_negative","5","7","71","1","2350","100","33"
"092320","11:10:48","907624617","test","2","prime_negative","6","9","18","0","2015","100","25"
"092320","11:10:48","907624617","test","2","prime_positive","7","9","50","1","1537","100","25"
"092320","11:10:48","907624617","test","2","prime_negative","8","12","16","1","1024","100","40"
"092320","11:10:48","907624617","test","2","prime_negative","9","1","10","1","1135","100","50"
"092320","11:10:48","907624617","test","2","prime_negative","10","11","45","0","1405","100","42"
"092320","11:10:48","907624617","test","2","prime_positive","11","7","30","1","1082","100","42"
"092320","11:10:48","907624617","test","2","prime_positive","12","4","19","1","1115","100","42"
"092320","11:10:48","907624617","test","2","prime_positive","13","11","59","1","1005","100","42"
"092320","11:10:48","907624617","test","2","prime_negative","14","1","68","1","1037","100","50"
"092320","11:10:48","907624617","test","2","prime_positive","15","8","51","1","1173","100","50"
"092320","11:10:48","907624617","test","2","prime_positive","16","1","31","1","1137","100","50"
"092320","11:10:48","907624617","test","2","prime_positive","17","6","69","1","944","100","50"
"092320","11:10:48","907624617","test","2","prime_positive","18","12","28","1","1245","100","50"
"092320","11:10:48","907624617","test","2","prime_negative","19","2","43","1","1062","100","55"
"092320","11:10:48","907624617","test","2","prime_positive","20","8","48","1","862","100","55"
"092320","11:10:48","907624617","test","2","prime_positive","21","4","23","1","1052","100","55"
"092320","11:10:48","907624617","test","2","prime_positive","22","10","47","1","775","100","55"
"092320","11:10:48","907624617","test","2","prime_positive","23","9","14","0","981","92","55"
"092320","11:10:48","907624617","test","2","prime_positive","24","3","49","1","810","92","55"
"092320","11:10:48","907624617","test","2","prime_negative","25","9","67","0","1010","92","50"
"092320","11:10:48","907624617","test","2","prime_negative","26","12","29","0","1638","92","45"
"092320","11:10:48","907624617","test","2","prime_negative","27","8","70","1","1339","92","50"
"092320","11:10:48","907624617","test","2","prime_negative","28","11","61","1","993","92","53"
"092320","11:10:48","907624617","test","2","prime_negative","29","7","65","0","1010","92","50"
"092320","11:10:48","907624617","test","2","prime_negative","30","5","26","0","1069","92","46"
"092320","11:10:48","907624617","test","2","prime_negative","31","4","17","0","1632","92","43"
"092320","11:10:48","907624617","test","2","prime_negative","32","10","38","0","1061","92","41"
"092320","11:10:48","907624617","test","2","prime_positive","33","5","5","1","637","93","41"
"092320","11:10:48","907624617","test","2","prime_negative","34","6","72","0","991","93","38"
"092320","11:10:48","907624617","test","2","prime_negative","35","3","22","1","692","93","42"
"092320","11:10:48","907624617","test","2","prime_negative","36","11","1","1","964","93","45"
"092320","11:10:48","907624617","test","2","prime_positive","37","7","20","1","769","93","45"
"092320","11:10:48","907624617","test","2","prime_positive","38","2","3","1","736","94","45"
"092320","11:10:48","907624617","test","2","prime_negative","39","7","27","0","810","94","42"
"092320","11:10:48","907624617","test","2","prime_positive","40","1","37","1","700","94","42"
"092320","11:10:48","907624617","test","2","prime_positive","41","11","55","1","735","94","42"
"092320","11:10:48","907624617","test","2","prime_negative","42","3","36","1","943","94","45"
"092320","11:10:48","907624617","test","2","prime_positive","43","8","41","1","746","95","45"
"092320","11:10:48","907624617","test","2","prime_positive","44","2","56","1","1043","95","45"
"092320","11:10:48","907624617","test","2","prime_positive","45","4","64","0","922","90","45"
"092320","11:10:48","907624617","test","2","prime_negative","46","1","32","0","1058","90","43"
"092320","11:10:48","907624617","test","2","prime_negative","47","2","63","0","982","90","41"
"092320","11:10:48","907624617","test","2","prime_positive","48","9","4","1","767","91","41"
"092320","11:10:48","907624617","test","2","prime_negative","49","6","15","1","867","91","44"
"092320","11:10:48","907624617","test","2","prime_positive","50","10","66","1","844","91","44"
"092320","11:10:48","907624617","test","2","prime_positive","51","12","8","1","782","92","44"
"092320","11:10:48","907624617","test","2","prime_positive","52","11","52","1","866","92","44"
"092320","11:10:48","907624617","test","2","prime_negative","53","5","12","0","722","92","42"
"092320","11:10:48","907624617","test","2","prime_negative","54","8","35","1","1157","92","44"
"092320","11:10:48","907624617","test","2","prime_positive","55","6","34","1","1123","92","44"
"092320","11:10:48","907624617","test","2","prime_positive","56","7","54","1","645","92","44"
"092320","11:10:48","907624617","test","2","prime_positive","57","1","25","1","594","93","44"
"092320","11:10:48","907624617","test","2","prime_negative","58","12","13","0","636","93","42"
"092320","11:10:48","907624617","test","2","prime_negative","59","9","57","0","667","93","41"
"092320","11:10:48","907624617","test","2","prime_negative","60","4","46","1","892","93","43"
"092320","11:10:48","907624617","test","2","prime_negative","61","10","24","1","785","93","45"
"092320","11:10:48","907624617","test","2","prime_negative","62","4","7","1","1019","93","46"
"092320","11:10:48","907624617","test","2","prime_positive","63","3","39","1","775","93","46"
"092320","11:10:48","907624617","test","2","prime_positive","64","5","60","1","762","93","46"
"092320","11:10:48","907624617","test","2","prime_negative","65","1","45","0","708","93","45"
"092320","11:10:48","907624617","test","2","prime_positive","66","1","3","1","776","93","45"
"092320","11:10:48","907624617","test","2","prime_positive","67","7","4","1","777","93","45"
"092320","11:10:48","907624617","test","2","prime_negative","68","7","69","0","707","93","44"
"092320","11:10:48","907624617","test","2","prime_positive","69","11","51","1","576","94","44"
"092320","11:10:48","907624617","test","2","prime_negative","70","5","66","1","672","94","45"
"092320","11:10:48","907624617","test","2","prime_positive","71","2","16","1","744","94","45"
"092320","11:10:48","907624617","test","2","prime_negative","72","2","62","0","925","94","44"
"092320","11:10:48","907624617","test","2","prime_positive","73","12","12","1","578","94","44"
"092220","20:17:03","176942399","practice","1","prime_positive_practice","4","0","0","1","2146","0","0"
"092220","20:17:03","176942399","practice","1","prime_negative_practice","5","0","0","0","1249","0","0"
"092220","20:17:03","176942399","practice","1","prime_positive_practice","6","0","0","0","734","0","0"
"092220","20:17:03","176942399","practice","1","prime_negative_practice","7","0","0","1","1068","0","0"
"092220","20:17:03","176942399","practice","1","prime_negative_practice","8","0","0","0","1000","0","0"
"092220","20:17:03","176942399","practice","1","prime_positive_practice","9","0","0","0","1325","0","0"
"092220","20:17:03","176942399","practice","1","prime_positive_practice","10","0","0","1","496","0","0"
"092220","20:17:03","176942399","practice","1","prime_negative_practice","11","0","0","1","863","0","0"
"092220","20:17:03","176942399","practice","1","prime_positive_practice","12","0","0","0","1432","0","0"
"092220","20:17:03","176942399","practice","1","prime_negative_practice","13","0","0","0","813","0","0"
"092220","20:17:03","176942399","test","2","prime_negative","2","8","5","0","990","0","0"
"092220","20:17:03","176942399","test","2","prime_negative","3","6","3","1","2145","0","50"
"092220","20:17:03","176942399","test","2","prime_positive","4","9","66","1","765","100","50"
"092220","20:17:03","176942399","test","2","prime_positive","5","7","22","1","459","100","50"
"092220","20:17:03","176942399","test","2","prime_negative","6","5","49","0","544","100","33"
"092220","20:17:03","176942399","test","2","prime_negative","7","1","11","0","876","100","25"
"092220","20:17:03","176942399","test","2","prime_negative","8","2","7","0","841","100","20"
"092220","20:17:03","176942399","test","2","prime_positive","9","6","58","1","455","100","20"
"092220","20:17:03","176942399","test","2","prime_negative","10","3","40","0","430","100","16"
"092220","20:17:03","176942399","test","2","prime_positive","11","5","47","1","471","100","16"
"092220","20:17:03","176942399","test","2","prime_negative","12","12","63","0","720","100","14"
"092220","20:17:03","176942399","test","2","prime_negative","13","11","37","1","528","100","25"
"092220","20:17:03","176942399","test","2","prime_positive","14","10","62","1","566","100","25"
"092220","20:17:03","176942399","test","2","prime_negative","15","5","59","0","391","100","22"
"092220","20:17:03","176942399","test","2","prime_positive","16","4","42","1","678","100","22"
"092220","20:17:03","176942399","test","2","prime_positive","17","12","43","1","463","100","22"
"092220","20:17:03","176942399","test","2","prime_positive","18","5","16","1","436","100","22"
"092220","20:17:03","176942399","test","2","prime_positive","19","1","51","1","314","100","22"
"092220","20:17:03","176942399","test","2","prime_positive","20","2","10","1","332","100","22"
"092220","20:17:03","176942399","test","2","prime_negative","21","2","28","1","437","100","30"
"092220","20:17:03","176942399","test","2","prime_positive","22","3","6","1","324","100","30"
"092220","20:17:03","176942399","test","2","prime_negative","23","7","32","0","462","100","27"
"092220","20:17:03","176942399","test","2","prime_positive","24","7","4","1","443","100","27"
"092220","20:17:03","176942399","test","2","prime_positive","25","9","64","1","926","100","27"
"092220","20:17:03","176942399","test","2","prime_positive","26","12","12","1","588","100","27"
"092220","20:17:03","176942399","test","2","prime_positive","27","6","15","1","447","100","27"
"092220","20:17:03","176942399","test","2","prime_negative","28","10","1","0","648","100","25"
"092220","20:17:03","176942399","test","2","prime_negative","29","3","18","0","548","100","23"
"092220","20:17:03","176942399","test","2","prime_positive","30","10","26","1","653","100","23"
"092220","20:17:03","176942399","test","2","prime_negative","31","1","20","0","488","100","21"
"092220","20:17:03","176942399","test","2","prime_positive","32","8","31","0","550","94","21"
"092220","20:17:03","176942399","test","2","prime_negative","33","4","24","0","419","94","20"
"092220","20:17:03","176942399","test","2","prime_negative","34","6","33","0","491","94","18"
"092220","20:17:03","176942399","test","2","prime_positive","35","11","67","1","360","94","18"
"092220","20:17:03","176942399","test","2","prime_positive","36","4","69","0","541","89","18"
"092220","20:17:03","176942399","test","2","prime_negative","37","12","36","1","1112","89","23"
"092220","20:17:03","176942399","test","2","prime_positive","38","2","14","1","314","90","23"
"092220","20:17:03","176942399","test","2","prime_negative","39","9","57","0","790","90","22"
"092220","20:17:03","176942399","test","2","prime_positive","40","4","30","0","567","85","22"
"092220","20:17:03","176942399","test","2","prime_negative","41","8","60","0","344","85","21"
"092220","20:17:03","176942399","test","2","prime_negative","42","5","50","0","337","85","20"
"092220","20:17:03","176942399","test","2","prime_positive","43","11","65","1","421","86","20"
"092220","20:17:03","176942399","test","2","prime_negative","44","12","56","0","515","86","19"
"092220","20:17:03","176942399","test","2","prime_negative","45","6","2","0","393","86","18"
"092220","20:17:03","176942399","test","2","prime_negative","46","9","55","0","456","86","17"
"092220","20:17:03","176942399","test","2","prime_positive","47","3","54","1","237","86","17"
"092220","20:17:03","176942399","test","2","prime_positive","48","10","41","1","385","87","17"
"092220","20:17:03","176942399","test","2","prime_negative","49","2","71","1","373","87","20"
"092220","20:17:03","176942399","test","2","prime_negative","50","7","13","0","829","87","20"
"092220","20:17:03","176942399","test","2","prime_positive","51","12","48","1","309","88","20"
"092220","20:17:03","176942399","test","2","prime_negative","52","10","45","0","1304","88","19"
"092220","20:17:03","176942399","test","2","prime_negative","53","3","34","0","290","88","18"
"092220","20:17:03","176942399","test","2","prime_positive","54","5","52","1","335","88","18"
"092220","20:17:03","176942399","test","2","prime_positive","55","1","8","1","353","88","18"
"092220","20:17:03","176942399","test","2","prime_negative","56","11","19","1","407","88","21"
"092220","20:17:03","176942399","test","2","prime_negative","57","8","23","0","910","88","20"
"092220","20:17:03","176942399","test","2","prime_positive","58","9","25","1","342","89","20"
"092220","20:17:03","176942399","test","2","prime_negative","59","4","46","0","329","89","20"
"092220","20:17:03","176942399","test","2","prime_positive","60","7","21","1","312","89","20"
"092220","20:17:03","176942399","test","2","prime_positive","61","6","39","1","906","90","20"
"092220","20:17:03","176942399","test","2","prime_negative","62","1","35","0","500","90","19"
"092220","20:17:03","176942399","test","2","prime_positive","63","8","72","0","585","87","19"
"092220","20:17:03","176942399","test","2","prime_negative","64","1","70","0","428","87","18"
"092220","20:17:03","176942399","test","2","prime_positive","65","12","44","1","469","87","18"
"092220","20:17:03","176942399","test","2","prime_positive","66","9","14","1","531","87","18"
"092220","20:17:03","176942399","test","2","prime_negative","67","3","47","0","316","87","18"
"092220","20:17:03","176942399","test","2","prime_negative","68","4","26","0","297","87","17"
"092220","20:17:03","176942399","test","2","prime_negative","69","7","64","0","426","87","17"
"092220","20:17:03","176942399","test","2","prime_negative","70","5","72","0","301","87","16"
"092220","20:17:03","176942399","test","2","prime_positive","71","8","28","0","386","85","16"
"092220","20:17:03","176942399","test","2","prime_positive","72","6","63","1","337","85","16"
"092220","20:17:03","176942399","test","2","prime_positive","73","5","27","1","326","86","16"
"092220","16:18:50","781584642","practice","1","prime_positive_practice","4","0","0","1","3185","0","0"
"092220","16:18:50","781584642","practice","1","prime_negative_practice","5","0","0","0","949","0","0"
"092220","16:18:50","781584642","practice","1","prime_positive_practice","6","0","0","1","663","0","0"
"092220","16:18:50","781584642","practice","1","prime_negative_practice","7","0","0","0","1261","0","0"
"092220","16:18:50","781584642","practice","1","prime_positive_practice","8","0","0","0","786","0","0"
"092220","16:18:50","781584642","practice","1","prime_negative_practice","9","0","0","1","589","0","0"
"092220","16:18:50","781584642","practice","1","prime_negative_practice","10","0","0","1","592","0","0"
"092220","16:18:50","781584642","practice","1","prime_negative_practice","11","0","0","1","521","0","0"
"092220","16:18:50","781584642","practice","1","prime_positive_practice","12","0","0","1","503","0","0"
"092220","16:18:50","781584642","practice","1","prime_positive_practice","13","0","0","0","2739","0","0"
"092220","16:18:50","781584642","test","2","prime_positive","2","6","40","0","1036","0","0"
"092220","16:18:50","781584642","test","2","prime_negative","3","12","29","1","465","0","100"
"092220","16:18:50","781584642","test","2","prime_positive","4","3","17","1","460","50","100"
"092220","16:18:50","781584642","test","2","prime_positive","5","4","7","1","532","66","100"
"092220","16:18:50","781584642","test","2","prime_negative","6","7","33","1","452","66","100"
"092220","16:18:50","781584642","test","2","prime_positive","7","9","27","1","473","75","100"
"092220","16:18:50","781584642","test","2","prime_negative","8","10","65","0","445","75","66"
"092220","16:18:50","781584642","test","2","prime_positive","9","7","1","1","524","80","66"
"092220","16:18:50","781584642","test","2","prime_negative","10","5","46","1","487","80","75"
"092220","16:18:50","781584642","test","2","prime_positive","11","10","21","1","473","83","75"
"092220","16:18:50","781584642","test","2","prime_negative","12","1","2","1","1404","83","80"
"092220","16:18:50","781584642","test","2","prime_negative","13","4","16","1","582","83","83"
"092220","16:18:50","781584642","test","2","prime_negative","14","2","68","1","528","83","85"
"092220","16:18:50","781584642","test","2","prime_positive","15","1","57","0","452","71","85"
"092220","16:18:50","781584642","test","2","prime_negative","16","5","11","0","444","71","75"
"092220","16:18:50","781584642","test","2","prime_negative","17","2","39","1","559","71","77"
"092220","16:18:50","781584642","test","2","prime_positive","18","10","37","1","661","75","77"
"092220","16:18:50","781584642","test","2","prime_positive","19","12","26","1","976","77","77"
"092220","16:18:50","781584642","test","2","prime_negative","20","1","14","0","690","77","70"
"092220","16:18:50","781584642","test","2","prime_negative","21","10","15","1","552","77","72"
"092220","16:18:50","781584642","test","2","prime_negative","22","4","64","0","977","77","66"
"092220","16:18:50","781584642","test","2","prime_negative","23","8","52","1","786","77","69"
"092220","16:18:50","781584642","test","2","prime_positive","24","1","61","1","488","80","69"
"092220","16:18:50","781584642","test","2","prime_negative","25","9","42","1","410","80","71"
"092220","16:18:50","781584642","test","2","prime_positive","26","5","49","1","718","81","71"
"092220","16:18:50","781584642","test","2","prime_positive","27","8","69","1","963","83","71"
"092220","16:18:50","781584642","test","2","prime_positive","28","9","58","0","659","76","71"
"092220","16:18:50","781584642","test","2","prime_negative","29","12","48","0","434","76","66"
"092220","16:18:50","781584642","test","2","prime_negative","30","6","19","1","551","76","68"
"092220","16:18:50","781584642","test","2","prime_positive","31","4","59","0","877","71","68"
"092220","16:18:50","781584642","test","2","prime_positive","32","2","32","1","490","73","68"
"092220","16:18:50","781584642","test","2","prime_positive","33","3","55","0","503","68","68"
"092220","16:18:50","781584642","test","2","prime_positive","34","11","3","1","435","70","68"
"092220","16:18:50","781584642","test","2","prime_negative","35","3","41","1","364","70","70"
"092220","16:18:50","781584642","test","2","prime_negative","36","7","12","0","535","70","66"
"092220","16:18:50","781584642","test","2","prime_negative","37","11","67","1","819","70","68"
"092220","16:18:50","781584642","test","2","prime_positive","38","6","22","1","518","72","68"
"092220","16:18:50","781584642","test","2","prime_positive","39","7","30","1","591","73","68"
"092220","16:18:50","781584642","test","2","prime_positive","40","1","47","1","494","75","68"
"092220","16:18:50","781584642","test","2","prime_negative","41","9","51","1","675","75","70"
"092220","16:18:50","781584642","test","2","prime_positive","42","10","24","1","388","76","70"
"092220","16:18:50","781584642","test","2","prime_positive","43","6","6","0","801","72","70"
"092220","16:18:50","781584642","test","2","prime_positive","44","9","53","0","518","69","70"
"092220","16:18:50","781584642","test","2","prime_negative","45","6","38","1","471","69","71"
"092220","16:18:50","781584642","test","2","prime_negative","46","4","63","0","830","69","68"
"092220","16:18:50","781584642","test","2","prime_positive","47","8","18","1","638","70","68"
"092220","16:18:50","781584642","test","2","prime_negative","48","7","36","1","448","70","69"
"092220","16:18:50","781584642","test","2","prime_positive","49","2","4","1","384","72","69"
"092220","16:18:50","781584642","test","2","prime_negative","50","1","56","0","405","72","66"
"092220","16:18:50","781584642","test","2","prime_negative","51","10","70","1","475","72","68"
"092220","16:18:50","781584642","test","2","prime_negative","52","3","54","0","1169","72","65"
"092220","16:18:50","781584642","test","2","prime_positive","53","7","50","0","473","69","65"
"092220","16:18:50","781584642","test","2","prime_positive","54","4","13","0","580","66","65"
"092220","16:18:50","781584642","test","2","prime_negative","55","11","72","1","660","66","66"
"092220","16:18:50","781584642","test","2","prime_negative","56","8","66","1","464","66","67"
"092220","16:18:50","781584642","test","2","prime_positive","57","5","62","1","869","67","67"
"092220","16:18:50","781584642","test","2","prime_positive","58","3","71","1","499","68","67"
"092220","16:18:50","781584642","test","2","prime_negative","59","12","5","0","1026","68","65"
"092220","16:18:50","781584642","test","2","prime_negative","60","5","8","1","465","68","66"
"092220","16:18:50","781584642","test","2","prime_negative","61","2","10","1","469","68","67"
"092220","16:18:50","781584642","test","2","prime_positive","62","12","60","0","576","66","67"
"092220","16:18:50","781584642","test","2","prime_positive","63","11","25","1","452","67","67"
"092220","16:18:50","781584642","test","2","prime_positive","64","7","2","1","391","68","67"
"092220","16:18:50","781584642","test","2","prime_negative","65","2","9","1","588","68","68"
"092220","16:18:50","781584642","test","2","prime_negative","66","3","61","0","1099","68","66"
"092220","16:18:50","781584642","test","2","prime_negative","67","9","8","1","872","68","67"
"092220","16:18:50","781584642","test","2","prime_positive","68","11","31","0","468","66","67"
"092220","16:18:50","781584642","test","2","prime_positive","69","2","29","1","456","67","67"
"092220","16:18:50","781584642","test","2","prime_positive","70","5","14","0","504","65","67"
"092220","16:18:50","781584642","test","2","prime_negative","71","6","42","0","729","65","65"
"092220","16:18:50","781584642","test","2","prime_negative","72","11","20","1","599","65","66"
"092220","16:18:50","781584642","test","2","prime_positive","73","10","13","0","523","63","66"
"092320","01:20:04","796174258","practice","1","prime_negative_practice","4","0","0","0","4216","0","0"
"092320","01:20:04","796174258","practice","1","prime_negative_practice","5","0","0","0","1537","0","0"
"092320","01:20:04","796174258","practice","1","prime_positive_practice","6","0","0","0","3329","0","0"
"092320","01:20:04","796174258","practice","1","prime_positive_practice","7","0","0","0","893","0","0"
"092320","01:20:04","796174258","practice","1","prime_negative_practice","8","0","0","0","925","0","0"
"092320","01:20:04","796174258","practice","1","prime_positive_practice","9","0","0","0","2798","0","0"
"092320","01:20:04","796174258","practice","1","prime_positive_practice","10","0","0","0","1545","0","0"
"092320","01:20:04","796174258","practice","1","prime_negative_practice","11","0","0","1","770","0","0"
"092320","01:20:04","796174258","practice","1","prime_positive_practice","12","0","0","1","1063","0","0"
"092320","01:20:04","796174258","practice","1","prime_negative_practice","13","0","0","0","999","0","0"
"092320","01:20:04","796174258","test","2","prime_positive","2","12","47","1","1650","100","0"
"092320","01:20:04","796174258","test","2","prime_positive","3","1","53","0","1175","50","0"
"092320","01:20:04","796174258","test","2","prime_negative","4","1","24","1","781","50","100"
"092320","01:20:04","796174258","test","2","prime_negative","5","7","27","1","724","50","100"
"092320","01:20:04","796174258","test","2","prime_negative","6","10","19","1","980","50","100"
"092320","01:20:04","796174258","test","2","prime_negative","7","8","5","0","608","50","75"
"092320","01:20:04","796174258","test","2","prime_positive","8","10","56","1","2089","66","75"
"092320","01:20:04","796174258","test","2","prime_positive","9","8","36","1","705","75","75"
"092320","01:20:04","796174258","test","2","prime_negative","10","6","28","1","1023","75","80"
"092320","01:20:04","796174258","test","2","prime_positive","11","2","4","1","792","80","80"
"092320","01:20:04","796174258","test","2","prime_negative","12","12","60","0","541","80","66"
"092320","01:20:04","796174258","test","2","prime_positive","13","9","57","0","1263","66","66"
"092320","01:20:04","796174258","test","2","prime_positive","14","3","26","0","826","57","66"
"092320","01:20:04","796174258","test","2","prime_negative","15","4","63","0","673","57","57"
"092320","01:20:04","796174258","test","2","prime_positive","16","1","40","0","586","50","57"
"092320","01:20:04","796174258","test","2","prime_negative","17","10","31","0","613","50","50"
"092320","01:20:04","796174258","test","2","prime_positive","18","4","59","0","1069","44","50"
"092320","01:20:04","796174258","test","2","prime_positive","19","5","25","0","822","40","50"
"092320","01:20:04","796174258","test","2","prime_positive","20","8","39","1","913","45","50"
"092320","01:20:04","796174258","test","2","prime_negative","21","12","49","1","858","45","55"
"092320","01:20:04","796174258","test","2","prime_negative","22","4","13","0","2469","45","50"
"092320","01:20:04","796174258","test","2","prime_negative","23","11","15","1","1149","45","54"
"092320","01:20:04","796174258","test","2","prime_positive","24","2","69","1","637","50","54"
"092320","01:20:04","796174258","test","2","prime_positive","25","10","62","1","680","53","54"
"092320","01:20:04","796174258","test","2","prime_negative","26","5","54","1","802","53","58"
"092320","01:20:04","796174258","test","2","prime_positive","27","11","22","0","756","50","58"
"092320","01:20:04","796174258","test","2","prime_positive","28","7","35","0","886","46","58"
"092320","01:20:04","796174258","test","2","prime_negative","29","2","70","0","581","46","53"
"092320","01:20:04","796174258","test","2","prime_negative","30","9","7","0","1032","46","50"
"092320","01:20:04","796174258","test","2","prime_negative","31","1","72","0","908","46","46"
"092320","01:20:04","796174258","test","2","prime_positive","32","9","29","1","1352","50","46"
"092320","01:20:04","796174258","test","2","prime_negative","33","6","44","0","935","50","43"
"092320","01:20:04","796174258","test","2","prime_positive","34","12","16","0","617","47","43"
"092320","01:20:04","796174258","test","2","prime_positive","35","3","46","0","1677","44","43"
"092320","01:20:04","796174258","test","2","prime_positive","36","6","1","0","831","42","43"
"092320","01:20:04","796174258","test","2","prime_negative","37","3","71","0","942","42","41"
"092320","01:20:04","796174258","test","2","prime_negative","38","8","9","0","878","42","38"
"092320","01:20:04","796174258","test","2","prime_positive","39","12","38","0","665","40","38"
"092320","01:20:04","796174258","test","2","prime_negative","40","7","21","0","1231","40","36"
"092320","01:20:04","796174258","test","2","prime_negative","41","1","18","0","878","40","35"
"092320","01:20:04","796174258","test","2","prime_positive","42","6","6","1","996","42","35"
"092320","01:20:04","796174258","test","2","prime_negative","43","4","68","1","867","42","38"
"092320","01:20:04","796174258","test","2","prime_positive","44","7","14","1","743","45","38"
"092320","01:20:04","796174258","test","2","prime_positive","45","9","42","1","664","47","38"
"092320","01:20:04","796174258","test","2","prime_positive","46","8","50","1","612","50","38"
"092320","01:20:04","796174258","test","2","prime_negative","47","11","43","0","704","50","36"
"092320","01:20:04","796174258","test","2","prime_negative","48","6","48","1","519","50","39"
"092320","01:20:04","796174258","test","2","prime_positive","49","5","66","1","581","52","39"
"092320","01:20:04","796174258","test","2","prime_positive","50","3","11","1","918","53","39"
"092320","01:20:04","796174258","test","2","prime_negative","51","9","12","0","1777","53","37"
"092320","01:20:04","796174258","test","2","prime_negative","52","12","52","1","1085","53","40"
"092320","01:20:04","796174258","test","2","prime_positive","53","2","58","1","1290","55","40"
"092320","01:20:04","796174258","test","2","prime_positive","54","4","45","0","2227","53","40"
"092320","01:20:04","796174258","test","2","prime_positive","55","1","3","0","916","51","40"
"092320","01:20:04","796174258","test","2","prime_negative","56","8","33","0","547","51","38"
"092320","01:20:04","796174258","test","2","prime_negative","57","5","41","1","675","51","40"
"092320","01:20:04","796174258","test","2","prime_positive","58","10","10","0","1596","50","40"
"092320","01:20:04","796174258","test","2","prime_positive","59","11","8","0","1199","48","40"
"092320","01:20:04","796174258","test","2","prime_positive","60","12","34","0","651","46","40"
"092320","01:20:04","796174258","test","2","prime_negative","61","2","2","0","1192","46","39"
"092320","01:20:04","796174258","test","2","prime_negative","62","7","61","0","965","46","37"
"092320","01:20:04","796174258","test","2","prime_negative","63","3","17","0","878","46","36"
"092320","01:20:04","796174258","test","2","prime_positive","64","2","21","0","601","45","36"
"092320","01:20:04","796174258","test","2","prime_negative","65","10","62","0","968","45","35"
"092320","01:20:04","796174258","test","2","prime_negative","66","3","22","0","507","45","34"
"092320","01:20:04","796174258","test","2","prime_negative","67","7","38","0","519","45","33"
"092320","01:20:04","796174258","test","2","prime_positive","68","8","10","0","556","44","33"
"092320","01:20:04","796174258","test","2","prime_negative","69","1","43","0","534","44","32"
"092320","01:20:04","796174258","test","2","prime_positive","70","5","58","0","958","42","32"
"092320","01:20:04","796174258","test","2","prime_negative","71","6","27","1","951","42","34"
"092320","01:20:04","796174258","test","2","prime_negative","72","4","46","1","918","42","36"
"092320","01:20:04","796174258","test","2","prime_positive","73","3","33","0","675","41","36"
"092220","19:21:48","853329392","practice","1","prime_negative_practice","4","0","0","0","1723","0","0"
"092220","19:21:48","853329392","practice","1","prime_positive_practice","5","0","0","1","1295","0","0"
"092220","19:21:48","853329392","practice","1","prime_positive_practice","6","0","0","1","1105","0","0"
"092220","19:21:48","853329392","practice","1","prime_negative_practice","7","0","0","0","1010","0","0"
"092220","19:21:48","853329392","practice","1","prime_positive_practice","8","0","0","1","888","0","0"
"092220","19:21:48","853329392","practice","1","prime_positive_practice","9","0","0","1","1305","0","0"
"092220","19:21:48","853329392","practice","1","prime_negative_practice","10","0","0","0","957","0","0"
"092220","19:21:48","853329392","practice","1","prime_positive_practice","11","0","0","1","1111","0","0"
"092220","19:21:48","853329392","practice","1","prime_negative_practice","12","0","0","1","1083","0","0"
"092220","19:21:48","853329392","practice","1","prime_negative_practice","13","0","0","0","997","0","0"
"092220","19:21:48","853329392","test","2","prime_positive","2","4","50","1","1162","100","0"
"092220","19:21:48","853329392","test","2","prime_positive","3","3","58","1","1440","100","0"
"092220","19:21:48","853329392","test","2","prime_positive","4","5","51","0","984","66","0"
"092220","19:21:48","853329392","test","2","prime_negative","5","5","66","1","1068","66","100"
"092220","19:21:48","853329392","test","2","prime_negative","6","2","6","0","1125","66","50"
"092220","19:21:48","853329392","test","2","prime_negative","7","1","71","1","1175","66","66"
"092220","19:21:48","853329392","test","2","prime_negative","8","8","40","1","1082","66","75"
"092220","19:21:48","853329392","test","2","prime_positive","9","1","8","1","1277","75","75"
"092220","19:21:48","853329392","test","2","prime_negative","10","11","12","1","1145","75","80"
"092220","19:21:48","853329392","test","2","prime_positive","11","7","54","1","1061","80","80"
"092220","19:21:48","853329392","test","2","prime_positive","12","12","33","0","861","66","80"
"092220","19:21:48","853329392","test","2","prime_negative","13","4","18","0","1043","66","66"
"092220","19:21:48","853329392","test","2","prime_positive","14","11","2","0","912","57","66"
"092220","19:21:48","853329392","test","2","prime_negative","15","10","39","1","891","57","71"
"092220","19:21:48","853329392","test","2","prime_positive","16","10","28","1","1052","62","71"
"092220","19:21:48","853329392","test","2","prime_negative","17","12","62","0","863","62","62"
"092220","19:21:48","853329392","test","2","prime_negative","18","2","43","0","1275","62","55"
"092220","19:21:48","853329392","test","2","prime_negative","19","3","70","0","876","62","50"
"092220","19:21:48","853329392","test","2","prime_positive","20","4","7","1","984","66","50"
"092220","19:21:48","853329392","test","2","prime_negative","21","4","60","1","1335","66","54"
"092220","19:21:48","853329392","test","2","prime_positive","22","1","34","0","1226","60","54"
"092220","19:21:48","853329392","test","2","prime_negative","23","9","20","0","825","60","50"
"092220","19:21:48","853329392","test","2","prime_positive","24","11","49","0","957","54","50"
"092220","19:21:48","853329392","test","2","prime_positive","25","6","42","0","1291","50","50"
"092220","19:21:48","853329392","test","2","prime_positive","26","9","41","0","1023","46","50"
"092220","19:21:48","853329392","test","2","prime_positive","27","5","68","1","726","50","50"
"092220","19:21:48","853329392","test","2","prime_positive","28","3","61","1","1077","53","50"
"092220","19:21:48","853329392","test","2","prime_negative","29","10","45","0","1039","53","46"
"092220","19:21:48","853329392","test","2","prime_positive","30","12","57","1","1026","56","46"
"092220","19:21:48","853329392","test","2","prime_negative","31","6","44","1","929","56","50"
"092220","19:21:48","853329392","test","2","prime_positive","32","2","10","1","888","58","50"
"092220","19:21:48","853329392","test","2","prime_positive","33","8","69","0","823","55","50"
"092220","19:21:48","853329392","test","2","prime_negative","34","1","53","1","795","55","53"
"092220","19:21:48","853329392","test","2","prime_positive","35","7","21","1","963","57","53"
"092220","19:21:48","853329392","test","2","prime_positive","36","11","14","0","1058","55","53"
"092220","19:21:48","853329392","test","2","prime_positive","37","4","37","0","852","52","53"
"092220","19:21:48","853329392","test","2","prime_negative","38","11","1","0","732","52","50"
"092220","19:21:48","853329392","test","2","prime_positive","39","1","29","0","1077","50","50"
"092220","19:21:48","853329392","test","2","prime_negative","40","8","65","1","632","50","52"
"092220","19:21:48","853329392","test","2","prime_negative","41","7","9","1","982","50","55"
"092220","19:21:48","853329392","test","2","prime_positive","42","3","5","1","567","52","55"
"092220","19:21:48","853329392","test","2","prime_negative","43","5","22","1","571","52","57"
"092220","19:21:48","853329392","test","2","prime_negative","44","5","15","1","838","52","60"
"092220","19:21:48","853329392","test","2","prime_positive","45","12","11","1","1020","54","60"
"092220","19:21:48","853329392","test","2","prime_positive","46","6","56","0","627","52","60"
"092220","19:21:48","853329392","test","2","prime_positive","47","5","23","1","1054","53","60"
"092220","19:21:48","853329392","test","2","prime_negative","48","10","25","1","674","53","61"
"092220","19:21:48","853329392","test","2","prime_negative","49","2","46","1","622","53","63"
"092220","19:21:48","853329392","test","2","prime_negative","50","4","16","0","895","53","60"
"092220","19:21:48","853329392","test","2","prime_negative","51","11","3","0","743","53","58"
"092220","19:21:48","853329392","test","2","prime_negative","52","9","63","1","707","53","60"
"092220","19:21:48","853329392","test","2","prime_positive","53","10","64","1","655","55","60"
"092220","19:21:48","853329392","test","2","prime_positive","54","2","55","1","670","57","60"
"092220","19:21:48","853329392","test","2","prime_negative","55","3","30","0","582","57","57"
"092220","19:21:48","853329392","test","2","prime_positive","56","9","48","0","594","55","57"
"092220","19:21:48","853329392","test","2","prime_positive","57","7","36","1","498","56","57"
"092220","19:21:48","853329392","test","2","prime_negative","58","8","35","1","1321","56","59"
"092220","19:21:48","853329392","test","2","prime_positive","59","8","72","0","682","54","59"
"092220","19:21:48","853329392","test","2","prime_negative","60","1","67","0","773","54","57"
"092220","19:21:48","853329392","test","2","prime_positive","61","9","4","0","614","53","57"
"092220","19:21:48","853329392","test","2","prime_negative","62","6","59","0","565","53","55"
"092220","19:21:48","853329392","test","2","prime_positive","63","7","47","0","617","51","55"
"092220","19:21:48","853329392","test","2","prime_negative","64","12","55","1","669","51","56"
"092220","19:21:48","853329392","test","2","prime_negative","65","7","58","1","727","51","58"
"092220","19:21:48","853329392","test","2","prime_positive","66","5","15","1","521","52","58"
"092220","19:21:48","853329392","test","2","prime_positive","67","2","52","0","697","51","58"
"092220","19:21:48","853329392","test","2","prime_positive","68","10","28","1","657","52","58"
"092220","19:21:48","853329392","test","2","prime_negative","69","12","71","0","672","52","56"
"092220","19:21:48","853329392","test","2","prime_negative","70","4","59","0","597","52","54"
"092220","19:21:48","853329392","test","2","prime_negative","71","5","10","1","689","52","55"
"092220","19:21:48","853329392","test","2","prime_negative","72","2","45","0","583","52","54"
"092220","19:21:48","853329392","test","2","prime_negative","73","3","42","0","889","52","52"
"092220","19:24:16","356696678","practice","1","prime_positive_practice","4","0","0","0","6703","0","0"
"092220","19:24:16","356696678","practice","1","prime_negative_practice","5","0","0","0","7821","0","0"
"092220","19:24:16","356696678","practice","1","prime_negative_practice","6","0","0","1","4197","0","0"
"092220","19:24:16","356696678","practice","1","prime_positive_practice","7","0","0","1","1086","0","0"
"092220","19:24:16","356696678","practice","1","prime_positive_practice","8","0","0","1","1615","0","0"
"092220","19:24:16","356696678","practice","1","prime_negative_practice","9","0","0","1","1360","0","0"
"092220","19:24:16","356696678","practice","1","prime_negative_practice","10","0","0","0","1162","0","0"
"092220","19:24:16","356696678","practice","1","prime_negative_practice","11","0","0","1","1133","0","0"
"092220","19:24:16","356696678","practice","1","prime_positive_practice","12","0","0","1","1101","0","0"
"092220","19:24:16","356696678","practice","1","prime_positive_practice","13","0","0","1","952","0","0"
"092220","19:24:16","356696678","test","2","prime_positive","2","6","25","1","1011","100","0"
"092220","19:24:16","356696678","test","2","prime_positive","3","10","2","1","713","100","0"
"092220","19:24:16","356696678","test","2","prime_positive","4","8","60","1","794","100","0"
"092220","19:24:16","356696678","test","2","prime_positive","5","5","42","0","754","75","0"
"092220","19:24:16","356696678","test","2","prime_negative","6","8","16","0","925","75","0"
"092220","19:24:16","356696678","test","2","prime_positive","7","2","43","0","2385","60","0"
"092220","19:24:16","356696678","test","2","prime_negative","8","2","20","0","968","60","0"
"092220","19:24:16","356696678","test","2","prime_positive","9","7","65","1","657","66","0"
"092220","19:24:16","356696678","test","2","prime_negative","10","9","68","0","1010","66","0"
"092220","19:24:16","356696678","test","2","prime_positive","11","9","57","1","1003","71","0"
"092220","19:24:16","356696678","test","2","prime_negative","12","11","37","0","1180","71","0"
"092220","19:24:16","356696678","test","2","prime_positive","13","2","50","0","1428","62","0"
"092220","19:24:16","356696678","test","2","prime_positive","14","10","18","1","739","66","0"
"092220","19:24:16","356696678","test","2","prime_positive","15","5","1","1","1324","70","0"
"092220","19:24:16","356696678","test","2","prime_positive","16","9","22","1","906","72","0"
"092220","19:24:16","356696678","test","2","prime_positive","17","6","71","1","701","75","0"
"092220","19:24:16","356696678","test","2","prime_negative","18","7","19","1","703","75","20"
"092220","19:24:16","356696678","test","2","prime_negative","19","12","51","1","1083","75","33"
"092220","19:24:16","356696678","test","2","prime_negative","20","6","41","1","1208","75","42"
"092220","19:24:16","356696678","test","2","prime_positive","21","4","12","1","989","76","42"
"092220","19:24:16","356696678","test","2","prime_negative","22","9","31","0","1134","76","37"
"092220","19:24:16","356696678","test","2","prime_positive","23","1","29","1","649","78","37"
"092220","19:24:16","356696678","test","2","prime_positive","24","3","7","1","2510","80","37"
"092220","19:24:16","356696678","test","2","prime_negative","25","4","14","1","1105","80","44"
"092220","19:24:16","356696678","test","2","prime_positive","26","12","49","1","740","81","44"
"092220","19:24:16","356696678","test","2","prime_negative","27","3","38","0","913","81","40"
"092220","19:24:16","356696678","test","2","prime_negative","28","7","9","1","1126","81","45"
"092220","19:24:16","356696678","test","2","prime_negative","29","12","17","1","1111","81","50"
"092220","19:24:16","356696678","test","2","prime_positive","30","8","13","1","525","82","50"
"092220","19:24:16","356696678","test","2","prime_negative","31","8","33","1","644","82","53"
"092220","19:24:16","356696678","test","2","prime_positive","32","7","39","1","410","83","53"
"092220","19:24:16","356696678","test","2","prime_negative","33","1","62","1","397","83","57"
"092220","19:24:16","356696678","test","2","prime_negative","34","2","15","1","1623","83","60"
"092220","19:24:16","356696678","test","2","prime_negative","35","5","4","1","463","83","62"
"092220","19:24:16","356696678","test","2","prime_positive","36","11","58","1","509","84","62"
"092220","19:24:16","356696678","test","2","prime_negative","37","11","34","0","566","84","58"
"092220","19:24:16","356696678","test","2","prime_positive","38","6","6","1","541","85","58"
"092220","19:24:16","356696678","test","2","prime_negative","39","6","53","1","1047","85","61"
"092220","19:24:16","356696678","test","2","prime_negative","40","10","66","1","507","85","63"
"092220","19:24:16","356696678","test","2","prime_negative","41","11","28","1","439","85","65"
"092220","19:24:16","356696678","test","2","prime_negative","42","1","72","0","763","85","61"
"092220","19:24:16","356696678","test","2","prime_positive","43","4","44","0","936","80","61"
"092220","19:24:16","356696678","test","2","prime_positive","44","12","56","1","466","81","61"
"092220","19:24:16","356696678","test","2","prime_positive","45","3","11","0","443","78","61"
"092220","19:24:16","356696678","test","2","prime_negative","46","6","10","1","602","78","63"
"092220","19:24:16","356696678","test","2","prime_negative","47","8","32","0","426","78","60"
"092220","19:24:16","356696678","test","2","prime_negative","48","4","21","1","504","78","62"
"092220","19:24:16","356696678","test","2","prime_negative","49","7","70","1","461","78","64"
"092220","19:24:16","356696678","test","2","prime_negative","50","12","63","1","653","78","65"
"092220","19:24:16","356696678","test","2","prime_negative","51","10","27","1","680","78","66"
"092220","19:24:16","356696678","test","2","prime_positive","52","10","8","1","438","79","66"
"092220","19:24:16","356696678","test","2","prime_negative","53","5","30","1","556","79","67"
"092220","19:24:16","356696678","test","2","prime_positive","54","9","40","1","480","80","67"
"092220","19:24:16","356696678","test","2","prime_positive","55","5","36","1","1436","80","67"
"092220","19:24:16","356696678","test","2","prime_negative","56","2","26","0","875","80","65"
"092220","19:24:16","356696678","test","2","prime_positive","57","2","55","0","804","77","65"
"092220","19:24:16","356696678","test","2","prime_negative","58","9","52","1","723","77","66"
"092220","19:24:16","356696678","test","2","prime_positive","59","7","67","1","1122","78","66"
"092220","19:24:16","356696678","test","2","prime_positive","60","11","61","1","700","79","66"
"092220","19:24:16","356696678","test","2","prime_positive","61","8","24","0","1178","76","66"
"092220","19:24:16","356696678","test","2","prime_positive","62","1","48","1","775","77","66"
"092220","19:24:16","356696678","test","2","prime_positive","63","9","23","1","995","78","66"
"092220","19:24:16","356696678","test","2","prime_positive","64","1","12","1","752","78","66"
"092220","19:24:16","356696678","test","2","prime_negative","65","3","5","0","662","78","64"
"092220","19:24:16","356696678","test","2","prime_negative","66","5","18","0","802","78","62"
"092220","19:24:16","356696678","test","2","prime_positive","67","10","48","1","458","79","62"
"092220","19:24:16","356696678","test","2","prime_positive","68","6","2","1","653","80","62"
"092220","19:24:16","356696678","test","2","prime_negative","69","12","68","1","677","80","63"
"092220","19:24:16","356696678","test","2","prime_negative","70","10","21","1","587","80","64"
"092220","19:24:16","356696678","test","2","prime_negative","71","4","17","1","681","80","65"
"092220","19:24:16","356696678","test","2","prime_negative","72","2","53","0","1045","80","63"
"092220","19:24:16","356696678","test","2","prime_positive","73","12","14","1","706","80","63"
"092320","00:23:25","905519443","practice","1","prime_negative_practice","4","0","0","0","1511","0","0"
"092320","00:23:25","905519443","practice","1","prime_positive_practice","5","0","0","1","1391","0","0"
"092320","00:23:25","905519443","practice","1","prime_negative_practice","6","0","0","1","1194","0","0"
"092320","00:23:25","905519443","practice","1","prime_negative_practice","7","0","0","0","754","0","0"
"092320","00:23:25","905519443","practice","1","prime_positive_practice","8","0","0","0","1098","0","0"
"092320","00:23:25","905519443","practice","1","prime_negative_practice","9","0","0","0","858","0","0"
"092320","00:23:25","905519443","practice","1","prime_positive_practice","10","0","0","1","990","0","0"
"092320","00:23:25","905519443","practice","1","prime_positive_practice","11","0","0","1","823","0","0"
"092320","00:23:25","905519443","practice","1","prime_positive_practice","12","0","0","1","665","0","0"
"092320","00:23:25","905519443","practice","1","prime_negative_practice","13","0","0","0","562","0","0"
"092320","00:23:25","905519443","test","2","prime_positive","2","5","68","1","1101","100","0"
"092320","00:23:25","905519443","test","2","prime_negative","3","1","48","0","633","100","0"
"092320","00:23:25","905519443","test","2","prime_negative","4","12","10","0","1168","100","0"
"092320","00:23:25","905519443","test","2","prime_positive","5","8","49","1","646","100","0"
"092320","00:23:25","905519443","test","2","prime_negative","6","5","18","0","545","100","0"
"092320","00:23:25","905519443","test","2","prime_positive","7","11","52","1","1009","100","0"
"092320","00:23:25","905519443","test","2","prime_negative","8","9","21","0","597","100","0"
"092320","00:23:25","905519443","test","2","prime_positive","9","7","32","0","740","75","0"
"092320","00:23:25","905519443","test","2","prime_positive","10","10","31","1","935","80","0"
"092320","00:23:25","905519443","test","2","prime_positive","11","12","11","1","931","83","0"
"092320","00:23:25","905519443","test","2","prime_positive","12","2","65","1","524","85","0"
"092320","00:23:25","905519443","test","2","prime_positive","13","10","70","1","543","87","0"
"092320","00:23:25","905519443","test","2","prime_negative","14","10","57","1","317","87","20"
"092320","00:23:25","905519443","test","2","prime_positive","15","9","20","1","296","88","20"
"092320","00:23:25","905519443","test","2","prime_positive","16","7","7","1","257","90","20"
"092320","00:23:25","905519443","test","2","prime_negative","17","3","50","0","124","90","16"
"092320","00:23:25","905519443","test","2","prime_negative","18","2","25","1","109","90","28"
"092320","00:23:25","905519443","test","2","prime_positive","19","8","4","0","96","81","28"
"092320","00:23:25","905519443","test","2","prime_negative","20","4","8","0","106","81","25"
"092320","00:23:25","905519443","test","2","prime_negative","21","8","3","0","188","81","22"
"092320","00:23:25","905519443","test","2","prime_positive","22","12","22","0","200","75","22"
"092320","00:23:25","905519443","test","2","prime_positive","23","3","14","0","138","69","22"
"092320","00:23:25","905519443","test","2","prime_positive","24","4","64","1","94","71","22"
"092320","00:23:25","905519443","test","2","prime_positive","25","5","46","0","70","66","22"
"092320","00:23:25","905519443","test","2","prime_negative","26","6","41","1","154","66","30"
"092320","00:23:25","905519443","test","2","prime_negative","27","1","61","0","95","66","27"
"092320","00:23:25","905519443","test","2","prime_negative","28","3","39","0","211","66","25"
"092320","00:23:25","905519443","test","2","prime_negative","29","12","63","0","152","66","23"
"092320","00:23:25","905519443","test","2","prime_negative","30","2","33","0","141","66","21"
"092320","00:23:25","905519443","test","2","prime_positive","31","11","5","1","331","68","21"
"092320","00:23:25","905519443","test","2","prime_negative","32","10","60","0","23","68","20"
"092320","00:23:25","905519443","test","2","prime_positive","33","2","23","1","188","70","20"
"092320","00:23:25","905519443","test","2","prime_negative","34","9","72","0","152","70","18"
"092320","00:23:25","905519443","test","2","prime_negative","35","7","2","1","213","70","23"
"092320","00:23:25","905519443","test","2","prime_negative","36","5","38","0","87","70","22"
"092320","00:23:25","905519443","test","2","prime_negative","37","11","58","0","157","70","21"
"092320","00:23:25","905519443","test","2","prime_negative","38","2","30","0","255","70","20"
"092320","00:23:25","905519443","test","2","prime_negative","39","8","69","0","155","70","19"
"092320","00:23:25","905519443","test","2","prime_positive","40","6","47","0","149","66","19"
"092320","00:23:25","905519443","test","2","prime_negative","41","4","37","1","205","66","22"
"092320","00:23:25","905519443","test","2","prime_negative","42","6","44","0","164","66","21"
"092320","00:23:25","905519443","test","2","prime_negative","43","5","54","0","102","66","20"
"092320","00:23:25","905519443","test","2","prime_negative","44","9","51","0","91","66","20"
"092320","00:23:25","905519443","test","2","prime_positive","45","1","59","0","108","63","20"
"092320","00:23:25","905519443","test","2","prime_negative","46","3","53","1","227","63","23"
"092320","00:23:25","905519443","test","2","prime_positive","47","2","9","0","87","60","23"
"092320","00:23:25","905519443","test","2","prime_positive","48","11","13","0","234","57","23"
"092320","00:23:25","905519443","test","2","prime_negative","49","1","15","0","204","57","22"
"092320","00:23:25","905519443","test","2","prime_positive","50","3","56","0","151","54","22"
"092320","00:23:25","905519443","test","2","prime_positive","51","10","12","0","158","52","22"
"092320","00:23:25","905519443","test","2","prime_positive","52","6","71","1","229","54","22"
"092320","00:23:25","905519443","test","2","prime_positive","53","9","28","0","85","52","22"
"092320","00:23:25","905519443","test","2","prime_negative","54","7","6","0","194","52","21"
"092320","00:23:25","905519443","test","2","prime_negative","55","11","40","0","148","52","20"
"092320","00:23:25","905519443","test","2","prime_positive","56","8","35","0","319","50","20"
"092320","00:23:25","905519443","test","2","prime_negative","57","10","17","1","345","50","23"
"092320","00:23:25","905519443","test","2","prime_positive","58","4","42","0","116","48","23"
"092320","00:23:25","905519443","test","2","prime_positive","59","12","36","0","260","46","23"
"092320","00:23:25","905519443","test","2","prime_negative","60","12","55","0","129","46","22"
"092320","00:23:25","905519443","test","2","prime_negative","61","12","19","1","107","46","25"
"092320","00:23:25","905519443","test","2","prime_positive","62","5","24","0","218","44","25"
"092320","00:23:25","905519443","test","2","prime_positive","63","7","43","0","232","43","25"
"092320","00:23:25","905519443","test","2","prime_positive","64","1","70","1","472","45","25"
"092320","00:23:25","905519443","test","2","prime_positive","65","1","50","1","684","46","25"
"092320","00:23:25","905519443","test","2","prime_positive","66","9","1","1","740","48","25"
"092320","00:23:25","905519443","test","2","prime_negative","67","4","65","0","414","48","24"
"092320","00:23:25","905519443","test","2","prime_positive","68","6","44","1","685","50","24"
"092320","00:23:25","905519443","test","2","prime_negative","69","1","58","0","296","50","23"
"092320","00:23:25","905519443","test","2","prime_negative","70","8","25","0","279","50","22"
"092320","00:23:25","905519443","test","2","prime_positive","71","8","26","1","351","51","22"
"092320","00:23:25","905519443","test","2","prime_positive","72","3","34","0","357","50","22"
"092320","00:23:25","905519443","test","2","prime_negative","73","7","59","0","593","50","22"
"092320","00:24:00","5470440","practice","1","prime_positive_practice","4","0","0","1","4100","0","0"
"092320","00:24:00","5470440","practice","1","prime_positive_practice","5","0","0","1","2746","0","0"
"092320","00:24:00","5470440","practice","1","prime_negative_practice","6","0","0","1","4807","0","0"
"092320","00:24:00","5470440","practice","1","prime_positive_practice","7","0","0","1","2461","0","0"
"092320","00:24:00","5470440","practice","1","prime_negative_practice","8","0","0","0","3384","0","0"
"092320","00:24:00","5470440","practice","1","prime_positive_practice","9","0","0","1","1398","0","0"
"092320","00:24:00","5470440","practice","1","prime_negative_practice","10","0","0","1","1635","0","0"
"092320","00:24:00","5470440","practice","1","prime_negative_practice","11","0","0","0","1392","0","0"
"092320","00:24:00","5470440","practice","1","prime_negative_practice","12","0","0","1","2777","0","0"
"092320","00:24:00","5470440","practice","1","prime_positive_practice","13","0","0","1","2326","0","0"
"092320","00:24:00","5470440","test","2","prime_positive","2","6","38","1","1364","100","0"
"092320","00:24:00","5470440","test","2","prime_negative","3","6","6","1","3158","100","100"
"092320","00:24:00","5470440","test","2","prime_negative","4","4","22","0","1549","100","50"
"092320","00:24:00","5470440","test","2","prime_positive","5","4","62","1","1560","100","50"
"092320","00:24:00","5470440","test","2","prime_positive","6","1","17","1","1077","100","50"
"092320","00:24:00","5470440","test","2","prime_negative","7","9","15","1","931","100","66"
"092320","00:24:00","5470440","test","2","prime_negative","8","12","67","0","954","100","50"
"092320","00:24:00","5470440","test","2","prime_negative","9","10","23","0","1326","100","40"
"092320","00:24:00","5470440","test","2","prime_negative","10","3","36","1","1179","100","50"
"092320","00:24:00","5470440","test","2","prime_negative","11","7","39","1","1492","100","57"
"092320","00:24:00","5470440","test","2","prime_negative","12","1","13","0","1048","100","50"
"092320","00:24:00","5470440","test","2","prime_negative","13","11","31","1","1458","100","55"
"092320","00:24:00","5470440","test","2","prime_negative","14","2","29","1","735","100","60"
"092320","00:24:00","5470440","test","2","prime_positive","15","2","28","1","659","100","60"
"092320","00:24:00","5470440","test","2","prime_positive","16","8","48","1","763","100","60"
"092320","00:24:00","5470440","test","2","prime_negative","17","10","32","1","403","100","63"
"092320","00:24:00","5470440","test","2","prime_negative","18","8","19","0","794","100","58"
"092320","00:24:00","5470440","test","2","prime_positive","19","9","70","1","1331","100","58"
"092320","00:24:00","5470440","test","2","prime_negative","20","12","52","0","989","100","53"
"092320","00:24:00","5470440","test","2","prime_positive","21","7","41","1","763","100","53"
"092320","00:24:00","5470440","test","2","prime_negative","22","3","25","1","431","100","57"
"092320","00:24:00","5470440","test","2","prime_positive","23","1","55","1","527","100","57"
"092320","00:24:00","5470440","test","2","prime_positive","24","11","61","1","1028","100","57"
"092320","00:24:00","5470440","test","2","prime_positive","25","8","56","0","605","90","57"
"092320","00:24:00","5470440","test","2","prime_negative","26","9","18","0","536","90","53"
"092320","00:24:00","5470440","test","2","prime_negative","27","5","43","0","585","90","50"
"092320","00:24:00","5470440","test","2","prime_positive","28","3","16","1","465","90","50"
"092320","00:24:00","5470440","test","2","prime_positive","29","2","24","1","521","91","50"
"092320","00:24:00","5470440","test","2","prime_positive","30","10","63","1","692","92","50"
"092320","00:24:00","5470440","test","2","prime_positive","31","12","12","1","492","92","50"
"092320","00:24:00","5470440","test","2","prime_positive","32","5","47","1","425","93","50"
"092320","00:24:00","5470440","test","2","prime_positive","33","6","21","1","407","93","50"
"092320","00:24:00","5470440","test","2","prime_negative","34","4","40","1","454","93","52"
"092320","00:24:00","5470440","test","2","prime_positive","35","7","8","1","285","94","52"
"092320","00:24:00","5470440","test","2","prime_negative","36","7","27","1","393","94","55"
"092320","00:24:00","5470440","test","2","prime_negative","37","6","14","1","555","94","57"
"092320","00:24:00","5470440","test","2","prime_negative","38","4","49","1","494","94","60"
"092320","00:24:00","5470440","test","2","prime_negative","39","9","7","0","503","94","57"
"092320","00:24:00","5470440","test","2","prime_negative","40","2","50","0","411","94","54"
"092320","00:24:00","5470440","test","2","prime_negative","41","5","57","1","282","94","56"
"092320","00:24:00","5470440","test","2","prime_positive","42","4","64","1","570","94","56"
"092320","00:24:00","5470440","test","2","prime_positive","43","9","26","0","216","89","56"
"092320","00:24:00","5470440","test","2","prime_negative","44","3","46","1","319","89","58"
"092320","00:24:00","5470440","test","2","prime_negative","45","6","9","1","548","89","60"
"092320","00:24:00","5470440","test","2","prime_positive","46","2","42","1","358","90","60"
"092320","00:24:00","5470440","test","2","prime_positive","47","8","65","1","837","90","60"
"092320","00:24:00","5470440","test","2","prime_positive","48","1","53","1","781","90","60"
"092320","00:24:00","5470440","test","2","prime_positive","49","6","71","1","888","91","60"
"092320","00:24:00","5470440","test","2","prime_positive","50","12","1","0","663","87","60"
"092320","00:24:00","5470440","test","2","prime_negative","51","12","60","0","841","87","57"
"092320","00:24:00","5470440","test","2","prime_positive","52","11","54","1","385","88","57"
"092320","00:24:00","5470440","test","2","prime_negative","53","10","2","1","371","88","59"
"092320","00:24:00","5470440","test","2","prime_positive","54","3","44","1","184","88","59"
"092320","00:24:00","5470440","test","2","prime_negative","55","7","10","0","639","88","57"
"092320","00:24:00","5470440","test","2","prime_positive","56","10","35","0","708","85","57"
"092320","00:24:00","5470440","test","2","prime_positive","57","5","51","1","367","85","57"
"092320","00:24:00","5470440","test","2","prime_negative","58","11","34","1","335","85","58"
"092320","00:24:00","5470440","test","2","prime_positive","59","4","37","1","390","86","58"
"092320","00:24:00","5470440","test","2","prime_negative","60","1","20","1","167","86","60"
"092320","00:24:00","5470440","test","2","prime_negative","61","8","45","0","974","86","58"
"092320","00:24:00","5470440","test","2","prime_positive","62","9","5","1","860","86","58"
"092320","00:24:00","5470440","test","2","prime_negative","63","7","68","1","346","86","59"
"092320","00:24:00","5470440","test","2","prime_positive","64","7","22","1","205","87","59"
"092320","00:24:00","5470440","test","2","prime_negative","65","10","25","1","643","87","60"
"092320","00:24:00","5470440","test","2","prime_negative","66","8","3","1","299","87","61"
"092320","00:24:00","5470440","test","2","prime_positive","67","7","45","1","367","87","61"
"092320","00:24:00","5470440","test","2","prime_positive","68","4","18","0","302","84","61"
"092320","00:24:00","5470440","test","2","prime_positive","69","8","28","1","793","85","61"
"092320","00:24:00","5470440","test","2","prime_positive","70","10","55","1","284","85","61"
"092320","00:24:00","5470440","test","2","prime_positive","71","11","46","1","239","86","61"
"092320","00:24:00","5470440","test","2","prime_negative","72","2","50","1","358","86","62"
"092320","00:24:00","5470440","test","2","prime_negative","73","6","15","1","760","86","63"
"092320","01:22:24","92405220","practice","1","prime_positive_practice","4","0","0","1","4938","0","0"
"092320","01:22:24","92405220","practice","1","prime_negative_practice","5","0","0","1","3949","0","0"
"092320","01:22:24","92405220","practice","1","prime_negative_practice","6","0","0","1","4835","0","0"
"092320","01:22:24","92405220","practice","1","prime_positive_practice","7","0","0","0","3930","0","0"
"092320","01:22:24","92405220","practice","1","prime_positive_practice","8","0","0","0","1141","0","0"
"092320","01:22:24","92405220","practice","1","prime_negative_practice","9","0","0","0","1776","0","0"
"092320","01:22:24","92405220","practice","1","prime_positive_practice","10","0","0","0","2732","0","0"
"092320","01:22:24","92405220","practice","1","prime_negative_practice","11","0","0","0","2688","0","0"
"092320","01:22:24","92405220","practice","1","prime_positive_practice","12","0","0","0","4128","0","0"
"092320","01:22:24","92405220","practice","1","prime_negative_practice","13","0","0","1","2001","0","0"
"092320","01:22:24","92405220","test","2","prime_positive","2","8","31","1","1313","100","0"
"092320","01:22:24","92405220","test","2","prime_negative","3","8","22","1","1516","100","100"
"092320","01:22:24","92405220","test","2","prime_positive","4","11","48","1","2505","100","100"
"092320","01:22:24","92405220","test","2","prime_negative","5","1","1","0","762","100","50"
"092320","01:22:24","92405220","test","2","prime_positive","6","2","47","1","967","100","50"
"092320","01:22:24","92405220","test","2","prime_positive","7","6","32","0","1959","75","50"
"092320","01:22:24","92405220","test","2","prime_positive","8","7","52","1","631","80","50"
"092320","01:22:24","92405220","test","2","prime_negative","9","7","54","0","1317","80","33"
"092320","01:22:24","92405220","test","2","prime_negative","10","4","67","0","849","80","25"
"092320","01:22:24","92405220","test","2","prime_negative","11","9","30","1","960","80","40"
"092320","01:22:24","92405220","test","2","prime_positive","12","4","68","0","1549","66","40"
"092320","01:22:24","92405220","test","2","prime_positive","13","3","16","1","1051","71","40"
"092320","01:22:24","92405220","test","2","prime_negative","14","6","34","0","1489","71","33"
"092320","01:22:24","92405220","test","2","prime_positive","15","4","17","1","1825","75","33"
"092320","01:22:24","92405220","test","2","prime_negative","16","3","8","0","1092","75","28"
"092320","01:22:24","92405220","test","2","prime_positive","17","6","51","0","1041","66","28"
"092320","01:22:24","92405220","test","2","prime_negative","18","2","11","0","1595","66","25"
"092320","01:22:24","92405220","test","2","prime_negative","19","6","55","1","814","66","33"
"092320","01:22:24","92405220","test","2","prime_positive","20","12","20","0","1791","60","33"
"092320","01:22:24","92405220","test","2","prime_positive","21","7","43","1","881","63","33"
"092320","01:22:24","92405220","test","2","prime_negative","22","8","62","1","757","63","40"
"092320","01:22:24","92405220","test","2","prime_negative","23","11","9","0","980","63","36"
"092320","01:22:24","92405220","test","2","prime_negative","24","1","2","0","2374","63","33"
"092320","01:22:24","92405220","test","2","prime_positive","25","9","6","1","1106","66","33"
"092320","01:22:24","92405220","test","2","prime_negative","26","7","42","0","1093","66","30"
"092320","01:22:24","92405220","test","2","prime_negative","27","12","49","1","2895","66","35"
"092320","01:22:24","92405220","test","2","prime_negative","28","5","58","1","957","66","40"
"092320","01:22:24","92405220","test","2","prime_negative","29","9","40","1","1117","66","43"
"092320","01:22:24","92405220","test","2","prime_negative","30","4","21","0","747","66","41"
"092320","01:22:24","92405220","test","2","prime_negative","31","3","66","1","951","66","44"
"092320","01:22:24","92405220","test","2","prime_negative","32","10","59","0","662","66","42"
"092320","01:22:24","92405220","test","2","prime_positive","33","11","39","1","920","69","42"
"092320","01:22:24","92405220","test","2","prime_positive","34","5","15","1","3044","71","42"
"092320","01:22:24","92405220","test","2","prime_positive","35","1","70","0","898","66","42"
"092320","01:22:24","92405220","test","2","prime_positive","36","3","24","1","1749","68","42"
"092320","01:22:24","92405220","test","2","prime_negative","37","3","45","0","1376","68","40"
"092320","01:22:24","92405220","test","2","prime_positive","38","8","29","1","2486","70","40"
"092320","01:22:24","92405220","test","2","prime_negative","39","6","57","1","1606","70","42"
"092320","01:22:24","92405220","test","2","prime_negative","40","4","60","0","739","70","40"
"092320","01:22:24","92405220","test","2","prime_positive","41","10","23","0","926","66","40"
"092320","01:22:24","92405220","test","2","prime_positive","42","2","33","1","1160","68","40"
"092320","01:22:24","92405220","test","2","prime_positive","43","12","50","1","2864","70","40"
"092320","01:22:24","92405220","test","2","prime_positive","44","1","69","1","742","71","40"
"092320","01:22:24","92405220","test","2","prime_positive","45","4","28","1","909","72","40"
"092320","01:22:24","92405220","test","2","prime_positive","46","6","46","0","933","69","40"
"092320","01:22:24","92405220","test","2","prime_negative","47","5","56","1","675","69","43"
"092320","01:22:24","92405220","test","2","prime_negative","48","10","27","0","587","69","41"
"092320","01:22:24","92405220","test","2","prime_negative","49","8","12","1","951","69","44"
"092320","01:22:24","92405220","test","2","prime_negative","50","12","25","0","1135","69","42"
"092320","01:22:24","92405220","test","2","prime_negative","51","11","71","1","563","69","44"
"092320","01:22:24","92405220","test","2","prime_positive","52","10","36","0","185","66","44"
"092320","01:22:24","92405220","test","2","prime_positive","53","8","53","1","870","68","44"
"092320","01:22:24","92405220","test","2","prime_negative","54","2","18","1","621","68","46"
"092320","01:22:24","92405220","test","2","prime_negative","55","7","7","1","869","68","48"
"092320","01:22:24","92405220","test","2","prime_positive","56","7","3","1","512","69","48"
"092320","01:22:24","92405220","test","2","prime_positive","57","3","65","1","761","70","48"
"092320","01:22:24","92405220","test","2","prime_positive","58","5","44","1","630","71","48"
"092320","01:22:24","92405220","test","2","prime_negative","59","9","64","1","866","71","50"
"092320","01:22:24","92405220","test","2","prime_positive","60","2","26","0","792","68","50"
"092320","01:22:24","92405220","test","2","prime_negative","61","1","13","1","1339","68","51"
"092320","01:22:24","92405220","test","2","prime_negative","62","5","41","1","1655","68","53"
"092320","01:22:24","92405220","test","2","prime_positive","63","11","5","0","1386","66","53"
"092320","01:22:24","92405220","test","2","prime_negative","64","8","14","1","562","66","54"
"092320","01:22:24","92405220","test","2","prime_positive","65","9","59","1","835","67","54"
"092320","01:22:24","92405220","test","2","prime_positive","66","9","21","1","702","68","54"
"092320","01:22:24","92405220","test","2","prime_negative","67","2","70","1","1218","68","55"
"092320","01:22:24","92405220","test","2","prime_positive","68","3","26","0","596","66","55"
"092320","01:22:24","92405220","test","2","prime_positive","69","5","63","0","862","64","55"
"092320","01:22:24","92405220","test","2","prime_negative","70","10","45","1","936","64","57"
"092320","01:22:24","92405220","test","2","prime_positive","71","8","41","1","917","65","57"
"092320","01:22:24","92405220","test","2","prime_positive","72","6","30","0","789","63","57"
"092320","01:22:24","92405220","test","2","prime_negative","73","4","48","1","821","63","58"
"092320","00:25:22","778956781","practice","1","prime_negative_practice","4","0","0","1","2529","0","0"
"092320","00:25:22","778956781","practice","1","prime_negative_practice","5","0","0","0","969","0","0"
"092320","00:25:22","778956781","practice","1","prime_positive_practice","6","0","0","1","848","0","0"
"092320","00:25:22","778956781","practice","1","prime_negative_practice","7","0","0","1","1772","0","0"
"092320","00:25:22","778956781","practice","1","prime_positive_practice","8","0","0","0","1626","0","0"
"092320","00:25:22","778956781","practice","1","prime_positive_practice","9","0","0","1","743","0","0"
"092320","00:25:22","778956781","practice","1","prime_negative_practice","10","0","0","0","1703","0","0"
"092320","00:25:22","778956781","practice","1","prime_positive_practice","11","0","0","1","688","0","0"
"092320","00:25:22","778956781","practice","1","prime_positive_practice","12","0","0","1","915","0","0"
"092320","00:25:22","778956781","practice","1","prime_negative_practice","13","0","0","1","908","0","0"
"092320","00:25:22","778956781","test","2","prime_positive","2","9","69","1","607","100","0"
"092320","00:25:22","778956781","test","2","prime_negative","3","11","57","1","740","100","100"
"092320","00:25:22","778956781","test","2","prime_negative","4","10","13","1","932","100","100"
"092320","00:25:22","778956781","test","2","prime_positive","5","11","47","1","716","100","100"
"092320","00:25:22","778956781","test","2","prime_positive","6","12","17","1","1133","100","100"
"092320","00:25:22","778956781","test","2","prime_positive","7","7","50","0","1230","75","100"
"092320","00:25:22","778956781","test","2","prime_positive","8","2","38","0","1130","60","100"
"092320","00:25:22","778956781","test","2","prime_positive","9","4","44","1","938","66","100"
"092320","00:25:22","778956781","test","2","prime_negative","10","7","63","0","1107","66","66"
"092320","00:25:22","778956781","test","2","prime_negative","11","6","32","1","636","66","75"
"092320","00:25:22","778956781","test","2","prime_negative","12","12","16","1","880","66","80"
"092320","00:25:22","778956781","test","2","prime_positive","13","1","29","1","907","71","80"
"092320","00:25:22","778956781","test","2","prime_negative","14","2","34","0","740","71","66"
"092320","00:25:22","778956781","test","2","prime_negative","15","4","26","0","835","71","57"
"092320","00:25:22","778956781","test","2","prime_negative","16","8","19","1","944","71","62"
"092320","00:25:22","778956781","test","2","prime_positive","17","2","54","1","984","75","62"
"092320","00:25:22","778956781","test","2","prime_positive","18","5","8","1","679","77","62"
"092320","00:25:22","778956781","test","2","prime_negative","19","9","25","1","1385","77","66"
"092320","00:25:22","778956781","test","2","prime_positive","20","3","14","1","816","80","66"
"092320","00:25:22","778956781","test","2","prime_negative","21","3","24","0","525","80","60"
"092320","00:25:22","778956781","test","2","prime_negative","22","10","7","0","918","80","54"
"092320","00:25:22","778956781","test","2","prime_positive","23","9","55","0","975","72","54"
"092320","00:25:22","778956781","test","2","prime_positive","24","1","49","1","502","75","54"
"092320","00:25:22","778956781","test","2","prime_positive","25","7","65","1","776","76","54"
"092320","00:25:22","778956781","test","2","prime_negative","26","4","72","1","855","76","58"
"092320","00:25:22","778956781","test","2","prime_positive","27","6","28","1","723","78","58"
"092320","00:25:22","778956781","test","2","prime_positive","28","12","27","1","756","80","58"
"092320","00:25:22","778956781","test","2","prime_negative","29","5","52","1","1204","80","61"
"092320","00:25:22","778956781","test","2","prime_positive","30","11","58","1","881","81","61"
"092320","00:25:22","778956781","test","2","prime_positive","31","10","12","1","804","82","61"
"092320","00:25:22","778956781","test","2","prime_negative","32","2","30","1","1042","82","64"
"092320","00:25:22","778956781","test","2","prime_negative","33","11","71","0","630","82","60"
"092320","00:25:22","778956781","test","2","prime_negative","34","1","1","0","586","82","56"
"092320","00:25:22","778956781","test","2","prime_negative","35","12","15","1","849","82","58"
"092320","00:25:22","778956781","test","2","prime_negative","36","6","53","1","813","82","61"
"092320","00:25:22","778956781","test","2","prime_positive","37","4","18","1","938","83","61"
"092320","00:25:22","778956781","test","2","prime_negative","38","7","23","0","810","83","57"
"092320","00:25:22","778956781","test","2","prime_negative","39","1","70","0","824","83","55"
"092320","00:25:22","778956781","test","2","prime_positive","40","8","64","1","661","84","55"
"092320","00:25:22","778956781","test","2","prime_negative","41","10","21","1","697","84","57"
"092320","00:25:22","778956781","test","2","prime_positive","42","8","46","1","811","85","57"
"092320","00:25:22","778956781","test","2","prime_positive","43","6","5","1","1016","85","57"
"092320","00:25:22","778956781","test","2","prime_positive","44","3","31","1","653","86","57"
"092320","00:25:22","778956781","test","2","prime_positive","45","1","60","1","689","86","57"
"092320","00:25:22","778956781","test","2","prime_negative","46","5","2","0","652","86","54"
"092320","00:25:22","778956781","test","2","prime_positive","47","11","68","1","623","87","54"
"092320","00:25:22","778956781","test","2","prime_negative","48","7","3","1","725","87","56"
"092320","00:25:22","778956781","test","2","prime_negative","49","4","20","1","662","87","58"
"092320","00:25:22","778956781","test","2","prime_positive","50","12","11","1","953","88","58"
"092320","00:25:22","778956781","test","2","prime_positive","51","10","67","0","753","84","58"
"092320","00:25:22","778956781","test","2","prime_negative","52","8","45","0","561","84","56"
"092320","00:25:22","778956781","test","2","prime_negative","53","12","37","1","825","84","57"
"092320","00:25:22","778956781","test","2","prime_positive","54","7","42","1","718","85","57"
"092320","00:25:22","778956781","test","2","prime_positive","55","9","41","1","687","85","57"
"092320","00:25:22","778956781","test","2","prime_negative","56","6","51","1","1073","85","59"
"092320","00:25:22","778956781","test","2","prime_negative","57","11","22","0","724","85","57"
"092320","00:25:22","778956781","test","2","prime_positive","58","4","48","1","726","86","57"
"092320","00:25:22","778956781","test","2","prime_negative","59","3","61","0","631","86","55"
"092320","00:25:22","778956781","test","2","prime_negative","60","2","36","0","587","86","53"
"092320","00:25:22","778956781","test","2","prime_positive","61","5","56","1","434","86","53"
"092320","00:25:22","778956781","test","2","prime_positive","62","2","43","0","934","83","53"
"092320","00:25:22","778956781","test","2","prime_negative","63","9","66","1","559","83","54"
"092320","00:25:22","778956781","test","2","prime_negative","64","10","20","1","1462","83","56"
"092320","00:25:22","778956781","test","2","prime_positive","65","12","45","0","1065","81","56"
"092320","00:25:22","778956781","test","2","prime_positive","66","9","60","1","556","81","56"
"092320","00:25:22","778956781","test","2","prime_negative","67","1","36","1","980","81","57"
"092320","00:25:22","778956781","test","2","prime_positive","68","3","6","1","1163","82","57"
"092320","00:25:22","778956781","test","2","prime_positive","69","1","59","1","690","82","57"
"092320","00:25:22","778956781","test","2","prime_positive","70","2","38","0","501","80","57"
"092320","00:25:22","778956781","test","2","prime_negative","71","6","16","1","655","80","58"
"092320","00:25:22","778956781","test","2","prime_negative","72","8","23","0","466","80","57"
"092320","00:25:22","778956781","test","2","prime_negative","73","5","32","1","526","80","58"
"092320","08:56:38","268701990","practice","1","prime_negative_practice","4","0","0","1","2935","0","0"
"092320","08:56:38","268701990","practice","1","prime_negative_practice","5","0","0","1","1134","0","0"
"092320","08:56:38","268701990","practice","1","prime_positive_practice","6","0","0","1","1009","0","0"
"092320","08:56:38","268701990","practice","1","prime_positive_practice","7","0","0","0","559","0","0"
"092320","08:56:38","268701990","practice","1","prime_negative_practice","8","0","0","1","515","0","0"
"092320","08:56:38","268701990","practice","1","prime_positive_practice","9","0","0","0","358","0","0"
"092320","08:56:38","268701990","practice","1","prime_negative_practice","10","0","0","1","434","0","0"
"092320","08:56:38","268701990","practice","1","prime_positive_practice","11","0","0","0","331","0","0"
"092320","08:56:38","268701990","practice","1","prime_positive_practice","12","0","0","1","189","0","0"
"092320","08:56:38","268701990","practice","1","prime_negative_practice","13","0","0","1","144","0","0"
"092320","08:56:38","268701990","test","2","prime_negative","2","1","63","1","2377","0","100"
"092320","08:56:38","268701990","test","2","prime_positive","3","8","23","0","793","0","100"
"092320","08:56:38","268701990","test","2","prime_negative","4","5","19","1","300","0","100"
"092320","08:56:38","268701990","test","2","prime_negative","5","2","40","0","428","0","66"
"092320","08:56:38","268701990","test","2","prime_positive","6","3","62","0","516","0","66"
"092320","08:56:38","268701990","test","2","prime_positive","7","5","21","0","552","0","66"
"092320","08:56:38","268701990","test","2","prime_negative","8","6","12","1","878","0","75"
"092320","08:56:38","268701990","test","2","prime_positive","9","1","44","0","348","0","75"
"092320","08:56:38","268701990","test","2","prime_positive","10","4","24","0","813","0","75"
"092320","08:56:38","268701990","test","2","prime_positive","11","10","1","1","417","16","75"
"092320","08:56:38","268701990","test","2","prime_positive","12","2","30","0","262","14","75"
"092320","08:56:38","268701990","test","2","prime_positive","13","4","57","0","420","12","75"
"092320","08:56:38","268701990","test","2","prime_positive","14","7","32","1","566","22","75"
"092320","08:56:38","268701990","test","2","prime_positive","15","5","3","0","293","20","75"
"092320","08:56:38","268701990","test","2","prime_negative","16","11","68","1","409","20","80"
"092320","08:56:38","268701990","test","2","prime_negative","17","10","42","1","365","20","83"
"092320","08:56:38","268701990","test","2","prime_positive","18","9","45","0","367","18","83"
"092320","08:56:38","268701990","test","2","prime_positive","19","11","72","0","306","16","83"
"092320","08:56:38","268701990","test","2","prime_negative","20","9","26","1","319","16","85"
"092320","08:56:38","268701990","test","2","prime_positive","21","2","22","0","260","15","85"
"092320","08:56:38","268701990","test","2","prime_negative","22","12","59","1","290","15","87"
"092320","08:56:38","268701990","test","2","prime_negative","23","4","6","0","248","15","77"
"092320","08:56:38","268701990","test","2","prime_negative","24","8","25","1","150","15","80"
"092320","08:56:38","268701990","test","2","prime_negative","25","6","17","1","341","15","81"
"092320","08:56:38","268701990","test","2","prime_negative","26","5","15","0","452","15","75"
"092320","08:56:38","268701990","test","2","prime_negative","27","1","38","1","1635","15","76"
"092320","08:56:38","268701990","test","2","prime_positive","28","12","5","0","457","14","76"
"092320","08:56:38","268701990","test","2","prime_positive","29","3","70","0","474","13","76"
"092320","08:56:38","268701990","test","2","prime_positive","30","1","28","0","386","12","76"
"092320","08:56:38","268701990","test","2","prime_negative","31","3","55","1","416","12","78"
"092320","08:56:38","268701990","test","2","prime_negative","32","11","58","1","398","12","80"
"092320","08:56:38","268701990","test","2","prime_positive","33","10","51","0","351","11","80"
"092320","08:56:38","268701990","test","2","prime_negative","34","10","7","1","440","11","81"
"092320","08:56:38","268701990","test","2","prime_negative","35","7","13","1","318","11","82"
"092320","08:56:38","268701990","test","2","prime_positive","36","6","71","0","317","11","82"
"092320","08:56:38","268701990","test","2","prime_positive","37","8","27","1","323","15","82"
"092320","08:56:38","268701990","test","2","prime_negative","38","9","61","1","365","15","83"
"092320","08:56:38","268701990","test","2","prime_negative","39","2","34","1","235","15","84"
"092320","08:56:38","268701990","test","2","prime_negative","40","5","69","1","233","15","85"
"092320","08:56:38","268701990","test","2","prime_positive","41","3","48","0","353","15","85"
"092320","08:56:38","268701990","test","2","prime_positive","42","9","37","1","309","19","85"
"092320","08:56:38","268701990","test","2","prime_negative","43","9","65","1","458","19","85"
"092320","08:56:38","268701990","test","2","prime_positive","44","4","16","1","1332","22","85"
"092320","08:56:38","268701990","test","2","prime_positive","45","11","8","0","236","21","85"
"092320","08:56:38","268701990","test","2","prime_negative","46","6","50","1","247","21","86"
"092320","08:56:38","268701990","test","2","prime_negative","47","8","10","1","259","21","86"
"092320","08:56:38","268701990","test","2","prime_positive","48","6","46","0","416","20","86"
"092320","08:56:38","268701990","test","2","prime_positive","49","10","9","0","296","20","86"
"092320","08:56:38","268701990","test","2","prime_negative","50","10","18","1","339","20","87"
"092320","08:56:38","268701990","test","2","prime_negative","51","1","54","0","11","20","84"
"092320","08:56:38","268701990","test","2","prime_positive","52","1","11","0","2089","19","84"
"092320","08:56:38","268701990","test","2","prime_positive","53","8","56","1","896","22","84"
"092320","08:56:38","268701990","test","2","prime_negative","54","12","66","0","387","22","80"
"092320","08:56:38","268701990","test","2","prime_negative","55","11","47","0","433","22","77"
"092320","08:56:38","268701990","test","2","prime_positive","56","5","35","1","467","25","77"
"092320","08:56:38","268701990","test","2","prime_negative","57","3","67","0","312","25","75"
"092320","08:56:38","268701990","test","2","prime_positive","58","7","2","1","539","27","75"
"092320","08:56:38","268701990","test","2","prime_negative","59","2","49","0","397","27","72"
"092320","08:56:38","268701990","test","2","prime_negative","60","4","20","1","950","27","73"
"092320","08:56:38","268701990","test","2","prime_positive","61","12","31","1","850","30","73"
"092320","08:56:38","268701990","test","2","prime_negative","62","7","36","0","326","30","70"
"092320","08:56:38","268701990","test","2","prime_positive","63","2","29","1","312","32","70"
"092320","08:56:38","268701990","test","2","prime_positive","64","3","43","1","246","34","70"
"092320","08:56:38","268701990","test","2","prime_negative","65","8","38","1","773","34","71"
"092320","08:56:38","268701990","test","2","prime_positive","66","5","1","1","313","36","71"
"092320","08:56:38","268701990","test","2","prime_negative","67","10","35","0","283","36","69"
"092320","08:56:38","268701990","test","2","prime_positive","68","10","47","1","310","38","69"
"092320","08:56:38","268701990","test","2","prime_negative","69","7","3","0","494","38","67"
"092320","08:56:38","268701990","test","2","prime_positive","70","8","21","1","453","40","67"
"092320","08:56:38","268701990","test","2","prime_negative","71","4","23","1","613","40","68"
"092320","08:56:38","268701990","test","2","prime_positive","72","7","29","1","338","41","68"
"092320","08:56:38","268701990","test","2","prime_negative","73","9","69","0","397","41","66"
"092320","11:25:04","536938680","practice","1","prime_positive_practice","4","0","0","0","5793","0","0"
"092320","11:25:04","536938680","practice","1","prime_negative_practice","5","0","0","0","1982","0","0"
"092320","11:25:04","536938680","practice","1","prime_positive_practice","6","0","0","1","1344","0","0"
"092320","11:25:04","536938680","practice","1","prime_positive_practice","7","0","0","1","821","0","0"
"092320","11:25:04","536938680","practice","1","prime_negative_practice","8","0","0","1","840","0","0"
"092320","11:25:04","536938680","practice","1","prime_positive_practice","9","0","0","1","596","0","0"
"092320","11:25:04","536938680","practice","1","prime_positive_practice","10","0","0","1","1503","0","0"
"092320","11:25:04","536938680","practice","1","prime_negative_practice","11","0","0","0","934","0","0"
"092320","11:25:04","536938680","practice","1","prime_negative_practice","12","0","0","0","793","0","0"
"092320","11:25:04","536938680","practice","1","prime_negative_practice","13","0","0","0","1421","0","0"
"092320","11:25:04","536938680","test","2","prime_negative","2","11","14","1","659","0","100"
"092320","11:25:04","536938680","test","2","prime_positive","3","3","16","1","476","100","100"
"092320","11:25:04","536938680","test","2","prime_positive","4","9","21","1","686","100","100"
"092320","11:25:04","536938680","test","2","prime_negative","5","4","31","0","471","100","50"
"092320","11:25:04","536938680","test","2","prime_positive","6","10","2","1","1088","100","50"
"092320","11:25:04","536938680","test","2","prime_positive","7","2","57","1","680","100","50"
"092320","11:25:04","536938680","test","2","prime_positive","8","4","9","1","752","100","50"
"092320","11:25:04","536938680","test","2","prime_negative","9","3","34","0","686","100","33"
"092320","11:25:04","536938680","test","2","prime_positive","10","12","70","1","550","100","33"
"092320","11:25:04","536938680","test","2","prime_negative","11","2","39","0","525","100","25"
"092320","11:25:04","536938680","test","2","prime_negative","12","10","29","0","916","100","20"
"092320","11:25:04","536938680","test","2","prime_negative","13","5","23","1","747","100","33"
"092320","11:25:04","536938680","test","2","prime_positive","14","11","41","1","642","100","33"
"092320","11:25:04","536938680","test","2","prime_positive","15","10","30","1","878","100","33"
"092320","11:25:04","536938680","test","2","prime_positive","16","11","27","1","650","100","33"
"092320","11:25:04","536938680","test","2","prime_negative","17","6","48","1","672","100","42"
"092320","11:25:04","536938680","test","2","prime_positive","18","8","8","1","618","100","42"
"092320","11:25:04","536938680","test","2","prime_negative","19","11","69","1","734","100","50"
"092320","11:25:04","536938680","test","2","prime_negative","20","3","45","0","425","100","44"
"092320","11:25:04","536938680","test","2","prime_negative","21","10","20","0","765","100","40"
"092320","11:25:04","536938680","test","2","prime_negative","22","9","13","0","787","100","36"
"092320","11:25:04","536938680","test","2","prime_negative","23","4","71","0","656","100","33"
"092320","11:25:04","536938680","test","2","prime_negative","24","12","58","0","874","100","30"
"092320","11:25:04","536938680","test","2","prime_negative","25","5","65","1","588","100","35"
"092320","11:25:04","536938680","test","2","prime_positive","26","12","46","1","489","100","35"
"092320","11:25:04","536938680","test","2","prime_negative","27","6","25","0","963","100","33"
"092320","11:25:04","536938680","test","2","prime_negative","28","2","55","0","776","100","31"
"092320","11:25:04","536938680","test","2","prime_positive","29","6","17","1","566","100","31"
"092320","11:25:04","536938680","test","2","prime_negative","30","1","26","0","532","100","29"
"092320","11:25:04","536938680","test","2","prime_negative","31","8","50","0","660","100","27"
"092320","11:25:04","536938680","test","2","prime_positive","32","9","11","1","558","100","27"
"092320","11:25:04","536938680","test","2","prime_positive","33","4","6","1","1436","100","27"
"092320","11:25:04","536938680","test","2","prime_positive","34","2","19","1","991","100","27"
"092320","11:25:04","536938680","test","2","prime_negative","35","7","54","1","644","100","31"
"092320","11:25:04","536938680","test","2","prime_negative","36","1","18","0","431","100","30"
"092320","11:25:04","536938680","test","2","prime_positive","37","1","1","1","548","100","30"
"092320","11:25:04","536938680","test","2","prime_negative","38","8","38","0","405","100","28"
"092320","11:25:04","536938680","test","2","prime_positive","39","7","35","1","530","100","28"
"092320","11:25:04","536938680","test","2","prime_positive","40","5","37","1","689","100","28"
"092320","11:25:04","536938680","test","2","prime_positive","41","3","63","1","634","100","28"
"092320","11:25:04","536938680","test","2","prime_negative","42","12","62","0","901","100","27"
"092320","11:25:04","536938680","test","2","prime_positive","43","12","52","1","382","100","27"
"092320","11:25:04","536938680","test","2","prime_positive","44","11","4","1","523","100","27"
"092320","11:25:04","536938680","test","2","prime_negative","45","10","10","0","459","100","26"
"092320","11:25:04","536938680","test","2","prime_positive","46","1","12","1","462","100","26"
"092320","11:25:04","536938680","test","2","prime_positive","47","10","53","1","672","100","26"
"092320","11:25:04","536938680","test","2","prime_negative","48","11","47","1","690","100","29"
"092320","11:25:04","536938680","test","2","prime_positive","49","6","67","1","547","100","29"
"092320","11:25:04","536938680","test","2","prime_negative","50","6","59","0","497","100","28"
"092320","11:25:04","536938680","test","2","prime_negative","51","3","49","0","538","100","26"
"092320","11:25:04","536938680","test","2","prime_positive","52","5","72","1","1065","100","26"
"092320","11:25:04","536938680","test","2","prime_positive","53","8","32","1","418","100","26"
"092320","11:25:04","536938680","test","2","prime_positive","54","4","33","1","526","100","26"
"092320","11:25:04","536938680","test","2","prime_negative","55","5","36","1","678","100","29"
"092320","11:25:04","536938680","test","2","prime_negative","56","2","15","0","424","100","28"
"092320","11:25:04","536938680","test","2","prime_positive","57","7","7","1","496","100","28"
"092320","11:25:04","536938680","test","2","prime_negative","58","4","3","0","829","100","27"
"092320","11:25:04","536938680","test","2","prime_positive","59","2","42","1","571","100","27"
"092320","11:25:04","536938680","test","2","prime_negative","60","7","40","1","665","100","30"
"092320","11:25:04","536938680","test","2","prime_positive","61","9","60","1","499","100","30"
"092320","11:25:04","536938680","test","2","prime_negative","62","9","61","0","516","100","29"
"092320","11:25:04","536938680","test","2","prime_negative","63","7","28","1","460","100","31"
"092320","11:25:04","536938680","test","2","prime_positive","64","3","23","1","542","100","31"
"092320","11:25:04","536938680","test","2","prime_positive","65","9","46","1","509","100","31"
"092320","11:25:04","536938680","test","2","prime_positive","66","11","63","1","703","100","31"
"092320","11:25:04","536938680","test","2","prime_negative","67","2","22","0","471","100","30"
"092320","11:25:04","536938680","test","2","prime_positive","68","3","12","1","425","100","30"
"092320","11:25:04","536938680","test","2","prime_negative","69","1","28","0","365","100","29"
"092320","11:25:04","536938680","test","2","prime_positive","70","6","36","1","483","100","29"
"092320","11:25:04","536938680","test","2","prime_negative","71","12","2","0","540","100","28"
"092320","11:25:04","536938680","test","2","prime_negative","72","9","29","0","516","100","27"
"092320","11:25:04","536938680","test","2","prime_positive","73","2","9","1","499","100","27"
"092320","00:28:14","710251621","practice","1","prime_positive_practice","4","0","0","0","3917","0","0"
"092320","00:28:14","710251621","practice","1","prime_negative_practice","5","0","0","1","3871","0","0"
"092320","00:28:14","710251621","practice","1","prime_positive_practice","6","0","0","1","1324","0","0"
"092320","00:28:14","710251621","practice","1","prime_negative_practice","7","0","0","0","755","0","0"
"092320","00:28:14","710251621","practice","1","prime_negative_practice","8","0","0","0","787","0","0"
"092320","00:28:14","710251621","practice","1","prime_negative_practice","9","0","0","1","1019","0","0"
"092320","00:28:14","710251621","practice","1","prime_negative_practice","10","0","0","0","489","0","0"
"092320","00:28:14","710251621","practice","1","prime_positive_practice","11","0","0","0","1447","0","0"
"092320","00:28:14","710251621","practice","1","prime_positive_practice","12","0","0","1","638","0","0"
"092320","00:28:14","710251621","practice","1","prime_positive_practice","13","0","0","0","809","0","0"
"092320","00:28:14","710251621","test","2","prime_positive","2","2","31","0","366","0","0"
"092320","00:28:14","710251621","test","2","prime_negative","3","1","2","0","366","0","0"
"092320","00:28:14","710251621","test","2","prime_negative","4","3","47","0","244","0","0"
"092320","00:28:14","710251621","test","2","prime_positive","5","10","69","0","381","0","0"
"092320","00:28:14","710251621","test","2","prime_negative","6","4","15","0","260","0","0"
"092320","00:28:14","710251621","test","2","prime_positive","7","5","39","1","460","33","0"
"092320","00:28:14","710251621","test","2","prime_positive","8","4","25","1","362","50","0"
"092320","00:28:14","710251621","test","2","prime_positive","9","11","48","1","677","60","0"
"092320","00:28:14","710251621","test","2","prime_negative","10","8","8","0","504","60","0"
"092320","00:28:14","710251621","test","2","prime_negative","11","12","45","0","622","60","0"
"092320","00:28:14","710251621","test","2","prime_positive","12","1","66","1","508","66","0"
"092320","00:28:14","710251621","test","2","prime_positive","13","8","35","1","540","71","0"
"092320","00:28:14","710251621","test","2","prime_negative","14","7","59","0","677","71","0"
"092320","00:28:14","710251621","test","2","prime_positive","15","8","34","1","363","75","0"
"092320","00:28:14","710251621","test","2","prime_negative","16","9","41","0","401","75","0"
"092320","00:28:14","710251621","test","2","prime_positive","17","2","17","0","197","66","0"
"092320","00:28:14","710251621","test","2","prime_positive","18","4","20","0","125","60","0"
"092320","00:28:14","710251621","test","2","prime_positive","19","12","19","0","779","54","0"
"092320","00:28:14","710251621","test","2","prime_negative","20","8","61","0","255","54","0"
"092320","00:28:14","710251621","test","2","prime_negative","21","9","24","0","263","54","0"
"092320","00:28:14","710251621","test","2","prime_positive","22","7","70","1","288","58","0"
"092320","00:28:14","710251621","test","2","prime_positive","23","9","29","1","785","61","0"
"092320","00:28:14","710251621","test","2","prime_negative","24","1","37","0","290","61","0"
"092320","00:28:14","710251621","test","2","prime_positive","25","5","63","1","321","64","0"
"092320","00:28:14","710251621","test","2","prime_positive","26","6","65","0","275","60","0"
"092320","00:28:14","710251621","test","2","prime_negative","27","4","21","0","223","60","0"
"092320","00:28:14","710251621","test","2","prime_negative","28","12","33","0","250","60","0"
"092320","00:28:14","710251621","test","2","prime_positive","29","10","18","0","211","56","0"
"092320","00:28:14","710251621","test","2","prime_positive","30","1","1","0","225","52","0"
"092320","00:28:14","710251621","test","2","prime_negative","31","7","38","0","315","52","0"
"092320","00:28:14","710251621","test","2","prime_negative","32","2","7","0","249","52","0"
"092320","00:28:14","710251621","test","2","prime_negative","33","3","64","0","141","52","0"
"092320","00:28:14","710251621","test","2","prime_negative","34","10","23","0","75","52","0"
"092320","00:28:14","710251621","test","2","prime_negative","35","6","13","0","71","52","0"
"092320","00:28:14","710251621","test","2","prime_positive","36","11","72","1","449","55","0"
"092320","00:28:14","710251621","test","2","prime_negative","37","11","32","0","254","55","0"
"092320","00:28:14","710251621","test","2","prime_positive","38","3","3","1","264","57","0"
"092320","00:28:14","710251621","test","2","prime_positive","39","3","68","1","132","60","0"
"092320","00:28:14","710251621","test","2","prime_negative","40","5","10","0","322","60","0"
"092320","00:28:14","710251621","test","2","prime_negative","41","3","62","0","245","60","0"
