"date","time","subject","blockcode","blocknum","trialcode","trialnum","values.primestim","values.targetstim","correct","latency","trial.prime_positive.totalpercentcorrect","trial.prime_negative.totalpercentcorrect"
"081519","12:58:36","728585322","practice","1","prime_negative_practice","3","0","0","0","100","0","0"
"081519","12:58:36","728585322","practice","1","intention_check_negative_practice","4","0","0","0","2500","0","0"
"081519","12:58:36","728585322","practice","1","mask_prime_negative_practice","5","0","0","1","2965","0","0"
"081519","12:58:36","728585322","test","2","prime_positive","2","0","0","0","100","0","0"
"081519","12:58:36","728585322","test","2","intention_check_positive","3","0","0","0","2500","0","0"
"081519","12:58:36","728585322","test","2","mask_prime_positive","4","2","43","0","4024","0","0"
"081519","12:58:36","728585322","test","2","prime_negative","5","2","43","0","100","0","0"
"081519","12:58:36","728585322","test","2","intention_check_negative","6","2","43","1","556","0","0"
"081519","12:58:36","728585322","test","2","mask_prime_negative","7","2","72","0","738","0","0"
"081519","12:58:36","728585322","test","2","prime_negative","8","2","72","0","100","0","0"
"081519","12:58:36","728585322","test","2","intention_check_negative","9","2","72","1","849","0","0"
"081519","12:58:36","728585322","test","2","mask_prime_negative","10","5","32","1","2347","0","0"
"081519","12:32:03","905579695","practice","1","prime_positive_practice","3","0","0","0","100","0","0"
"081519","12:32:03","905579695","practice","1","intention_check_positive_practice","4","0","0","0","2500","0","0"
"081519","12:32:03","905579695","practice","1","mask_prime_positive_practice","5","0","0","1","3042","0","0"
"081519","12:32:03","905579695","practice","1","prime_positive_practice","6","0","0","0","100","0","0"
"081519","12:32:03","905579695","practice","1","intention_check_positive_practice","7","0","0","0","2500","0","0"
"081519","12:32:03","905579695","practice","1","mask_prime_positive_practice","8","0","0","0","1169","0","0"
"081519","12:32:03","905579695","practice","1","prime_negative_practice","9","0","0","0","100","0","0"
"081519","12:32:03","905579695","practice","1","intention_check_negative_practice","10","0","0","0","2500","0","0"
"081519","12:32:03","905579695","practice","1","mask_prime_negative_practice","11","0","0","1","163","0","0"
"081519","12:32:03","905579695","practice","1","prime_positive_practice","12","0","0","0","100","0","0"
"081519","12:32:03","905579695","practice","1","intention_check_positive_practice","13","0","0","0","2500","0","0"
"081519","12:32:03","905579695","practice","1","mask_prime_positive_practice","14","0","0","1","91","0","0"
"081519","12:32:03","905579695","practice","1","prime_positive_practice","15","0","0","0","100","0","0"
"081519","12:32:03","905579695","practice","1","intention_check_positive_practice","16","0","0","1","1311","0","0"
"081519","12:32:03","905579695","practice","1","mask_prime_positive_practice","17","0","0","1","2885","0","0"
"081519","12:32:03","905579695","practice","1","prime_negative_practice","18","0","0","0","100","0","0"
"081519","12:32:03","905579695","practice","1","intention_check_negative_practice","19","0","0","0","2500","0","0"
"081519","12:32:03","905579695","practice","1","mask_prime_negative_practice","20","0","0","0","3799","0","0"
"081519","12:32:03","905579695","practice","1","prime_positive_practice","21","0","0","0","100","0","0"
"081519","12:32:03","905579695","practice","1","intention_check_positive_practice","22","0","0","0","2500","0","0"
"081519","12:32:03","905579695","practice","1","mask_prime_positive_practice","23","0","0","0","860","0","0"
"081519","12:32:03","905579695","practice","1","prime_negative_practice","24","0","0","0","100","0","0"
"081519","12:32:03","905579695","practice","1","intention_check_negative_practice","25","0","0","0","2500","0","0"
"081519","12:32:03","905579695","practice","1","mask_prime_negative_practice","26","0","0","1","1176","0","0"
"081519","12:32:03","905579695","practice","1","prime_negative_practice","27","0","0","0","100","0","0"
"081519","12:32:03","905579695","practice","1","intention_check_negative_practice","28","0","0","1","902","0","0"
"081519","12:32:03","905579695","practice","1","mask_prime_negative_practice","29","0","0","0","2368","0","0"
"081519","12:32:03","905579695","practice","1","prime_negative_practice","30","0","0","0","100","0","0"
"081519","12:32:03","905579695","practice","1","intention_check_negative_practice","31","0","0","0","2500","0","0"
"081519","12:32:03","905579695","practice","1","mask_prime_negative_practice","32","0","0","0","808","0","0"
"081519","12:32:03","905579695","test","2","prime_negative","2","0","0","0","100","0","0"
"081519","12:32:03","905579695","test","2","intention_check_negative","3","0","0","0","2500","0","0"
"081519","12:32:03","905579695","test","2","mask_prime_negative","4","2","43","0","366","0","0"
"081519","12:32:03","905579695","test","2","prime_negative","5","2","43","0","100","0","0"
"081519","12:32:03","905579695","test","2","intention_check_negative","6","2","43","0","2500","0","0"
"081519","12:32:03","905579695","test","2","mask_prime_negative","7","10","4","1","389","0","0"
"081519","12:32:03","905579695","test","2","prime_positive","8","10","4","0","100","0","0"
"081519","12:32:03","905579695","test","2","intention_check_positive","9","10","4","0","2500","0","0"
"081519","12:32:03","905579695","test","2","mask_prime_positive","10","6","27","1","292","0","0"
"081519","12:32:03","905579695","test","2","prime_positive","11","6","27","0","100","0","0"
"081519","12:32:03","905579695","test","2","intention_check_positive","12","6","27","1","1506","0","0"
"081519","12:32:03","905579695","test","2","mask_prime_positive","13","9","8","0","2418","0","0"
"081519","12:32:03","905579695","test","2","prime_positive","14","9","8","0","100","0","0"
"081519","12:32:03","905579695","test","2","intention_check_positive","15","9","8","0","2500","0","0"
"081519","12:32:03","905579695","test","2","mask_prime_positive","16","12","3","0","363","0","0"
"081519","12:32:03","905579695","test","2","prime_positive","17","12","3","0","100","0","0"
"081519","12:32:03","905579695","test","2","intention_check_positive","18","12","3","1","1115","0","0"
"081519","12:32:03","905579695","test","2","mask_prime_positive","19","8","38","0","1373","0","0"
"081519","12:32:03","905579695","test","2","prime_negative","20","8","38","0","100","0","0"
"081519","12:32:03","905579695","test","2","intention_check_negative","21","8","38","0","2500","0","0"
"081519","12:32:03","905579695","test","2","mask_prime_negative","22","4","34","1","1693","0","0"
"081519","12:32:03","905579695","test","2","prime_positive","23","4","34","0","100","0","0"
"081519","12:32:03","905579695","test","2","intention_check_positive","24","4","34","1","1444","0","0"
"081519","12:32:03","905579695","test","2","mask_prime_positive","25","2","12","1","383","0","0"
"081519","12:32:03","905579695","test","2","prime_positive","26","2","12","0","100","0","0"
"081519","12:32:03","905579695","test","2","intention_check_positive","27","2","12","0","2500","0","0"
"081519","12:32:03","905579695","test","2","mask_prime_positive","28","5","30","1","436","0","0"
"081519","12:32:03","905579695","test","2","prime_positive","29","5","30","0","100","0","0"
"081519","12:32:03","905579695","test","2","intention_check_positive","30","5","30","1","1403","0","0"
"081519","12:32:03","905579695","test","2","mask_prime_positive","31","3","35","1","536","0","0"
"081519","12:32:03","905579695","test","2","prime_positive","32","3","35","0","100","0","0"
"081519","12:32:03","905579695","test","2","intention_check_positive","33","3","35","0","2500","0","0"
"081519","12:32:03","905579695","test","2","mask_prime_positive","34","4","11","0","554","0","0"
"081519","12:32:03","905579695","test","2","prime_positive","35","4","11","0","100","0","0"
"081519","12:32:03","905579695","test","2","intention_check_positive","36","4","11","0","2500","0","0"
"081519","12:32:03","905579695","test","2","mask_prime_positive","37","3","55","1","347","0","0"
"081519","12:32:03","905579695","test","2","prime_negative","38","3","55","0","100","0","0"
"081519","12:32:03","905579695","test","2","intention_check_negative","39","3","55","0","2500","0","0"
"081519","12:32:03","905579695","test","2","mask_prime_negative","40","9","14","0","469","0","0"
"081519","12:32:03","905579695","test","2","prime_negative","41","9","14","0","100","0","0"
"081519","12:32:03","905579695","test","2","intention_check_negative","42","9","14","0","2500","0","0"
"081519","12:32:03","905579695","test","2","mask_prime_negative","43","12","65","1","572","0","0"
"081519","12:32:03","905579695","test","2","prime_negative","44","12","65","0","100","0","0"
"081519","12:32:03","905579695","test","2","intention_check_negative","45","12","65","0","2500","0","0"
"081519","12:32:03","905579695","test","2","mask_prime_negative","46","11","5","1","639","0","0"
"081519","12:32:03","905579695","test","2","prime_negative","47","11","5","0","100","0","0"
"081519","12:32:03","905579695","test","2","intention_check_negative","48","11","5","0","2500","0","0"
"081519","12:32:03","905579695","test","2","mask_prime_negative","49","8","29","1","414","0","0"
"081519","12:32:03","905579695","test","2","prime_negative","50","8","29","0","100","0","0"
"081519","12:32:03","905579695","test","2","intention_check_negative","51","8","29","1","2364","0","0"
"081519","12:32:03","905579695","test","2","mask_prime_negative","52","6","41","0","1395","0","0"
"081519","12:32:03","905579695","test","2","prime_positive","53","6","41","0","100","0","0"
"081519","12:32:03","905579695","test","2","intention_check_positive","54","6","41","0","2500","0","0"
"081519","12:32:03","905579695","test","2","mask_prime_positive","55","6","48","1","378","0","0"
"081519","12:32:03","905579695","test","2","prime_negative","56","6","48","0","100","0","0"
"081519","12:32:03","905579695","test","2","intention_check_negative","57","6","48","0","2500","0","0"
"081519","12:32:03","905579695","test","2","mask_prime_negative","58","8","26","0","416","0","0"
"081519","12:32:03","905579695","test","2","prime_negative","59","8","26","0","100","0","0"
"081519","12:32:03","905579695","test","2","intention_check_negative","60","8","26","0","2500","0","0"
"081519","12:32:03","905579695","test","2","mask_prime_negative","61","4","18","1","387","0","0"
"081519","12:32:03","905579695","test","2","prime_positive","62","4","18","0","100","0","0"
"081519","12:32:03","905579695","test","2","intention_check_positive","63","4","18","1","1477","0","0"
"081519","12:32:03","905579695","test","2","mask_prime_positive","64","10","16","1","619","0","0"
"081519","12:32:03","905579695","test","2","prime_negative","65","10","16","0","100","0","0"
"081519","12:32:03","905579695","test","2","intention_check_negative","66","10","16","0","2500","0","0"
"081519","12:32:03","905579695","test","2","mask_prime_negative","67","12","66","1","1019","0","0"
"081519","12:32:03","905579695","test","2","prime_positive","68","12","66","0","100","0","0"
"081519","12:32:03","905579695","test","2","intention_check_positive","69","12","66","1","864","0","0"
"081519","12:32:03","905579695","test","2","mask_prime_positive","70","12","40","1","516","0","0"
"081519","12:32:03","905579695","test","2","prime_positive","71","12","40","0","100","0","0"
"081519","12:32:03","905579695","test","2","intention_check_positive","72","12","40","1","650","0","0"
"081519","12:32:03","905579695","test","2","mask_prime_positive","73","8","56","1","316","0","0"
"081519","12:32:03","905579695","test","2","prime_positive","74","8","56","0","100","0","0"
"081519","12:32:03","905579695","test","2","intention_check_positive","75","8","56","0","2500","0","0"
"081519","12:32:03","905579695","test","2","mask_prime_positive","76","7","62","0","307","0","0"
"081519","12:32:03","905579695","test","2","prime_negative","77","7","62","0","100","0","0"
"081519","12:32:03","905579695","test","2","intention_check_negative","78","7","62","0","2500","0","0"
"081519","12:32:03","905579695","test","2","mask_prime_negative","79","5","33","0","192","0","0"
"081519","12:32:03","905579695","test","2","prime_negative","80","5","33","0","100","0","0"
"081519","12:32:03","905579695","test","2","intention_check_negative","81","5","33","0","2500","0","0"
"081519","12:32:03","905579695","test","2","mask_prime_negative","82","2","68","0","197","0","0"
"081519","12:32:03","905579695","test","2","prime_negative","83","2","68","0","100","0","0"
"081519","12:32:03","905579695","test","2","intention_check_negative","84","2","68","0","2500","0","0"
"081519","12:32:03","905579695","test","2","mask_prime_negative","85","9","63","0","292","0","0"
"081519","12:32:03","905579695","test","2","prime_negative","86","9","63","0","100","0","0"
"081519","12:32:03","905579695","test","2","intention_check_negative","87","9","63","0","2500","0","0"
"081519","12:32:03","905579695","test","2","mask_prime_negative","88","1","13","0","546","0","0"
"081519","12:32:03","905579695","test","2","prime_positive","89","1","13","0","100","0","0"
"081519","12:32:03","905579695","test","2","intention_check_positive","90","1","13","0","2500","0","0"
"081519","12:32:03","905579695","test","2","mask_prime_positive","91","5","49","1","611","0","0"
"081519","12:32:03","905579695","test","2","prime_positive","92","5","49","0","100","0","0"
"081519","12:32:03","905579695","test","2","intention_check_positive","93","5","49","0","2500","0","0"
"081519","12:32:03","905579695","test","2","mask_prime_positive","94","9","9","1","1292","0","0"
"081519","12:32:03","905579695","test","2","prime_negative","95","9","9","0","100","0","0"
"081519","12:32:03","905579695","test","2","intention_check_negative","96","9","9","0","2500","0","0"
"081519","12:32:03","905579695","test","2","mask_prime_negative","97","10","42","1","415","0","0"
"081519","12:32:03","905579695","test","2","prime_negative","98","10","42","0","100","0","0"
"081519","12:32:03","905579695","test","2","intention_check_negative","99","10","42","0","2500","0","0"
"081519","12:32:03","905579695","test","2","mask_prime_negative","100","7","39","1","739","0","0"
"081519","12:32:03","905579695","test","2","prime_negative","101","7","39","0","100","0","0"
"081519","12:32:03","905579695","test","2","intention_check_negative","102","7","39","0","2500","0","0"
"081519","12:32:03","905579695","test","2","mask_prime_negative","103","11","72","1","3249","0","0"
"081519","12:32:03","905579695","test","2","prime_negative","104","11","72","0","100","0","0"
"081519","12:32:03","905579695","test","2","intention_check_negative","105","11","72","0","2500","0","0"
"081519","12:32:03","905579695","test","2","mask_prime_negative","106","3","32","0","883","0","0"
"081519","12:32:03","905579695","test","2","prime_positive","107","3","32","0","100","0","0"
"081519","12:32:03","905579695","test","2","intention_check_positive","108","3","32","0","2500","0","0"
"081519","12:32:03","905579695","test","2","mask_prime_positive","109","11","47","0","587","0","0"
"081519","12:32:03","905579695","test","2","prime_positive","110","11","47","0","100","0","0"
"081519","12:32:03","905579695","test","2","intention_check_positive","111","11","47","0","2500","0","0"
"081519","12:32:03","905579695","test","2","mask_prime_positive","112","1","22","0","600","0","0"
"081519","12:32:03","905579695","test","2","prime_negative","113","1","22","0","100","0","0"
"081519","12:32:03","905579695","test","2","intention_check_negative","114","1","22","0","2500","0","0"
"081519","12:32:03","905579695","test","2","mask_prime_negative","115","12","24","0","431","0","0"
"081519","12:32:03","905579695","test","2","prime_negative","116","12","24","0","100","0","0"
"081519","12:32:03","905579695","test","2","intention_check_negative","117","12","24","0","2500","0","0"
"081519","12:32:03","905579695","test","2","mask_prime_negative","118","7","19","1","671","0","0"
"081519","12:32:03","905579695","test","2","prime_negative","119","7","19","0","100","0","0"
"081519","12:32:03","905579695","test","2","intention_check_negative","120","7","19","1","755","0","0"
"081519","12:32:03","905579695","test","2","mask_prime_negative","121","2","20","0","375","0","0"
"081519","12:32:03","905579695","test","2","prime_positive","122","2","20","0","100","0","0"
"081519","12:32:03","905579695","test","2","intention_check_positive","123","2","20","0","2500","0","0"
"081519","12:32:03","905579695","test","2","mask_prime_positive","124","2","69","1","432","0","0"
"081519","12:32:03","905579695","test","2","prime_positive","125","2","69","0","100","0","0"
"081519","12:32:03","905579695","test","2","intention_check_positive","126","2","69","0","2500","0","0"
"081519","12:32:03","905579695","test","2","mask_prime_positive","127","5","64","1","505","0","0"
"081519","12:32:03","905579695","test","2","prime_positive","128","5","64","0","100","0","0"
"081519","12:32:03","905579695","test","2","intention_check_positive","129","5","64","0","2500","0","0"
"081519","12:32:03","905579695","test","2","mask_prime_positive","130","12","45","1","453","0","0"
"081519","12:32:03","905579695","test","2","prime_positive","131","12","45","0","100","0","0"
"081519","12:32:03","905579695","test","2","intention_check_positive","132","12","45","0","2500","0","0"
"081519","12:32:03","905579695","test","2","mask_prime_positive","133","2","28","1","380","0","0"
"081519","12:32:03","905579695","test","2","prime_positive","134","2","28","0","100","0","0"
"081519","12:32:03","905579695","test","2","intention_check_positive","135","2","28","0","2500","0","0"
"081519","12:32:03","905579695","test","2","mask_prime_positive","136","9","58","1","617","0","0"
"081519","12:32:03","905579695","test","2","prime_positive","137","9","58","0","100","0","0"
"081519","12:32:03","905579695","test","2","intention_check_positive","138","9","58","0","2500","0","0"
"081519","12:32:03","905579695","test","2","mask_prime_positive","139","8","67","0","205","0","0"
"081519","12:32:03","905579695","test","2","prime_negative","140","8","67","0","100","0","0"
"081519","12:32:03","905579695","test","2","intention_check_negative","141","8","67","0","2500","0","0"
"081519","12:32:03","905579695","test","2","mask_prime_negative","142","9","61","0","413","0","0"
"081519","12:32:03","905579695","test","2","prime_negative","143","9","61","0","100","0","0"
"081519","12:32:03","905579695","test","2","intention_check_negative","144","9","61","1","1048","0","0"
"081519","12:32:03","905579695","test","2","mask_prime_negative","145","1","60","0","274","0","0"
"081519","12:32:03","905579695","test","2","prime_negative","146","1","60","0","100","0","0"
"081519","12:32:03","905579695","test","2","intention_check_negative","147","1","60","1","1123","0","0"
"081519","12:32:03","905579695","test","2","mask_prime_negative","148","5","70","0","298","0","0"
"081519","12:32:03","905579695","test","2","prime_positive","149","5","70","0","100","0","0"
"081519","12:32:03","905579695","test","2","intention_check_positive","150","5","70","0","2500","0","0"
"081519","12:32:03","905579695","test","2","mask_prime_positive","151","6","46","1","368","0","0"
"081519","12:32:03","905579695","test","2","prime_positive","152","6","46","0","100","0","0"
"081519","12:32:03","905579695","test","2","intention_check_positive","153","6","46","0","2500","0","0"
"081519","12:32:03","905579695","test","2","mask_prime_positive","154","11","10","1","345","0","0"
"081519","12:32:03","905579695","test","2","prime_negative","155","11","10","0","100","0","0"
"081519","12:32:03","905579695","test","2","intention_check_negative","156","11","10","0","2500","0","0"
"081519","12:32:03","905579695","test","2","mask_prime_negative","157","3","36","1","458","0","0"
"081519","12:32:03","905579695","test","2","prime_negative","158","3","36","0","100","0","0"
"081519","12:32:03","905579695","test","2","intention_check_negative","159","3","36","0","2500","0","0"
"081519","12:32:03","905579695","test","2","mask_prime_negative","160","6","53","0","551","0","0"
"081519","12:32:03","905579695","test","2","prime_positive","161","6","53","0","100","0","0"
"081519","12:32:03","905579695","test","2","intention_check_positive","162","6","53","1","1695","0","0"
"081519","12:32:03","905579695","test","2","mask_prime_positive","163","3","50","1","272","0","0"
"081519","12:32:03","905579695","test","2","prime_positive","164","3","50","0","100","0","0"
"081519","12:32:03","905579695","test","2","intention_check_positive","165","3","50","1","1644","0","0"
"081519","12:32:03","905579695","test","2","mask_prime_positive","166","10","7","1","271","0","0"
"081519","12:32:03","905579695","test","2","prime_negative","167","10","7","0","100","0","0"
"081519","12:32:03","905579695","test","2","intention_check_negative","168","10","7","0","2500","0","0"
"081519","12:32:03","905579695","test","2","mask_prime_negative","169","4","21","0","519","0","0"
"081519","12:32:03","905579695","test","2","prime_positive","170","4","21","0","100","0","0"
"081519","12:32:03","905579695","test","2","intention_check_positive","171","4","21","0","2500","0","0"
"081519","12:32:03","905579695","test","2","mask_prime_positive","172","1","31","0","1171","0","0"
"081519","12:32:03","905579695","test","2","prime_positive","173","1","31","0","100","0","0"
"081519","12:32:03","905579695","test","2","intention_check_positive","174","1","31","0","2500","0","0"
"081519","12:32:03","905579695","test","2","mask_prime_positive","175","4","2","0","802","0","0"
"081519","12:32:03","905579695","test","2","prime_positive","176","4","2","0","100","0","0"
"081519","12:32:03","905579695","test","2","intention_check_positive","177","4","2","0","2500","0","0"
"081519","12:32:03","905579695","test","2","mask_prime_positive","178","7","44","0","2891","0","0"
"081519","12:32:03","905579695","test","2","prime_positive","179","7","44","0","100","0","0"
"081519","12:32:03","905579695","test","2","intention_check_positive","180","7","44","0","2500","0","0"
"081519","12:32:03","905579695","test","2","mask_prime_positive","181","5","71","1","126","0","0"
"081519","12:32:03","905579695","test","2","prime_negative","182","5","71","0","100","0","0"
"081519","12:32:03","905579695","test","2","intention_check_negative","183","5","71","0","2500","0","0"
"081519","12:32:03","905579695","test","2","mask_prime_negative","184","10","1","1","3075","0","0"
"081519","12:32:03","905579695","test","2","prime_negative","185","10","1","0","100","0","0"
"081519","12:32:03","905579695","test","2","intention_check_negative","186","10","1","0","2500","0","0"
"081519","12:32:03","905579695","test","2","mask_prime_negative","187","11","54","1","4339","0","0"
"081519","12:32:03","905579695","test","2","prime_negative","188","11","54","0","100","0","0"
"081519","12:32:03","905579695","test","2","intention_check_negative","189","11","54","0","2500","0","0"
"081519","12:32:03","905579695","test","2","mask_prime_negative","190","8","20","0","206","0","0"
"081519","12:32:03","905579695","test","2","prime_negative","191","8","20","0","100","0","0"
"081519","12:32:03","905579695","test","2","intention_check_negative","192","8","20","0","2500","0","0"
"081519","12:32:03","905579695","test","2","mask_prime_negative","193","7","1","1","599","0","0"
"081519","12:32:03","905579695","test","2","prime_negative","194","7","1","0","100","0","0"
"081519","12:32:03","905579695","test","2","intention_check_negative","195","7","1","1","899","0","0"
"081519","12:32:03","905579695","test","2","mask_prime_negative","196","6","25","0","289","0","0"
"081519","12:32:03","905579695","test","2","prime_negative","197","6","25","0","100","0","0"
"081519","12:32:03","905579695","test","2","intention_check_negative","198","6","25","1","600","0","0"
"081519","12:32:03","905579695","test","2","mask_prime_negative","199","9","62","0","369","0","0"
"081519","12:32:03","905579695","test","2","prime_negative","200","9","62","0","100","0","0"
"081519","12:32:03","905579695","test","2","intention_check_negative","201","9","62","0","2500","0","0"
"081519","12:32:03","905579695","test","2","mask_prime_negative","202","3","23","1","443","0","0"
"081519","12:32:03","905579695","test","2","prime_positive","203","3","23","0","100","0","0"
"081519","12:32:03","905579695","test","2","intention_check_positive","204","3","23","0","2500","0","0"
"081519","12:32:03","905579695","test","2","mask_prime_positive","205","1","64","1","637","0","0"
"081519","12:32:03","905579695","test","2","prime_positive","206","1","64","0","100","0","0"
"081519","12:32:03","905579695","test","2","intention_check_positive","207","1","64","1","803","0","0"
"081519","12:32:03","905579695","test","2","mask_prime_positive","208","10","19","1","548","0","0"
"081519","12:32:03","905579695","test","2","prime_positive","209","10","19","0","100","0","0"
"081519","12:32:03","905579695","test","2","intention_check_positive","210","10","19","1","902","0","0"
"081519","12:32:03","905579695","test","2","mask_prime_positive","211","3","47","1","319","0","0"
"081519","12:32:03","905579695","test","2","prime_negative","212","3","47","0","100","0","0"
"081519","12:32:03","905579695","test","2","intention_check_negative","213","3","47","0","2500","0","0"
"081519","12:32:03","905579695","test","2","mask_prime_negative","214","2","22","0","381","0","0"
"081519","12:32:03","905579695","test","2","prime_positive","215","2","22","0","100","0","0"
"081519","12:32:03","905579695","test","2","intention_check_positive","216","2","22","0","2500","0","0"
"081519","12:32:03","905579695","test","2","mask_prime_positive","217","12","36","0","440","0","0"
"081519","12:36:09","753217927","practice","1","prime_positive_practice","3","0","0","0","100","0","0"
"081519","12:36:09","753217927","practice","1","intention_check_positive_practice","4","0","0","0","2500","0","0"
"081519","12:36:09","753217927","practice","1","mask_prime_positive_practice","5","0","0","1","1604","0","0"
"081519","12:36:09","753217927","practice","1","prime_positive_practice","6","0","0","0","100","0","0"
"081519","12:36:09","753217927","practice","1","intention_check_positive_practice","7","0","0","0","2500","0","0"
"081519","12:36:09","753217927","practice","1","mask_prime_positive_practice","8","0","0","1","1986","0","0"
"081519","12:36:09","753217927","practice","1","prime_positive_practice","9","0","0","0","100","0","0"
"081519","12:36:09","753217927","practice","1","intention_check_positive_practice","10","0","0","0","2500","0","0"
"081519","12:36:09","753217927","practice","1","mask_prime_positive_practice","11","0","0","0","873","0","0"
"081519","12:36:09","753217927","practice","1","prime_negative_practice","12","0","0","0","100","0","0"
"081519","12:36:09","753217927","practice","1","intention_check_negative_practice","13","0","0","0","2500","0","0"
"081519","12:36:09","753217927","practice","1","mask_prime_negative_practice","14","0","0","0","443","0","0"
"081519","12:36:09","753217927","practice","1","prime_negative_practice","15","0","0","0","100","0","0"
"081519","12:36:09","753217927","practice","1","intention_check_negative_practice","16","0","0","0","2500","0","0"
"081519","12:36:09","753217927","practice","1","mask_prime_negative_practice","17","0","0","0","1653","0","0"
"081519","12:36:09","753217927","practice","1","prime_negative_practice","18","0","0","0","100","0","0"
"081519","12:36:09","753217927","practice","1","intention_check_negative_practice","19","0","0","0","2500","0","0"
"081519","12:36:09","753217927","practice","1","mask_prime_negative_practice","20","0","0","1","427","0","0"
"081519","12:36:09","753217927","practice","1","prime_positive_practice","21","0","0","0","100","0","0"
"081519","12:36:09","753217927","practice","1","intention_check_positive_practice","22","0","0","0","2500","0","0"
"081519","12:36:09","753217927","practice","1","mask_prime_positive_practice","23","0","0","1","815","0","0"
"081519","12:36:09","753217927","practice","1","prime_positive_practice","24","0","0","0","100","0","0"
"081519","12:36:09","753217927","practice","1","intention_check_positive_practice","25","0","0","0","2500","0","0"
"081519","12:36:09","753217927","practice","1","mask_prime_positive_practice","26","0","0","0","455","0","0"
"081519","12:36:09","753217927","practice","1","prime_negative_practice","27","0","0","0","100","0","0"
"081519","12:36:09","753217927","practice","1","intention_check_negative_practice","28","0","0","0","2500","0","0"
"081519","12:36:09","753217927","practice","1","mask_prime_negative_practice","29","0","0","1","392","0","0"
"081519","12:36:09","753217927","practice","1","prime_negative_practice","30","0","0","0","100","0","0"
"081519","12:36:09","753217927","practice","1","intention_check_negative_practice","31","0","0","0","2500","0","0"
"081519","12:36:09","753217927","practice","1","mask_prime_negative_practice","32","0","0","0","404","0","0"
"081519","12:36:09","753217927","test","2","prime_negative","2","0","0","0","100","0","0"
"081519","12:36:09","753217927","test","2","intention_check_negative","3","0","0","0","2500","0","0"
"081519","12:36:09","753217927","test","2","mask_prime_negative","4","1","42","0","411","0","0"
"081519","12:36:09","753217927","test","2","prime_positive","5","1","42","0","100","0","0"
"081519","12:36:09","753217927","test","2","intention_check_positive","6","1","42","0","2500","0","0"
"081519","12:36:09","753217927","test","2","mask_prime_positive","7","1","71","0","661","0","0"
"081519","12:36:09","753217927","test","2","prime_positive","8","1","71","0","100","0","0"
"081519","12:36:09","753217927","test","2","intention_check_positive","9","1","71","0","2500","0","0"
"081519","12:36:09","753217927","test","2","mask_prime_positive","10","3","10","1","712","0","0"
"081519","12:36:09","753217927","test","2","prime_negative","11","3","10","0","100","0","0"
"081519","12:36:09","753217927","test","2","intention_check_negative","12","3","10","0","2500","0","0"
"081519","12:36:09","753217927","test","2","mask_prime_negative","13","4","56","0","553","0","0"
"081519","12:36:09","753217927","test","2","prime_positive","14","4","56","0","100","0","0"
"081519","12:36:09","753217927","test","2","intention_check_positive","15","4","56","0","2500","0","0"
"081519","12:36:09","753217927","test","2","mask_prime_positive","16","12","67","1","421","0","0"
"081519","12:36:09","753217927","test","2","prime_negative","17","12","67","0","100","0","0"
"081519","12:36:09","753217927","test","2","intention_check_negative","18","12","67","0","2500","0","0"
"081519","12:36:09","753217927","test","2","mask_prime_negative","19","5","14","0","377","0","0"
"081519","12:36:09","753217927","test","2","prime_negative","20","5","14","0","100","0","0"
"081519","12:36:09","753217927","test","2","intention_check_negative","21","5","14","0","2500","0","0"
"081519","12:36:09","753217927","test","2","mask_prime_negative","22","11","19","0","358","0","0"
"081519","12:36:09","753217927","test","2","prime_negative","23","11","19","0","100","0","0"
"081519","12:36:09","753217927","test","2","intention_check_negative","24","11","19","0","2500","0","0"
"081519","12:36:09","753217927","test","2","mask_prime_negative","25","6","5","1","314","0","0"
"081519","12:36:09","753217927","test","2","prime_negative","26","6","5","0","100","0","0"
"081519","12:36:09","753217927","test","2","intention_check_negative","27","6","5","0","2500","0","0"
"081519","12:36:09","753217927","test","2","mask_prime_negative","28","3","22","1","346","0","0"
"081519","12:36:09","753217927","test","2","prime_negative","29","3","22","0","100","0","0"
"081519","12:36:09","753217927","test","2","intention_check_negative","30","3","22","0","2500","0","0"
"081519","12:36:09","753217927","test","2","mask_prime_negative","31","2","29","1","319","0","0"
"081519","12:36:09","753217927","test","2","prime_negative","32","2","29","0","100","0","0"
"081519","12:36:09","753217927","test","2","intention_check_negative","33","2","29","0","2500","0","0"
"081519","12:36:09","753217927","test","2","mask_prime_negative","34","11","49","1","312","0","0"
"081519","12:36:09","753217927","test","2","prime_negative","35","11","49","0","100","0","0"
"081519","12:36:09","753217927","test","2","intention_check_negative","36","11","49","0","2500","0","0"
"081519","12:36:09","753217927","test","2","mask_prime_negative","37","1","58","0","308","0","0"
"081519","12:36:09","753217927","test","2","prime_negative","38","1","58","0","100","0","0"
"081519","12:36:09","753217927","test","2","intention_check_negative","39","1","58","0","2500","0","0"
"081519","12:36:09","753217927","test","2","mask_prime_negative","40","6","63","0","296","0","0"
"081519","12:36:09","753217927","test","2","prime_negative","41","6","63","0","100","0","0"
"081519","12:36:09","753217927","test","2","intention_check_negative","42","6","63","0","2500","0","0"
"081519","12:36:09","753217927","test","2","mask_prime_negative","43","9","61","1","34","0","0"
"081519","12:36:09","753217927","test","2","prime_positive","44","9","61","0","100","0","0"
"081519","12:36:09","753217927","test","2","intention_check_positive","45","9","61","0","2500","0","0"
"081519","12:36:09","753217927","test","2","mask_prime_positive","46","4","26","0","279","0","0"
"081519","12:36:09","753217927","test","2","prime_negative","47","4","26","0","100","0","0"
"081519","12:36:09","753217927","test","2","intention_check_negative","48","4","26","0","2500","0","0"
"081519","12:36:09","753217927","test","2","mask_prime_negative","49","5","12","1","350","0","0"
"081519","12:36:09","753217927","test","2","prime_positive","50","5","12","0","100","0","0"
"081519","12:36:09","753217927","test","2","intention_check_positive","51","5","12","0","2500","0","0"
"081519","12:36:09","753217927","test","2","mask_prime_positive","52","9","3","1","305","0","0"
"081519","12:36:09","753217927","test","2","prime_positive","53","9","3","0","100","0","0"
"081519","12:36:09","753217927","test","2","intention_check_positive","54","9","3","0","2500","0","0"
"081519","12:36:09","753217927","test","2","mask_prime_positive","55","2","6","1","291","0","0"
"081519","12:36:09","753217927","test","2","prime_positive","56","2","6","0","100","0","0"
"081519","12:36:09","753217927","test","2","intention_check_positive","57","2","6","0","2500","0","0"
"081519","12:36:09","753217927","test","2","mask_prime_positive","58","11","1","1","291","0","0"
"081519","12:36:09","753217927","test","2","prime_negative","59","11","1","0","100","0","0"
"081519","12:36:09","753217927","test","2","intention_check_negative","60","11","1","0","2500","0","0"
"081519","12:36:09","753217927","test","2","mask_prime_negative","61","12","23","1","276","0","0"
"081519","12:36:09","753217927","test","2","prime_negative","62","12","23","0","100","0","0"
"081519","12:36:09","753217927","test","2","intention_check_negative","63","12","23","0","2500","0","0"
"081519","12:36:09","753217927","test","2","mask_prime_negative","64","10","59","0","83","0","0"
"081519","12:36:09","753217927","test","2","prime_positive","65","10","59","0","100","0","0"
"081519","12:36:09","753217927","test","2","intention_check_positive","66","10","59","0","2500","0","0"
"081519","12:36:09","753217927","test","2","mask_prime_positive","67","12","17","1","344","0","0"
"081519","12:36:09","753217927","test","2","prime_negative","68","12","17","0","100","0","0"
"081519","12:36:09","753217927","test","2","intention_check_negative","69","12","17","0","2500","0","0"
"081519","12:36:09","753217927","test","2","mask_prime_negative","70","8","32","0","277","0","0"
"081519","12:36:09","753217927","test","2","prime_positive","71","8","32","0","100","0","0"
"081519","12:36:09","753217927","test","2","intention_check_positive","72","8","32","0","2500","0","0"
"081519","12:36:09","753217927","test","2","mask_prime_positive","73","5","9","1","354","0","0"
"081519","12:36:09","753217927","test","2","prime_negative","74","5","9","0","100","0","0"
"081519","12:36:09","753217927","test","2","intention_check_negative","75","5","9","0","2500","0","0"
"081519","12:36:09","753217927","test","2","mask_prime_negative","76","2","15","0","434","0","0"
"081519","12:36:09","753217927","test","2","prime_positive","77","2","15","0","100","0","0"
"081519","12:36:09","753217927","test","2","intention_check_positive","78","2","15","0","2500","0","0"
"081519","12:36:09","753217927","test","2","mask_prime_positive","79","6","54","0","301","0","0"
"081519","12:36:09","753217927","test","2","prime_positive","80","6","54","0","100","0","0"
"081519","12:36:09","753217927","test","2","intention_check_positive","81","6","54","0","2500","0","0"
"081519","12:36:09","753217927","test","2","mask_prime_positive","82","7","7","1","306","0","0"
"081519","12:36:09","753217927","test","2","prime_negative","83","7","7","0","100","0","0"
"081519","12:36:09","753217927","test","2","intention_check_negative","84","7","7","0","2500","0","0"
"081519","12:36:09","753217927","test","2","mask_prime_negative","85","3","27","1","256","0","0"
"081519","12:36:09","753217927","test","2","prime_positive","86","3","27","0","100","0","0"
"081519","12:36:09","753217927","test","2","intention_check_positive","87","3","27","0","2500","0","0"
"081519","12:36:09","753217927","test","2","mask_prime_positive","88","9","11","1","359","0","0"
"081519","12:36:09","753217927","test","2","prime_positive","89","9","11","0","100","0","0"
"081519","12:36:09","753217927","test","2","intention_check_positive","90","9","11","0","2500","0","0"
"081519","12:36:09","753217927","test","2","mask_prime_positive","91","8","28","0","274","0","0"
"081519","12:36:09","753217927","test","2","prime_positive","92","8","28","0","100","0","0"
"081519","12:36:09","753217927","test","2","intention_check_positive","93","8","28","0","2500","0","0"
"081519","12:36:09","753217927","test","2","mask_prime_positive","94","11","2","1","287","0","0"
"081519","12:36:09","753217927","test","2","prime_positive","95","11","2","0","100","0","0"
"081519","12:36:09","753217927","test","2","intention_check_positive","96","11","2","0","2500","0","0"
"081519","12:36:09","753217927","test","2","mask_prime_positive","97","2","48","0","304","0","0"
"081519","12:36:09","753217927","test","2","prime_negative","98","2","48","0","100","0","0"
"081519","12:36:09","753217927","test","2","intention_check_negative","99","2","48","0","2500","0","0"
"081519","12:36:09","753217927","test","2","mask_prime_negative","100","4","37","1","275","0","0"
"081519","12:36:09","753217927","test","2","prime_negative","101","4","37","0","100","0","0"
"081519","12:36:09","753217927","test","2","intention_check_negative","102","4","37","0","2500","0","0"
"081519","12:36:09","753217927","test","2","mask_prime_negative","103","7","60","0","317","0","0"
"081519","12:36:09","753217927","test","2","prime_positive","104","7","60","0","100","0","0"
"081519","12:36:09","753217927","test","2","intention_check_positive","105","7","60","0","2500","0","0"
"081519","12:36:09","753217927","test","2","mask_prime_positive","106","3","35","1","327","0","0"
"081519","12:36:09","753217927","test","2","prime_positive","107","3","35","0","100","0","0"
"081519","12:36:09","753217927","test","2","intention_check_positive","108","3","35","0","2500","0","0"
"081519","12:36:09","753217927","test","2","mask_prime_positive","109","1","70","1","325","0","0"
"081519","12:36:09","753217927","test","2","prime_negative","110","1","70","0","100","0","0"
"081519","12:36:09","753217927","test","2","intention_check_negative","111","1","70","0","2500","0","0"
"081519","12:36:09","753217927","test","2","mask_prime_negative","112","12","41","0","278","0","0"
"081519","12:36:09","753217927","test","2","prime_positive","113","12","41","0","100","0","0"
"081519","12:36:09","753217927","test","2","intention_check_positive","114","12","41","0","2500","0","0"
"081519","12:36:09","753217927","test","2","mask_prime_positive","115","4","8","1","142","0","0"
"081519","12:36:09","753217927","test","2","prime_positive","116","4","8","0","100","0","0"
"081519","12:36:09","753217927","test","2","intention_check_positive","117","4","8","0","2500","0","0"
"081519","12:36:09","753217927","test","2","mask_prime_positive","118","10","44","0","315","0","0"
"081519","12:36:09","753217927","test","2","prime_negative","119","10","44","0","100","0","0"
"081519","12:36:09","753217927","test","2","intention_check_negative","120","10","44","0","2500","0","0"
"081519","12:36:09","753217927","test","2","mask_prime_negative","121","9","34","0","355","0","0"
"081519","12:36:09","753217927","test","2","prime_negative","122","9","34","0","100","0","0"
"081519","12:36:09","753217927","test","2","intention_check_negative","123","9","34","0","2500","0","0"
"081519","12:36:09","753217927","test","2","mask_prime_negative","124","8","55","0","367","0","0"
"081519","12:36:09","753217927","test","2","prime_positive","125","8","55","0","100","0","0"
"081519","12:36:09","753217927","test","2","intention_check_positive","126","8","55","0","2500","0","0"
"081519","12:36:09","753217927","test","2","mask_prime_positive","127","3","68","1","342","0","0"
"081519","12:36:09","753217927","test","2","prime_positive","128","3","68","0","100","0","0"
"081519","12:36:09","753217927","test","2","intention_check_positive","129","3","68","0","2500","0","0"
"081519","12:36:09","753217927","test","2","mask_prime_positive","130","7","45","0","315","0","0"
"081519","12:36:09","753217927","test","2","prime_negative","131","7","45","0","100","0","0"
"081519","12:36:09","753217927","test","2","intention_check_negative","132","7","45","0","2500","0","0"
"081519","12:36:09","753217927","test","2","mask_prime_negative","133","1","25","1","306","0","0"
"081519","12:36:09","753217927","test","2","prime_negative","134","1","25","0","100","0","0"
"081519","12:36:09","753217927","test","2","intention_check_negative","135","1","25","0","2500","0","0"
"081519","12:36:09","753217927","test","2","mask_prime_negative","136","5","33","1","338","0","0"
"081519","12:36:09","753217927","test","2","prime_negative","137","5","33","0","100","0","0"
"081519","12:36:09","753217927","test","2","intention_check_negative","138","5","33","0","2500","0","0"
"081519","12:36:09","753217927","test","2","mask_prime_negative","139","7","24","1","408","0","0"
"081519","12:36:09","753217927","test","2","prime_positive","140","7","24","0","100","0","0"
"081519","12:36:09","753217927","test","2","intention_check_positive","141","7","24","0","2500","0","0"
"081519","12:36:09","753217927","test","2","mask_prime_positive","142","1","69","1","339","0","0"
"081519","12:36:09","753217927","test","2","prime_positive","143","1","69","0","100","0","0"
"081519","12:36:09","753217927","test","2","intention_check_positive","144","1","69","0","2500","0","0"
"081519","12:36:09","753217927","test","2","mask_prime_positive","145","11","39","1","390","0","0"
"081519","12:36:09","753217927","test","2","prime_positive","146","11","39","0","100","0","0"
"081519","12:36:09","753217927","test","2","intention_check_positive","147","11","39","0","2500","0","0"
"081519","12:36:09","753217927","test","2","mask_prime_positive","148","5","31","0","315","0","0"
"081519","12:36:09","753217927","test","2","prime_positive","149","5","31","0","100","0","0"
"081519","12:36:09","753217927","test","2","intention_check_positive","150","5","31","0","2500","0","0"
"081519","12:36:09","753217927","test","2","mask_prime_positive","151","6","53","0","987","0","0"
"081519","12:36:09","753217927","test","2","prime_positive","152","6","53","0","100","0","0"
"081519","12:36:09","753217927","test","2","intention_check_positive","153","6","53","0","2500","0","0"
"081519","12:36:09","753217927","test","2","mask_prime_positive","154","4","46","1","338","0","0"
"081519","12:36:09","753217927","test","2","prime_positive","155","4","46","0","100","0","0"
"081519","12:36:09","753217927","test","2","intention_check_positive","156","4","46","0","2500","0","0"
"081519","12:36:09","753217927","test","2","mask_prime_positive","157","12","57","0","418","0","0"
"081519","12:36:09","753217927","test","2","prime_positive","158","12","57","0","100","0","0"
"081519","12:36:09","753217927","test","2","intention_check_positive","159","12","57","0","2500","0","0"
"081519","12:36:09","753217927","test","2","mask_prime_positive","160","9","13","1","300","0","0"
"081519","12:36:09","753217927","test","2","prime_positive","161","9","13","0","100","0","0"
"081519","12:36:09","753217927","test","2","intention_check_positive","162","9","13","0","2500","0","0"
"081519","12:36:09","753217927","test","2","mask_prime_positive","163","10","16","1","853","0","0"
"081519","12:36:09","753217927","test","2","prime_negative","164","10","16","0","100","0","0"
"081519","12:36:09","753217927","test","2","intention_check_negative","165","10","16","0","2500","0","0"
"081519","12:36:09","753217927","test","2","mask_prime_negative","166","3","51","1","292","0","0"
"081519","12:36:09","753217927","test","2","prime_positive","167","3","51","0","100","0","0"
"081519","12:36:09","753217927","test","2","intention_check_positive","168","3","51","0","2500","0","0"
"081519","12:36:09","753217927","test","2","mask_prime_positive","169","2","50","0","315","0","0"
"081519","12:36:09","753217927","test","2","prime_negative","170","2","50","0","100","0","0"
"081519","12:36:09","753217927","test","2","intention_check_negative","171","2","50","0","2500","0","0"
"081519","12:36:09","753217927","test","2","mask_prime_negative","172","11","4","1","311","0","0"
"081519","12:36:09","753217927","test","2","prime_positive","173","11","4","0","100","0","0"
"081519","12:36:09","753217927","test","2","intention_check_positive","174","11","4","0","2500","0","0"
"081519","12:36:09","753217927","test","2","mask_prime_positive","175","8","62","0","263","0","0"
"081519","12:36:09","753217927","test","2","prime_negative","176","8","62","0","100","0","0"
"081519","12:36:09","753217927","test","2","intention_check_negative","177","8","62","0","2500","0","0"
"081519","12:36:09","753217927","test","2","mask_prime_negative","178","10","52","0","284","0","0"
"081519","12:36:09","753217927","test","2","prime_positive","179","10","52","0","100","0","0"
"081519","12:36:09","753217927","test","2","intention_check_positive","180","10","52","0","2500","0","0"
"081519","12:36:09","753217927","test","2","mask_prime_positive","181","1","47","0","334","0","0"
"081519","12:36:09","753217927","test","2","prime_positive","182","1","47","0","100","0","0"
"081519","12:36:09","753217927","test","2","intention_check_positive","183","1","47","0","2500","0","0"
"081519","12:36:09","753217927","test","2","mask_prime_positive","184","10","72","1","1381","0","0"
"081519","12:36:09","753217927","test","2","prime_negative","185","10","72","0","100","0","0"
"081519","12:36:09","753217927","test","2","intention_check_negative","186","10","72","0","2500","0","0"
"081519","12:36:09","753217927","test","2","mask_prime_negative","187","2","43","1","504","0","0"
"081519","12:36:09","753217927","test","2","prime_positive","188","2","43","0","100","0","0"
"081519","12:36:09","753217927","test","2","intention_check_positive","189","2","43","0","2500","0","0"
"081519","12:36:09","753217927","test","2","mask_prime_positive","190","11","14","0","333","0","0"
"081519","12:36:09","753217927","test","2","prime_positive","191","11","14","0","100","0","0"
"081519","12:36:09","753217927","test","2","intention_check_positive","192","11","14","0","2500","0","0"
"081519","12:36:09","753217927","test","2","mask_prime_positive","193","12","65","0","273","0","0"
"081519","12:36:09","753217927","test","2","prime_negative","194","12","65","0","100","0","0"
"081519","12:36:09","753217927","test","2","intention_check_negative","195","12","65","0","2500","0","0"
"081519","12:36:09","753217927","test","2","mask_prime_negative","196","6","53","0","266","0","0"
"081519","12:36:09","753217927","test","2","prime_negative","197","6","53","0","100","0","0"
"081519","12:36:09","753217927","test","2","intention_check_negative","198","6","53","0","2500","0","0"
"081519","12:36:09","753217927","test","2","mask_prime_negative","199","4","67","1","724","0","0"
"081519","12:36:09","753217927","test","2","prime_negative","200","4","67","0","100","0","0"
"081519","12:36:09","753217927","test","2","intention_check_negative","201","4","67","0","2500","0","0"
"081519","12:36:09","753217927","test","2","mask_prime_negative","202","8","19","0","265","0","0"
"081519","12:36:09","753217927","test","2","prime_negative","203","8","19","0","100","0","0"
"081519","12:36:09","753217927","test","2","intention_check_negative","204","8","19","0","2500","0","0"
"081519","12:36:09","753217927","test","2","mask_prime_negative","205","12","5","1","278","0","0"
"081519","12:36:09","753217927","test","2","prime_positive","206","12","5","0","100","0","0"
"081519","12:36:09","753217927","test","2","intention_check_positive","207","12","5","0","2500","0","0"
"081519","12:36:09","753217927","test","2","mask_prime_positive","208","7","71","0","280","0","0"
"081519","12:36:09","753217927","test","2","prime_negative","209","7","71","0","100","0","0"
"081519","12:36:09","753217927","test","2","intention_check_negative","210","7","71","0","2500","0","0"
"081519","12:36:09","753217927","test","2","mask_prime_negative","211","10","24","1","187","0","0"
"081519","12:36:09","753217927","test","2","prime_negative","212","10","24","0","100","0","0"
"081519","12:36:09","753217927","test","2","intention_check_negative","213","10","24","0","2500","0","0"
"081519","12:36:09","753217927","test","2","mask_prime_negative","214","5","54","0","328","0","0"
"081519","12:36:09","753217927","test","2","prime_negative","215","5","54","0","100","0","0"
"081519","12:36:09","753217927","test","2","intention_check_negative","216","5","54","0","2500","0","0"
"081519","12:36:09","753217927","test","2","mask_prime_negative","217","2","38","1","271","0","0"
"081519","12:49:35","265032689","practice","1","prime_positive_practice","3","0","0","0","100","0","0"
"081519","12:49:35","265032689","practice","1","intention_check_positive_practice","4","0","0","0","2500","0","0"
"081519","12:49:35","265032689","practice","1","mask_prime_positive_practice","5","0","0","0","3602","0","0"
"081519","12:49:35","265032689","practice","1","prime_positive_practice","6","0","0","0","100","0","0"
"081519","12:49:35","265032689","practice","1","intention_check_positive_practice","7","0","0","1","1700","0","0"
"081519","12:49:35","265032689","practice","1","mask_prime_positive_practice","8","0","0","0","2926","0","0"
"081519","12:49:35","265032689","practice","1","prime_negative_practice","9","0","0","0","100","0","0"
"081519","12:49:35","265032689","practice","1","intention_check_negative_practice","10","0","0","1","1916","0","0"
"081519","12:49:35","265032689","practice","1","mask_prime_negative_practice","11","0","0","0","526","0","0"
"081519","12:49:35","265032689","practice","1","prime_positive_practice","12","0","0","0","100","0","0"
"081519","12:49:35","265032689","practice","1","intention_check_positive_practice","13","0","0","1","2262","0","0"
"081519","12:49:35","265032689","practice","1","mask_prime_positive_practice","14","0","0","1","544","0","0"
"081519","12:49:35","265032689","practice","1","prime_negative_practice","15","0","0","0","100","0","0"
"081519","12:49:35","265032689","practice","1","intention_check_negative_practice","16","0","0","0","2500","0","0"
"081519","12:49:35","265032689","practice","1","mask_prime_negative_practice","17","0","0","1","306","0","0"
"081519","12:49:35","265032689","practice","1","prime_positive_practice","18","0","0","0","100","0","0"
"081519","12:49:35","265032689","practice","1","intention_check_positive_practice","19","0","0","0","2500","0","0"
"081519","12:49:35","265032689","practice","1","mask_prime_positive_practice","20","0","0","1","261","0","0"
"081519","12:49:35","265032689","practice","1","prime_negative_practice","21","0","0","0","100","0","0"
"081519","12:49:35","265032689","practice","1","intention_check_negative_practice","22","0","0","1","1192","0","0"
"081519","12:49:35","265032689","practice","1","mask_prime_negative_practice","23","0","0","0","370","0","0"
"081519","12:49:35","265032689","practice","1","prime_negative_practice","24","0","0","0","100","0","0"
"081519","12:49:35","265032689","practice","1","intention_check_negative_practice","25","0","0","1","1192","0","0"
"081519","12:49:35","265032689","practice","1","mask_prime_negative_practice","26","0","0","0","338","0","0"
"081519","12:49:35","265032689","practice","1","prime_negative_practice","27","0","0","0","100","0","0"
"081519","12:49:35","265032689","practice","1","intention_check_negative_practice","28","0","0","1","994","0","0"
"081519","12:49:35","265032689","practice","1","mask_prime_negative_practice","29","0","0","0","404","0","0"
"081519","12:49:35","265032689","practice","1","prime_positive_practice","30","0","0","0","100","0","0"
"081519","12:49:35","265032689","practice","1","intention_check_positive_practice","31","0","0","1","1745","0","0"
"081519","12:49:35","265032689","practice","1","mask_prime_positive_practice","32","0","0","1","531","0","0"
"081519","12:49:35","265032689","test","2","prime_positive","2","0","0","0","100","0","0"
"081519","12:49:35","265032689","test","2","intention_check_positive","3","0","0","0","2500","0","0"
"081519","12:49:35","265032689","test","2","mask_prime_positive","4","12","13","1","239","0","0"
"081519","12:49:35","265032689","test","2","prime_positive","5","12","13","0","100","0","0"
"081519","12:49:35","265032689","test","2","intention_check_positive","6","12","13","0","2500","0","0"
"081519","12:49:35","265032689","test","2","mask_prime_positive","7","5","61","1","277","0","0"
"081519","12:49:35","265032689","test","2","prime_positive","8","5","61","0","100","0","0"
"081519","12:49:35","265032689","test","2","intention_check_positive","9","5","61","0","2500","0","0"
"081519","12:49:35","265032689","test","2","mask_prime_positive","10","1","5","1","297","0","0"
"081519","12:49:35","265032689","test","2","prime_positive","11","1","5","0","100","0","0"
"081519","12:49:35","265032689","test","2","intention_check_positive","12","1","5","1","1529","0","0"
"081519","12:49:35","265032689","test","2","mask_prime_positive","13","3","3","1","428","0","0"
"081519","12:49:35","265032689","test","2","prime_negative","14","3","3","0","100","0","0"
"081519","12:49:35","265032689","test","2","intention_check_negative","15","3","3","1","1856","0","0"
"081519","12:49:35","265032689","test","2","mask_prime_negative","16","6","1","1","1418","0","0"
"081519","12:49:35","265032689","test","2","prime_positive","17","6","1","0","100","0","0"
"081519","12:49:35","265032689","test","2","intention_check_positive","18","6","1","0","2500","0","0"
"081519","12:49:35","265032689","test","2","mask_prime_positive","19","6","31","0","296","0","0"
"081519","12:49:35","265032689","test","2","prime_negative","20","6","31","0","100","0","0"
"081519","12:49:35","265032689","test","2","intention_check_negative","21","6","31","0","2500","0","0"
"081519","12:49:35","265032689","test","2","mask_prime_negative","22","11","18","0","292","0","0"
"081519","12:49:35","265032689","test","2","prime_negative","23","11","18","0","100","0","0"
"081519","12:49:35","265032689","test","2","intention_check_negative","24","11","18","0","2500","0","0"
"081519","12:49:35","265032689","test","2","mask_prime_negative","25","2","67","0","295","0","0"
"081519","12:49:35","265032689","test","2","prime_negative","26","2","67","0","100","0","0"
"081519","12:49:35","265032689","test","2","intention_check_negative","27","2","67","0","2500","0","0"
"081519","12:49:35","265032689","test","2","mask_prime_negative","28","9","11","1","331","0","0"
"081519","12:49:35","265032689","test","2","prime_positive","29","9","11","0","100","0","0"
"081519","12:49:35","265032689","test","2","intention_check_positive","30","9","11","1","1154","0","0"
"081519","12:49:35","265032689","test","2","mask_prime_positive","31","10","33","1","428","0","0"
"081519","12:49:35","265032689","test","2","prime_positive","32","10","33","0","100","0","0"
"081519","12:49:35","265032689","test","2","intention_check_positive","33","10","33","1","1176","0","0"
"081519","12:49:35","265032689","test","2","mask_prime_positive","34","7","43","1","283","0","0"
"081519","12:49:35","265032689","test","2","prime_positive","35","7","43","0","100","0","0"
"081519","12:49:35","265032689","test","2","intention_check_positive","36","7","43","0","2500","0","0"
"081519","12:49:35","265032689","test","2","mask_prime_positive","37","12","2","1","375","0","0"
"081519","12:49:35","265032689","test","2","prime_negative","38","12","2","0","100","0","0"
"081519","12:49:35","265032689","test","2","intention_check_negative","39","12","2","0","2500","0","0"
"081519","12:49:35","265032689","test","2","mask_prime_negative","40","4","54","1","2031","0","0"
"081519","12:49:35","265032689","test","2","prime_positive","41","4","54","0","100","0","0"
"081519","12:49:35","265032689","test","2","intention_check_positive","42","4","54","0","2500","0","0"
"081519","12:49:35","265032689","test","2","mask_prime_positive","43","7","57","1","428","0","0"
"081519","12:49:35","265032689","test","2","prime_positive","44","7","57","0","100","0","0"
"081519","12:49:35","265032689","test","2","intention_check_positive","45","7","57","1","1207","0","0"
"081519","12:49:35","265032689","test","2","mask_prime_positive","46","5","4","1","1146","0","0"
"081519","12:49:35","265032689","test","2","prime_positive","47","5","4","0","100","0","0"
"081519","12:49:35","265032689","test","2","intention_check_positive","48","5","4","0","2500","0","0"
"081519","12:49:35","265032689","test","2","mask_prime_positive","49","2","72","1","595","0","0"
"081519","12:49:35","265032689","test","2","prime_positive","50","2","72","0","100","0","0"
"081519","12:49:35","265032689","test","2","intention_check_positive","51","2","72","0","2500","0","0"
"081519","12:49:35","265032689","test","2","mask_prime_positive","52","8","37","1","642","0","0"
"081519","12:49:35","265032689","test","2","prime_negative","53","8","37","0","100","0","0"
"081519","12:49:35","265032689","test","2","intention_check_negative","54","8","37","1","1077","0","0"
"081519","12:49:35","265032689","test","2","mask_prime_negative","55","8","44","0","456","0","0"
"081519","12:49:35","265032689","test","2","prime_negative","56","8","44","0","100","0","0"
"081519","12:49:35","265032689","test","2","intention_check_negative","57","8","44","0","2500","0","0"
"081519","12:49:35","265032689","test","2","mask_prime_negative","58","10","15","1","141","0","0"
"081519","12:49:35","265032689","test","2","prime_negative","59","10","15","0","100","0","0"
"081519","12:49:35","265032689","test","2","intention_check_negative","60","10","15","1","1140","0","0"
"081519","12:49:35","265032689","test","2","mask_prime_negative","61","2","10","0","383","0","0"
"081519","12:49:35","265032689","test","2","prime_positive","62","2","10","0","100","0","0"
"081519","12:49:35","265032689","test","2","intention_check_positive","63","2","10","0","2500","0","0"
"081519","12:49:35","265032689","test","2","mask_prime_positive","64","10","58","1","1134","0","0"
"081519","12:49:35","265032689","test","2","prime_negative","65","10","58","0","100","0","0"
"081519","12:49:35","265032689","test","2","intention_check_negative","66","10","58","0","2500","0","0"
"081519","12:49:35","265032689","test","2","mask_prime_negative","67","7","49","0","1031","0","0"
"081519","12:49:35","265032689","test","2","prime_negative","68","7","49","0","100","0","0"
"081519","12:49:35","265032689","test","2","intention_check_negative","69","7","49","0","2500","0","0"
"081519","12:49:35","265032689","test","2","mask_prime_negative","70","11","32","1","469","0","0"
"081519","12:49:35","265032689","test","2","prime_positive","71","11","32","0","100","0","0"
"081519","12:49:35","265032689","test","2","intention_check_positive","72","11","32","0","2500","0","0"
"081519","12:49:35","265032689","test","2","mask_prime_positive","73","11","6","1","377","0","0"
"081519","12:49:35","265032689","test","2","prime_positive","74","11","6","0","100","0","0"
"081519","12:49:35","265032689","test","2","intention_check_positive","75","11","6","1","1015","0","0"
"081519","12:49:35","265032689","test","2","mask_prime_positive","76","3","40","1","394","0","0"
"081519","12:49:35","265032689","test","2","prime_positive","77","3","40","0","100","0","0"
"081519","12:49:35","265032689","test","2","intention_check_positive","78","3","40","0","2500","0","0"
"081519","12:49:35","265032689","test","2","mask_prime_positive","79","1","69","1","329","0","0"
"081519","12:49:35","265032689","test","2","prime_negative","80","1","69","0","100","0","0"
"081519","12:49:35","265032689","test","2","intention_check_negative","81","1","69","1","857","0","0"
"081519","12:49:35","265032689","test","2","mask_prime_negative","82","5","56","0","347","0","0"
"081519","12:49:35","265032689","test","2","prime_negative","83","5","56","0","100","0","0"
"081519","12:49:35","265032689","test","2","intention_check_negative","84","5","56","0","2500","0","0"
"081519","12:49:35","265032689","test","2","mask_prime_negative","85","10","38","1","300","0","0"
"081519","12:49:35","265032689","test","2","prime_positive","86","10","38","0","100","0","0"
"081519","12:49:35","265032689","test","2","intention_check_positive","87","10","38","0","2500","0","0"
"081519","12:49:35","265032689","test","2","mask_prime_positive","88","6","65","0","336","0","0"
"081519","12:49:35","265032689","test","2","prime_positive","89","6","65","0","100","0","0"
"081519","12:49:35","265032689","test","2","intention_check_positive","90","6","65","0","2500","0","0"
"081519","12:49:35","265032689","test","2","mask_prime_positive","91","9","34","1","377","0","0"
"081519","12:49:35","265032689","test","2","prime_positive","92","9","34","0","100","0","0"
"081519","12:49:35","265032689","test","2","intention_check_positive","93","9","34","0","2500","0","0"
"081519","12:49:35","265032689","test","2","mask_prime_positive","94","4","63","0","298","0","0"
"081519","12:49:35","265032689","test","2","prime_positive","95","4","63","0","100","0","0"
"081519","12:49:35","265032689","test","2","intention_check_positive","96","4","63","0","2500","0","0"
"081519","12:49:35","265032689","test","2","mask_prime_positive","97","4","28","1","357","0","0"
"081519","12:49:35","265032689","test","2","prime_positive","98","4","28","0","100","0","0"
"081519","12:49:35","265032689","test","2","intention_check_positive","99","4","28","0","2500","0","0"
"081519","12:49:35","265032689","test","2","mask_prime_positive","100","9","60","1","318","0","0"
"081519","12:49:35","265032689","test","2","prime_negative","101","9","60","0","100","0","0"
"081519","12:49:35","265032689","test","2","intention_check_negative","102","9","60","0","2500","0","0"
"081519","12:49:35","265032689","test","2","mask_prime_negative","103","12","20","1","569","0","0"
"081519","12:49:35","265032689","test","2","prime_positive","104","12","20","0","100","0","0"
"081519","12:49:35","265032689","test","2","intention_check_positive","105","12","20","0","2500","0","0"
"081519","12:49:35","265032689","test","2","mask_prime_positive","106","11","66","1","409","0","0"
"081519","12:49:35","265032689","test","2","prime_negative","107","11","66","0","100","0","0"
"081519","12:49:35","265032689","test","2","intention_check_negative","108","11","66","1","1989","0","0"
"081519","12:49:35","265032689","test","2","mask_prime_negative","109","8","52","0","360","0","0"
"081519","12:49:35","265032689","test","2","prime_negative","110","8","52","0","100","0","0"
"081519","12:49:35","265032689","test","2","intention_check_negative","111","8","52","1","1678","0","0"
"081519","12:49:35","265032689","test","2","mask_prime_negative","112","6","27","1","328","0","0"
"081519","12:49:35","265032689","test","2","prime_positive","113","6","27","0","100","0","0"
"081519","12:49:35","265032689","test","2","intention_check_positive","114","6","27","0","2500","0","0"
"081519","12:49:35","265032689","test","2","mask_prime_positive","115","6","8","0","1555","0","0"
"081519","12:49:35","265032689","test","2","prime_negative","116","6","8","0","100","0","0"
"081519","12:49:35","265032689","test","2","intention_check_negative","117","6","8","0","2500","0","0"
"081519","12:49:35","265032689","test","2","mask_prime_negative","118","4","19","0","379","0","0"
"081519","12:49:35","265032689","test","2","prime_positive","119","4","19","0","100","0","0"
"081519","12:49:35","265032689","test","2","intention_check_positive","120","4","19","0","2500","0","0"
"081519","12:49:35","265032689","test","2","mask_prime_positive","121","1","16","1","251","0","0"
"081519","12:49:35","265032689","test","2","prime_negative","122","1","16","0","100","0","0"
"081519","12:49:35","265032689","test","2","intention_check_negative","123","1","16","0","2500","0","0"
"081519","12:49:35","265032689","test","2","mask_prime_negative","124","1","64","0","336","0","0"
"081519","12:49:35","265032689","test","2","prime_negative","125","1","64","0","100","0","0"
"081519","12:49:35","265032689","test","2","intention_check_negative","126","1","64","1","1055","0","0"
"081519","12:49:35","265032689","test","2","mask_prime_negative","127","9","50","0","330","0","0"
"081519","12:49:35","265032689","test","2","prime_negative","128","9","50","0","100","0","0"
"081519","12:49:35","265032689","test","2","intention_check_negative","129","9","50","0","2500","0","0"
"081519","12:49:35","265032689","test","2","mask_prime_negative","130","3","68","1","436","0","0"
"081519","12:49:35","265032689","test","2","prime_negative","131","3","68","0","100","0","0"
"081519","12:49:35","265032689","test","2","intention_check_negative","132","3","68","0","2500","0","0"
"081519","12:49:35","265032689","test","2","mask_prime_negative","133","12","21","1","370","0","0"
"081519","12:49:35","265032689","test","2","prime_negative","134","12","21","0","100","0","0"
"081519","12:49:35","265032689","test","2","intention_check_negative","135","12","21","1","1431","0","0"
"081519","12:49:35","265032689","test","2","mask_prime_negative","136","3","39","1","770","0","0"
"081519","12:49:35","265032689","test","2","prime_negative","137","3","39","0","100","0","0"
"081519","12:49:35","265032689","test","2","intention_check_negative","138","3","39","1","807","0","0"
"081519","12:49:35","265032689","test","2","mask_prime_negative","139","2","24","1","274","0","0"
"081519","12:49:35","265032689","test","2","prime_negative","140","2","24","0","100","0","0"
"081519","12:49:35","265032689","test","2","intention_check_negative","141","2","24","0","2500","0","0"
"081519","12:49:35","265032689","test","2","mask_prime_negative","142","7","35","1","271","0","0"
"081519","12:49:35","265032689","test","2","prime_negative","143","7","35","0","100","0","0"
"081519","12:49:35","265032689","test","2","intention_check_negative","144","7","35","0","2500","0","0"
"081519","12:49:35","265032689","test","2","mask_prime_negative","145","10","30","0","411","0","0"
"081519","12:49:35","265032689","test","2","prime_positive","146","10","30","0","100","0","0"
"081519","12:49:35","265032689","test","2","intention_check_positive","147","10","30","0","2500","0","0"
"081519","12:49:35","265032689","test","2","mask_prime_positive","148","5","17","1","266","0","0"
"081519","12:49:35","265032689","test","2","prime_negative","149","5","17","0","100","0","0"
"081519","12:49:35","265032689","test","2","intention_check_negative","150","5","17","0","2500","0","0"
"081519","12:49:35","265032689","test","2","mask_prime_negative","151","1","71","0","334","0","0"
"081519","12:49:35","265032689","test","2","prime_positive","152","1","71","0","100","0","0"
"081519","12:49:35","265032689","test","2","intention_check_positive","153","1","71","0","2500","0","0"
"081519","12:49:35","265032689","test","2","mask_prime_positive","154","3","26","1","320","0","0"
"081519","12:49:35","265032689","test","2","prime_positive","155","3","26","0","100","0","0"
"081519","12:49:35","265032689","test","2","intention_check_positive","156","3","26","1","1839","0","0"
"081519","12:49:35","265032689","test","2","mask_prime_positive","157","2","12","0","282","0","0"
"081519","12:49:35","265032689","test","2","prime_negative","158","2","12","0","100","0","0"
"081519","12:49:35","265032689","test","2","intention_check_negative","159","2","12","1","2067","0","0"
"081519","12:49:35","265032689","test","2","mask_prime_negative","160","6","47","0","294","0","0"
"081519","12:49:35","265032689","test","2","prime_negative","161","6","47","0","100","0","0"
"081519","12:49:35","265032689","test","2","intention_check_negative","162","6","47","1","1255","0","0"
"081519","12:49:35","265032689","test","2","mask_prime_negative","163","4","22","1","322","0","0"
"081519","12:49:35","265032689","test","2","prime_positive","164","4","22","0","100","0","0"
"081519","12:49:35","265032689","test","2","intention_check_positive","165","4","22","1","1353","0","0"
"081519","12:49:35","265032689","test","2","mask_prime_positive","166","8","25","0","468","0","0"
"081519","12:49:35","265032689","test","2","prime_positive","167","8","25","0","100","0","0"
"081519","12:49:35","265032689","test","2","intention_check_positive","168","8","25","0","2500","0","0"
"081519","12:49:35","265032689","test","2","mask_prime_positive","169","7","14","0","312","0","0"
"081519","12:49:35","265032689","test","2","prime_negative","170","7","14","0","100","0","0"
"081519","12:49:35","265032689","test","2","intention_check_negative","171","7","14","0","2500","0","0"
"081519","12:49:35","265032689","test","2","mask_prime_negative","172","11","29","1","307","0","0"
"081519","12:49:35","265032689","test","2","prime_negative","173","11","29","0","100","0","0"
"081519","12:49:35","265032689","test","2","intention_check_negative","174","11","29","1","1684","0","0"
"081519","12:49:35","265032689","test","2","mask_prime_negative","175","8","46","1","342","0","0"
"081519","12:49:35","265032689","test","2","prime_negative","176","8","46","0","100","0","0"
"081519","12:49:35","265032689","test","2","intention_check_negative","177","8","46","0","2500","0","0"
"081519","12:49:35","265032689","test","2","mask_prime_negative","178","9","23","1","976","0","0"
"081519","12:49:35","265032689","test","2","prime_negative","179","9","23","0","100","0","0"
"081519","12:49:35","265032689","test","2","intention_check_negative","180","9","23","0","2500","0","0"
"081519","12:49:35","265032689","test","2","mask_prime_negative","181","5","62","1","264","0","0"
"081519","12:49:35","265032689","test","2","prime_positive","182","5","62","0","100","0","0"
"081519","12:49:35","265032689","test","2","intention_check_positive","183","5","62","0","2500","0","0"
"081519","12:49:35","265032689","test","2","mask_prime_positive","184","10","9","1","277","0","0"
"081519","12:49:35","265032689","test","2","prime_positive","185","10","9","0","100","0","0"
"081519","12:49:35","265032689","test","2","intention_check_positive","186","10","9","0","2500","0","0"
"081519","12:49:35","265032689","test","2","mask_prime_positive","187","12","55","0","313","0","0"
"081519","12:49:35","265032689","test","2","prime_positive","188","12","55","0","100","0","0"
"081519","12:49:35","265032689","test","2","intention_check_positive","189","12","55","0","2500","0","0"
"081519","12:49:35","265032689","test","2","mask_prime_positive","190","8","42","0","260","0","0"
"081519","12:49:35","265032689","test","2","prime_negative","191","8","42","0","100","0","0"
"081519","12:49:35","265032689","test","2","intention_check_negative","192","8","42","0","2500","0","0"
"081519","12:49:35","265032689","test","2","mask_prime_negative","193","7","8","0","617","0","0"
"081519","12:49:35","265032689","test","2","prime_negative","194","7","8","0","100","0","0"
"081519","12:49:35","265032689","test","2","intention_check_negative","195","7","8","0","2500","0","0"
"081519","12:49:35","265032689","test","2","mask_prime_negative","196","6","72","0","815","0","0"
"081519","12:49:35","265032689","test","2","prime_negative","197","6","72","0","100","0","0"
"081519","12:49:35","265032689","test","2","intention_check_negative","198","6","72","0","2500","0","0"
"081519","12:49:35","265032689","test","2","mask_prime_negative","199","2","26","1","405","0","0"
"081519","12:49:35","265032689","test","2","prime_positive","200","2","26","0","100","0","0"
"081519","12:49:35","265032689","test","2","intention_check_positive","201","2","26","0","2500","0","0"
"081519","12:49:35","265032689","test","2","mask_prime_positive","202","4","51","1","348","0","0"
"081519","12:49:35","265032689","test","2","prime_negative","203","4","51","0","100","0","0"
"081519","12:49:35","265032689","test","2","intention_check_negative","204","4","51","0","2500","0","0"
"081519","12:49:35","265032689","test","2","mask_prime_negative","205","11","71","0","405","0","0"
"081519","12:49:35","265032689","test","2","prime_positive","206","11","71","0","100","0","0"
"081519","12:49:35","265032689","test","2","intention_check_positive","207","11","71","0","2500","0","0"
"081519","12:49:35","265032689","test","2","mask_prime_positive","208","11","19","0","636","0","0"
"081519","12:49:35","265032689","test","2","prime_positive","209","11","19","0","100","0","0"
"081519","12:49:35","265032689","test","2","intention_check_positive","210","11","19","0","2500","0","0"
"081519","12:49:35","265032689","test","2","mask_prime_positive","211","7","60","1","297","0","0"
"081519","12:49:35","265032689","test","2","prime_positive","212","7","60","0","100","0","0"
"081519","12:49:35","265032689","test","2","intention_check_positive","213","7","60","0","2500","0","0"
"081519","12:49:35","265032689","test","2","mask_prime_positive","214","3","27","1","269","0","0"
"081519","12:49:35","265032689","test","2","prime_negative","215","3","27","0","100","0","0"
"081519","12:49:35","265032689","test","2","intention_check_negative","216","3","27","1","1231","0","0"
"081519","12:49:35","265032689","test","2","mask_prime_negative","217","4","59","0","394","0","0"
"081519","12:50:51","565504645","practice","1","prime_positive_practice","3","0","0","0","100","0","0"
"081519","12:50:51","565504645","practice","1","intention_check_positive_practice","4","0","0","0","2500","0","0"
"081519","12:50:51","565504645","practice","1","mask_prime_positive_practice","5","0","0","1","2862","0","0"
"081519","12:50:51","565504645","practice","1","prime_positive_practice","6","0","0","0","100","0","0"
"081519","12:50:51","565504645","practice","1","intention_check_positive_practice","7","0","0","0","2500","0","0"
"081519","12:50:51","565504645","practice","1","mask_prime_positive_practice","8","0","0","1","1152","0","0"
"081519","12:50:51","565504645","practice","1","prime_negative_practice","9","0","0","0","100","0","0"
"081519","12:50:51","565504645","practice","1","intention_check_negative_practice","10","0","0","1","1837","0","0"
"081519","12:50:51","565504645","practice","1","mask_prime_negative_practice","11","0","0","0","75","0","0"
"081519","12:50:51","565504645","practice","1","prime_positive_practice","12","0","0","0","100","0","0"
"081519","12:50:51","565504645","practice","1","intention_check_positive_practice","13","0","0","1","862","0","0"
"081519","12:50:51","565504645","practice","1","mask_prime_positive_practice","14","0","0","1","2345","0","0"
"081519","12:50:51","565504645","practice","1","prime_negative_practice","15","0","0","0","100","0","0"
"081519","12:50:51","565504645","practice","1","intention_check_negative_practice","16","0","0","1","1726","0","0"
"081519","12:50:51","565504645","practice","1","mask_prime_negative_practice","17","0","0","1","656","0","0"
"081519","12:50:51","565504645","practice","1","prime_positive_practice","18","0","0","0","100","0","0"
"081519","12:50:51","565504645","practice","1","intention_check_positive_practice","19","0","0","1","2133","0","0"
"081519","12:50:51","565504645","practice","1","mask_prime_positive_practice","20","0","0","0","582","0","0"
"081519","12:50:51","565504645","practice","1","prime_negative_practice","21","0","0","0","100","0","0"
"081519","12:50:51","565504645","practice","1","intention_check_negative_practice","22","0","0","1","563","0","0"
"081519","12:50:51","565504645","practice","1","mask_prime_negative_practice","23","0","0","0","656","0","0"
"081519","12:50:51","565504645","practice","1","prime_negative_practice","24","0","0","0","100","0","0"
"081519","12:50:51","565504645","practice","1","intention_check_negative_practice","25","0","0","1","557","0","0"
"081519","12:50:51","565504645","practice","1","mask_prime_negative_practice","26","0","0","0","137","0","0"
"081519","12:50:51","565504645","practice","1","prime_positive_practice","27","0","0","0","100","0","0"
"081519","12:50:51","565504645","practice","1","intention_check_positive_practice","28","0","0","1","1665","0","0"
"081519","12:50:51","565504645","practice","1","mask_prime_positive_practice","29","0","0","1","201","0","0"
"081519","12:50:51","565504645","practice","1","prime_negative_practice","30","0","0","0","100","0","0"
"081519","12:50:51","565504645","practice","1","intention_check_negative_practice","31","0","0","0","2500","0","0"
"081519","12:50:51","565504645","practice","1","mask_prime_negative_practice","32","0","0","0","730","0","0"
"081519","12:50:51","565504645","test","2","prime_positive","2","0","0","0","100","0","0"
"081519","12:50:51","565504645","test","2","intention_check_positive","3","0","0","0","2500","0","0"
"081519","12:50:51","565504645","test","2","mask_prime_positive","4","11","16","1","3427","0","0"
"081519","12:50:51","565504645","test","2","prime_positive","5","11","16","0","100","0","0"
"081519","12:50:51","565504645","test","2","intention_check_positive","6","11","16","0","2500","0","0"
"081519","12:50:51","565504645","test","2","mask_prime_positive","7","12","19","1","668","0","0"
"081519","12:50:51","565504645","test","2","prime_positive","8","12","19","0","100","0","0"
"081519","12:50:51","565504645","test","2","intention_check_positive","9","12","19","0","2500","0","0"
"081519","12:50:51","565504645","test","2","mask_prime_positive","10","9","61","0","353","0","0"
"081519","12:50:51","565504645","test","2","prime_positive","11","9","61","0","100","0","0"
"081519","12:50:51","565504645","test","2","intention_check_positive","12","9","61","0","2500","0","0"
"081519","12:50:51","565504645","test","2","mask_prime_positive","13","6","49","1","293","0","0"
"081519","12:50:51","565504645","test","2","prime_positive","14","6","49","0","100","0","0"
"081519","12:50:51","565504645","test","2","intention_check_positive","15","6","49","0","2500","0","0"
"081519","12:50:51","565504645","test","2","mask_prime_positive","16","7","31","1","273","0","0"
"081519","12:50:51","565504645","test","2","prime_positive","17","7","31","0","100","0","0"
"081519","12:50:51","565504645","test","2","intention_check_positive","18","7","31","0","2500","0","0"
"081519","12:50:51","565504645","test","2","mask_prime_positive","19","8","2","1","342","0","0"
"081519","12:50:51","565504645","test","2","prime_positive","20","8","2","0","100","0","0"
"081519","12:50:51","565504645","test","2","intention_check_positive","21","8","2","0","2500","0","0"
"081519","12:50:51","565504645","test","2","mask_prime_positive","22","5","52","1","214","0","0"
"081519","12:50:51","565504645","test","2","prime_positive","23","5","52","0","100","0","0"
"081519","12:50:51","565504645","test","2","intention_check_positive","24","5","52","0","2500","0","0"
"081519","12:50:51","565504645","test","2","mask_prime_positive","25","10","47","1","204","0","0"
"081519","12:50:51","565504645","test","2","prime_negative","26","10","47","0","100","0","0"
"081519","12:50:51","565504645","test","2","intention_check_negative","27","10","47","0","2500","0","0"
"081519","12:50:51","565504645","test","2","mask_prime_negative","28","4","38","1","288","0","0"
"081519","12:50:51","565504645","test","2","prime_positive","29","4","38","0","100","0","0"
"081519","12:50:51","565504645","test","2","intention_check_positive","30","4","38","0","2500","0","0"
"081519","12:50:51","565504645","test","2","mask_prime_positive","31","1","67","1","235","0","0"
"081519","12:50:51","565504645","test","2","prime_negative","32","1","67","0","100","0","0"
"081519","12:50:51","565504645","test","2","intention_check_negative","33","1","67","0","2500","0","0"
"081519","12:50:51","565504645","test","2","mask_prime_negative","34","9","50","0","194","0","0"
"081519","12:50:51","565504645","test","2","prime_positive","35","9","50","0","100","0","0"
"081519","12:50:51","565504645","test","2","intention_check_positive","36","9","50","0","2500","0","0"
"081519","12:50:51","565504645","test","2","mask_prime_positive","37","11","51","1","239","0","0"
"081519","12:50:51","565504645","test","2","prime_positive","38","11","51","0","100","0","0"
"081519","12:50:51","565504645","test","2","intention_check_positive","39","11","51","0","2500","0","0"
"081519","12:50:51","565504645","test","2","mask_prime_positive","40","7","64","1","327","0","0"
"081519","12:50:51","565504645","test","2","prime_negative","41","7","64","0","100","0","0"
"081519","12:50:51","565504645","test","2","intention_check_negative","42","7","64","0","2500","0","0"
"081519","12:50:51","565504645","test","2","mask_prime_negative","43","11","69","1","1507","0","0"
"081519","12:50:51","565504645","test","2","prime_negative","44","11","69","0","100","0","0"
"081519","12:50:51","565504645","test","2","intention_check_negative","45","11","69","0","2500","0","0"
"081519","12:50:51","565504645","test","2","mask_prime_negative","46","2","6","1","5061","0","0"
"081519","12:50:51","565504645","test","2","prime_negative","47","2","6","0","100","0","0"
"081519","12:50:51","565504645","test","2","intention_check_negative","48","2","6","0","2500","0","0"
"081519","12:50:51","565504645","test","2","mask_prime_negative","49","6","71","1","353","0","0"
"081519","12:50:51","565504645","test","2","prime_negative","50","6","71","0","100","0","0"
"081519","12:50:51","565504645","test","2","intention_check_negative","51","6","71","0","2500","0","0"
"081519","12:50:51","565504645","test","2","mask_prime_negative","52","3","36","1","424","0","0"
"081519","12:50:51","565504645","test","2","prime_positive","53","3","36","0","100","0","0"
"081519","12:50:51","565504645","test","2","intention_check_positive","54","3","36","0","2500","0","0"
"081519","12:50:51","565504645","test","2","mask_prime_positive","55","5","57","1","310","0","0"
"081519","12:50:51","565504645","test","2","prime_positive","56","5","57","0","100","0","0"
"081519","12:50:51","565504645","test","2","intention_check_positive","57","5","57","0","2500","0","0"
"081519","12:50:51","565504645","test","2","mask_prime_positive","58","6","9","1","325","0","0"
"081519","12:50:51","565504645","test","2","prime_negative","59","6","9","0","100","0","0"
"081519","12:50:51","565504645","test","2","intention_check_negative","60","6","9","0","2500","0","0"
"081519","12:50:51","565504645","test","2","mask_prime_negative","61","12","26","0","274","0","0"
"081519","12:50:51","565504645","test","2","prime_positive","62","12","26","0","100","0","0"
"081519","12:50:51","565504645","test","2","intention_check_positive","63","12","26","0","2500","0","0"
"081519","12:50:51","565504645","test","2","mask_prime_positive","64","8","8","1","87","0","0"
"081519","12:50:51","565504645","test","2","prime_positive","65","8","8","0","100","0","0"
"081519","12:50:51","565504645","test","2","intention_check_positive","66","8","8","0","2500","0","0"
"081519","12:50:51","565504645","test","2","mask_prime_positive","67","12","65","1","445","0","0"
"081519","12:50:51","565504645","test","2","prime_positive","68","12","65","0","100","0","0"
"081519","12:50:51","565504645","test","2","intention_check_positive","69","12","65","0","2500","0","0"
"081519","12:50:51","565504645","test","2","mask_prime_positive","70","2","54","1","378","0","0"
"081519","12:50:51","565504645","test","2","prime_negative","71","2","54","0","100","0","0"
"081519","12:50:51","565504645","test","2","intention_check_negative","72","2","54","0","2500","0","0"
"081519","12:50:51","565504645","test","2","mask_prime_negative","73","11","72","1","3553","0","0"
"081519","12:50:51","565504645","test","2","prime_negative","74","11","72","0","100","0","0"
"081519","12:50:51","565504645","test","2","intention_check_negative","75","11","72","0","2500","0","0"
"081519","12:50:51","565504645","test","2","mask_prime_negative","76","9","27","0","319","0","0"
"081519","12:50:51","565504645","test","2","prime_negative","77","9","27","0","100","0","0"
"081519","12:50:51","565504645","test","2","intention_check_negative","78","9","27","0","2500","0","0"
"081519","12:50:51","565504645","test","2","mask_prime_negative","79","6","34","1","2093","0","0"
"081519","12:50:51","565504645","test","2","prime_negative","80","6","34","0","100","0","0"
"081519","12:50:51","565504645","test","2","intention_check_negative","81","6","34","1","1344","0","0"
"081519","12:50:51","565504645","test","2","mask_prime_negative","82","7","37","0","29","0","0"
"081519","12:50:51","565504645","test","2","prime_positive","83","7","37","0","100","0","0"
"081519","12:50:51","565504645","test","2","intention_check_positive","84","7","37","0","2500","0","0"
"081519","12:50:51","565504645","test","2","mask_prime_positive","85","9","15","1","821","0","0"
"081519","12:50:51","565504645","test","2","prime_positive","86","9","15","0","100","0","0"
"081519","12:50:51","565504645","test","2","intention_check_positive","87","9","15","0","2500","0","0"
"081519","12:50:51","565504645","test","2","mask_prime_positive","88","4","53","1","297","0","0"
"081519","12:50:51","565504645","test","2","prime_negative","89","4","53","0","100","0","0"
"081519","12:50:51","565504645","test","2","intention_check_negative","90","4","53","1","968","0","0"
"081519","12:50:51","565504645","test","2","mask_prime_negative","91","3","62","0","320","0","0"
"081519","12:50:51","565504645","test","2","prime_negative","92","3","62","0","100","0","0"
"081519","12:50:51","565504645","test","2","intention_check_negative","93","3","62","1","1484","0","0"
"081519","12:50:51","565504645","test","2","mask_prime_negative","94","5","7","0","509","0","0"
"081519","12:50:51","565504645","test","2","prime_positive","95","5","7","0","100","0","0"
"081519","12:50:51","565504645","test","2","intention_check_positive","96","5","7","0","2500","0","0"
"081519","12:50:51","565504645","test","2","mask_prime_positive","97","3","13","1","426","0","0"
"081519","12:50:51","565504645","test","2","prime_positive","98","3","13","0","100","0","0"
"081519","12:50:51","565504645","test","2","intention_check_positive","99","3","13","0","2500","0","0"
"081519","12:50:51","565504645","test","2","mask_prime_positive","100","4","18","1","587","0","0"
"081519","12:50:51","565504645","test","2","prime_negative","101","4","18","0","100","0","0"
"081519","12:50:51","565504645","test","2","intention_check_negative","102","4","18","1","978","0","0"
"081519","12:50:51","565504645","test","2","mask_prime_negative","103","8","66","0","416","0","0"
"081519","12:50:51","565504645","test","2","prime_negative","104","8","66","0","100","0","0"
"081519","12:50:51","565504645","test","2","intention_check_negative","105","8","66","0","2500","0","0"
"081519","12:50:51","565504645","test","2","mask_prime_negative","106","12","63","1","545","0","0"
"081519","12:50:51","565504645","test","2","prime_negative","107","12","63","0","100","0","0"
"081519","12:50:51","565504645","test","2","intention_check_negative","108","12","63","0","2500","0","0"
"081519","12:50:51","565504645","test","2","mask_prime_negative","109","1","40","0","259","0","0"
"081519","12:50:51","565504645","test","2","prime_negative","110","1","40","0","100","0","0"
"081519","12:50:51","565504645","test","2","intention_check_negative","111","1","40","0","2500","0","0"
"081519","12:50:51","565504645","test","2","mask_prime_negative","112","4","1","0","821","0","0"
"081519","12:50:51","565504645","test","2","prime_negative","113","4","1","0","100","0","0"
"081519","12:50:51","565504645","test","2","intention_check_negative","114","4","1","0","2500","0","0"
"081519","12:50:51","565504645","test","2","mask_prime_negative","115","2","41","0","1171","0","0"
"081519","12:50:51","565504645","test","2","prime_negative","116","2","41","0","100","0","0"
"081519","12:50:51","565504645","test","2","intention_check_negative","117","2","41","0","2500","0","0"
"081519","12:50:51","565504645","test","2","mask_prime_negative","118","10","28","1","349","0","0"
"081519","12:50:51","565504645","test","2","prime_positive","119","10","28","0","100","0","0"
"081519","12:50:51","565504645","test","2","intention_check_positive","120","10","28","0","2500","0","0"
"081519","12:50:51","565504645","test","2","mask_prime_positive","121","12","3","1","983","0","0"
"081519","12:50:51","565504645","test","2","prime_negative","122","12","3","0","100","0","0"
"081519","12:50:51","565504645","test","2","intention_check_negative","123","12","3","0","2500","0","0"
"081519","12:50:51","565504645","test","2","mask_prime_negative","124","4","4","1","278","0","0"
"081519","12:50:51","565504645","test","2","prime_positive","125","4","4","0","100","0","0"
"081519","12:50:51","565504645","test","2","intention_check_positive","126","4","4","0","2500","0","0"
"081519","12:50:51","565504645","test","2","mask_prime_positive","127","3","24","1","625","0","0"
"081519","12:50:51","565504645","test","2","prime_negative","128","3","24","0","100","0","0"
"081519","12:50:51","565504645","test","2","intention_check_negative","129","3","24","0","2500","0","0"
"081519","12:50:51","565504645","test","2","mask_prime_negative","130","8","59","1","2902","0","0"
"081519","12:50:51","565504645","test","2","prime_negative","131","8","59","0","100","0","0"
"081519","12:50:51","565504645","test","2","intention_check_negative","132","8","59","0","2500","0","0"
"081519","12:50:51","565504645","test","2","mask_prime_negative","133","12","23","1","305","0","0"
"081519","12:50:51","565504645","test","2","prime_negative","134","12","23","0","100","0","0"
"081519","12:50:51","565504645","test","2","intention_check_negative","135","12","23","1","1106","0","0"
"081519","12:50:51","565504645","test","2","mask_prime_negative","136","9","5","0","300","0","0"
"081519","12:50:51","565504645","test","2","prime_negative","137","9","5","0","100","0","0"
"081519","12:50:51","565504645","test","2","intention_check_negative","138","9","5","1","779","0","0"
"081519","12:50:51","565504645","test","2","mask_prime_negative","139","3","35","0","264","0","0"
"081519","12:50:51","565504645","test","2","prime_positive","140","3","35","0","100","0","0"
"081519","12:50:51","565504645","test","2","intention_check_positive","141","3","35","0","2500","0","0"
"081519","12:50:51","565504645","test","2","mask_prime_positive","142","11","42","1","324","0","0"
"081519","12:50:51","565504645","test","2","prime_positive","143","11","42","0","100","0","0"
"081519","12:50:51","565504645","test","2","intention_check_positive","144","11","42","0","2500","0","0"
"081519","12:50:51","565504645","test","2","mask_prime_positive","145","7","14","1","390","0","0"
"081519","12:50:51","565504645","test","2","prime_negative","146","7","14","0","100","0","0"
"081519","12:50:51","565504645","test","2","intention_check_negative","147","7","14","0","2500","0","0"
"081519","12:50:51","565504645","test","2","mask_prime_negative","148","11","12","1","328","0","0"
"081519","12:50:51","565504645","test","2","prime_positive","149","11","12","0","100","0","0"
"081519","12:50:51","565504645","test","2","intention_check_positive","150","11","12","0","2500","0","0"
"081519","12:50:51","565504645","test","2","mask_prime_positive","151","2","43","1","342","0","0"
"081519","12:50:51","565504645","test","2","prime_negative","152","2","43","0","100","0","0"
"081519","12:50:51","565504645","test","2","intention_check_negative","153","2","43","0","2500","0","0"
"081519","12:50:51","565504645","test","2","mask_prime_negative","154","7","68","0","1316","0","0"
"081519","12:50:51","565504645","test","2","prime_positive","155","7","68","0","100","0","0"
"081519","12:50:51","565504645","test","2","intention_check_positive","156","7","68","0","2500","0","0"
"081519","12:50:51","565504645","test","2","mask_prime_positive","157","6","44","1","306","0","0"
"081519","12:50:51","565504645","test","2","prime_positive","158","6","44","0","100","0","0"
"081519","12:50:51","565504645","test","2","intention_check_positive","159","6","44","0","2500","0","0"
"081519","12:50:51","565504645","test","2","mask_prime_positive","160","10","10","1","349","0","0"
"081519","12:50:51","565504645","test","2","prime_positive","161","10","10","0","100","0","0"
"081519","12:50:51","565504645","test","2","intention_check_positive","162","10","10","0","2500","0","0"
"081519","12:50:51","565504645","test","2","mask_prime_positive","163","9","22","1","406","0","0"
"081519","12:50:51","565504645","test","2","prime_positive","164","9","22","0","100","0","0"
"081519","12:50:51","565504645","test","2","intention_check_positive","165","9","22","0","2500","0","0"
"081519","12:50:51","565504645","test","2","mask_prime_positive","166","8","56","1","306","0","0"
"081519","12:50:51","565504645","test","2","prime_negative","167","8","56","0","100","0","0"
"081519","12:50:51","565504645","test","2","intention_check_negative","168","8","56","0","2500","0","0"
"081519","12:50:51","565504645","test","2","mask_prime_negative","169","1","29","0","304","0","0"
"081519","12:50:51","565504645","test","2","prime_negative","170","1","29","0","100","0","0"
"081519","12:50:51","565504645","test","2","intention_check_negative","171","1","29","0","2500","0","0"
"081519","12:50:51","565504645","test","2","mask_prime_negative","172","2","60","0","700","0","0"
"081519","12:50:51","565504645","test","2","prime_positive","173","2","60","0","100","0","0"
"081519","12:50:51","565504645","test","2","intention_check_positive","174","2","60","0","2500","0","0"
"081519","12:50:51","565504645","test","2","mask_prime_positive","175","1","70","1","402","0","0"
"081519","12:50:51","565504645","test","2","prime_negative","176","1","70","0","100","0","0"
"081519","12:50:51","565504645","test","2","intention_check_negative","177","1","70","0","2500","0","0"
"081519","12:50:51","565504645","test","2","mask_prime_negative","178","5","20","1","1350","0","0"
"081519","12:50:51","565504645","test","2","prime_positive","179","5","20","0","100","0","0"
"081519","12:50:51","565504645","test","2","intention_check_positive","180","5","20","1","1232","0","0"
"081519","12:50:51","565504645","test","2","mask_prime_positive","181","5","25","1","245","0","0"
"081519","12:50:51","565504645","test","2","prime_negative","182","5","25","0","100","0","0"
"081519","12:50:51","565504645","test","2","intention_check_negative","183","5","25","0","2500","0","0"
"081519","12:50:51","565504645","test","2","mask_prime_negative","184","6","11","1","363","0","0"
"081519","12:50:51","565504645","test","2","prime_positive","185","6","11","0","100","0","0"
"081519","12:50:51","565504645","test","2","intention_check_positive","186","6","11","0","2500","0","0"
"081519","12:50:51","565504645","test","2","mask_prime_positive","187","3","39","1","304","0","0"
"081519","12:50:51","565504645","test","2","prime_negative","188","3","39","0","100","0","0"
"081519","12:50:51","565504645","test","2","intention_check_negative","189","3","39","0","2500","0","0"
"081519","12:50:51","565504645","test","2","mask_prime_negative","190","10","53","0","612","0","0"
"081519","12:50:51","565504645","test","2","prime_positive","191","10","53","0","100","0","0"
"081519","12:50:51","565504645","test","2","intention_check_positive","192","10","53","0","2500","0","0"
"081519","12:50:51","565504645","test","2","mask_prime_positive","193","8","66","1","1993","0","0"
"081519","12:50:51","565504645","test","2","prime_negative","194","8","66","0","100","0","0"
"081519","12:50:51","565504645","test","2","intention_check_negative","195","8","66","0","2500","0","0"
"081519","12:50:51","565504645","test","2","mask_prime_negative","196","11","20","1","371","0","0"
"081519","12:50:51","565504645","test","2","prime_positive","197","11","20","0","100","0","0"
"081519","12:50:51","565504645","test","2","intention_check_positive","198","11","20","0","2500","0","0"
"081519","12:50:51","565504645","test","2","mask_prime_positive","199","12","51","1","380","0","0"
"081519","12:50:51","565504645","test","2","prime_negative","200","12","51","0","100","0","0"
"081519","12:50:51","565504645","test","2","intention_check_negative","201","12","51","0","2500","0","0"
"081519","12:50:51","565504645","test","2","mask_prime_negative","202","3","46","0","300","0","0"
"081519","12:50:51","565504645","test","2","prime_negative","203","3","46","0","100","0","0"
"081519","12:50:51","565504645","test","2","intention_check_negative","204","3","46","0","2500","0","0"
"081519","12:50:51","565504645","test","2","mask_prime_negative","205","2","58","0","314","0","0"
"081519","12:50:51","565504645","test","2","prime_negative","206","2","58","0","100","0","0"
"081519","12:50:51","565504645","test","2","intention_check_negative","207","2","58","0","2500","0","0"
"081519","12:50:51","565504645","test","2","mask_prime_negative","208","1","23","1","589","0","0"
"081519","12:50:51","565504645","test","2","prime_positive","209","1","23","0","100","0","0"
"081519","12:50:51","565504645","test","2","intention_check_positive","210","1","23","0","2500","0","0"
"081519","12:50:51","565504645","test","2","mask_prime_positive","211","2","55","1","473","0","0"
"081519","12:50:51","565504645","test","2","prime_negative","212","2","55","0","100","0","0"
"081519","12:50:51","565504645","test","2","intention_check_negative","213","2","55","0","2500","0","0"
"081519","12:50:51","565504645","test","2","mask_prime_negative","214","8","33","0","1602","0","0"
"081519","12:50:51","565504645","test","2","prime_positive","215","8","33","0","100","0","0"
