date,time,subject,blockcode,blocknum,prime_type,trialnum,values.primestim,values.targetstim,correct,latency,trial.prime_obama.totalpercentcorrect,trial.prime_trump.totalpercentcorrect,influenced,trump_prime,obama_prime,pol_amp_effect,negative_prime,positive_prime,normed_amp_effect,awareness,demand_pn,demand_to,influence_general_pn,influence_general_to,intentionality_pn,intentionality_to,politics,self_exclusion_1,self_exclusion_1other,unintentionality_pn,unintentionality_to,influence_rate_pol,influence_rate_norm,party
100918,14:30:06,462350836,test,2,1,2,1,1,1,518,100,0,0,0.5,0.6111111111111112,0.11111111111111116,0.5,0.6388888888888888,0.13888888888888884,most,My responses were based on what I thought the researcher wanted me to say,My responses were based on what I thought the researcher wanted me to say,a few,a few,I don't know,less than half,a little democratic,"Yes, use my data",,I don't know,none,0.3194444444444444,0.041666666666666664,1
100918,14:30:06,462350836,test,2,1,4,3,61,0,76,50,0,0,0.5,0.6111111111111112,0.11111111111111116,0.5,0.6388888888888888,0.13888888888888884,most,My responses were based on what I thought the researcher wanted me to say,My responses were based on what I thought the researcher wanted me to say,a few,a few,I don't know,less than half,a little democratic,"Yes, use my data",,I don't know,none,0.3194444444444444,0.041666666666666664,1
100918,14:30:06,462350836,test,2,0,6,5,51,0,476,50,0,1,0.5,0.6111111111111112,0.11111111111111116,0.5,0.6388888888888888,0.13888888888888884,most,My responses were based on what I thought the researcher wanted me to say,My responses were based on what I thought the researcher wanted me to say,a few,a few,I don't know,less than half,a little democratic,"Yes, use my data",,I don't know,none,0.3194444444444444,0.041666666666666664,1
100918,14:30:06,462350836,test,2,0,8,2,38,1,424,50,50,1,0.5,0.6111111111111112,0.11111111111111116,0.5,0.6388888888888888,0.13888888888888884,most,My responses were based on what I thought the researcher wanted me to say,My responses were based on what I thought the researcher wanted me to say,a few,a few,I don't know,less than half,a little democratic,"Yes, use my data",,I don't know,none,0.3194444444444444,0.041666666666666664,1
100918,14:30:06,462350836,test,2,0,10,4,32,0,313,50,33,1,0.5,0.6111111111111112,0.11111111111111116,0.5,0.6388888888888888,0.13888888888888884,most,My responses were based on what I thought the researcher wanted me to say,My responses were based on what I thought the researcher wanted me to say,a few,a few,I don't know,less than half,a little democratic,"Yes, use my data",,I don't know,none,0.3194444444444444,0.041666666666666664,1
100918,14:30:06,462350836,test,2,1,12,1,20,0,612,33,33,1,0.5,0.6111111111111112,0.11111111111111116,0.5,0.6388888888888888,0.13888888888888884,most,My responses were based on what I thought the researcher wanted me to say,My responses were based on what I thought the researcher wanted me to say,a few,a few,I don't know,less than half,a little democratic,"Yes, use my data",,I don't know,none,0.3194444444444444,0.041666666666666664,1
100918,14:30:06,462350836,test,2,1,14,2,7,1,1960,50,33,1,0.5,0.6111111111111112,0.11111111111111116,0.5,0.6388888888888888,0.13888888888888884,most,My responses were based on what I thought the researcher wanted me to say,My responses were based on what I thought the researcher wanted me to say,a few,a few,I don't know,less than half,a little democratic,"Yes, use my data",,I don't know,none,0.3194444444444444,0.041666666666666664,1
100918,14:30:06,462350836,test,2,1,16,5,54,1,36,60,33,1,0.5,0.6111111111111112,0.11111111111111116,0.5,0.6388888888888888,0.13888888888888884,most,My responses were based on what I thought the researcher wanted me to say,My responses were based on what I thought the researcher wanted me to say,a few,a few,I don't know,less than half,a little democratic,"Yes, use my data",,I don't know,none,0.3194444444444444,0.041666666666666664,1
100918,14:30:06,462350836,test,2,1,18,4,62,0,259,50,33,1,0.5,0.6111111111111112,0.11111111111111116,0.5,0.6388888888888888,0.13888888888888884,most,My responses were based on what I thought the researcher wanted me to say,My responses were based on what I thought the researcher wanted me to say,a few,a few,I don't know,less than half,a little democratic,"Yes, use my data",,I don't know,none,0.3194444444444444,0.041666666666666664,1
100918,14:30:06,462350836,test,2,0,20,5,65,0,236,50,25,1,0.5,0.6111111111111112,0.11111111111111116,0.5,0.6388888888888888,0.13888888888888884,most,My responses were based on what I thought the researcher wanted me to say,My responses were based on what I thought the researcher wanted me to say,a few,a few,I don't know,less than half,a little democratic,"Yes, use my data",,I don't know,none,0.3194444444444444,0.041666666666666664,1
100918,14:30:06,462350836,test,2,0,22,6,48,0,596,50,20,1,0.5,0.6111111111111112,0.11111111111111116,0.5,0.6388888888888888,0.13888888888888884,most,My responses were based on what I thought the researcher wanted me to say,My responses were based on what I thought the researcher wanted me to say,a few,a few,I don't know,less than half,a little democratic,"Yes, use my data",,I don't know,none,0.3194444444444444,0.041666666666666664,1
100918,14:30:06,462350836,test,2,0,24,3,11,0,75,50,16,1,0.5,0.6111111111111112,0.11111111111111116,0.5,0.6388888888888888,0.13888888888888884,most,My responses were based on what I thought the researcher wanted me to say,My responses were based on what I thought the researcher wanted me to say,a few,a few,I don't know,less than half,a little democratic,"Yes, use my data",,I don't know,none,0.3194444444444444,0.041666666666666664,1
100918,14:30:06,462350836,test,2,0,26,1,14,1,1202,50,28,1,0.5,0.6111111111111112,0.11111111111111116,0.5,0.6388888888888888,0.13888888888888884,most,My responses were based on what I thought the researcher wanted me to say,My responses were based on what I thought the researcher wanted me to say,a few,a few,I don't know,less than half,a little democratic,"Yes, use my data",,I don't know,none,0.3194444444444444,0.041666666666666664,1
100918,14:30:06,462350836,test,2,1,28,6,64,1,1088,57,28,1,0.5,0.6111111111111112,0.11111111111111116,0.5,0.6388888888888888,0.13888888888888884,most,My responses were based on what I thought the researcher wanted me to say,My responses were based on what I thought the researcher wanted me to say,a few,a few,I don't know,less than half,a little democratic,"Yes, use my data",,I don't know,none,0.3194444444444444,0.041666666666666664,1
100918,14:30:06,462350836,test,2,1,30,6,57,0,706,50,28,1,0.5,0.6111111111111112,0.11111111111111116,0.5,0.6388888888888888,0.13888888888888884,most,My responses were based on what I thought the researcher wanted me to say,My responses were based on what I thought the researcher wanted me to say,a few,a few,I don't know,less than half,a little democratic,"Yes, use my data",,I don't know,none,0.3194444444444444,0.041666666666666664,1
100918,14:30:06,462350836,test,2,1,32,3,3,0,436,44,28,1,0.5,0.6111111111111112,0.11111111111111116,0.5,0.6388888888888888,0.13888888888888884,most,My responses were based on what I thought the researcher wanted me to say,My responses were based on what I thought the researcher wanted me to say,a few,a few,I don't know,less than half,a little democratic,"Yes, use my data",,I don't know,none,0.3194444444444444,0.041666666666666664,1
100918,14:30:06,462350836,test,2,0,34,2,59,1,151,44,37,1,0.5,0.6111111111111112,0.11111111111111116,0.5,0.6388888888888888,0.13888888888888884,most,My responses were based on what I thought the researcher wanted me to say,My responses were based on what I thought the researcher wanted me to say,a few,a few,I don't know,less than half,a little democratic,"Yes, use my data",,I don't know,none,0.3194444444444444,0.041666666666666664,1
100918,14:30:06,462350836,test,2,0,36,6,71,1,517,44,44,1,0.5,0.6111111111111112,0.11111111111111116,0.5,0.6388888888888888,0.13888888888888884,most,My responses were based on what I thought the researcher wanted me to say,My responses were based on what I thought the researcher wanted me to say,a few,a few,I don't know,less than half,a little democratic,"Yes, use my data",,I don't know,none,0.3194444444444444,0.041666666666666664,1
100918,14:30:06,462350836,test,2,0,38,5,60,1,346,44,50,1,0.5,0.6111111111111112,0.11111111111111116,0.5,0.6388888888888888,0.13888888888888884,most,My responses were based on what I thought the researcher wanted me to say,My responses were based on what I thought the researcher wanted me to say,a few,a few,I don't know,less than half,a little democratic,"Yes, use my data",,I don't know,none,0.3194444444444444,0.041666666666666664,1
100918,14:30:06,462350836,test,2,0,40,1,49,0,328,44,45,1,0.5,0.6111111111111112,0.11111111111111116,0.5,0.6388888888888888,0.13888888888888884,most,My responses were based on what I thought the researcher wanted me to say,My responses were based on what I thought the researcher wanted me to say,a few,a few,I don't know,less than half,a little democratic,"Yes, use my data",,I don't know,none,0.3194444444444444,0.041666666666666664,1
100918,14:30:06,462350836,test,2,1,42,2,45,1,91,50,45,1,0.5,0.6111111111111112,0.11111111111111116,0.5,0.6388888888888888,0.13888888888888884,most,My responses were based on what I thought the researcher wanted me to say,My responses were based on what I thought the researcher wanted me to say,a few,a few,I don't know,less than half,a little democratic,"Yes, use my data",,I don't know,none,0.3194444444444444,0.041666666666666664,1
100918,14:30:06,462350836,test,2,0,44,3,67,1,1549,50,50,1,0.5,0.6111111111111112,0.11111111111111116,0.5,0.6388888888888888,0.13888888888888884,most,My responses were based on what I thought the researcher wanted me to say,My responses were based on what I thought the researcher wanted me to say,a few,a few,I don't know,less than half,a little democratic,"Yes, use my data",,I don't know,none,0.3194444444444444,0.041666666666666664,1
100918,14:30:06,462350836,test,2,1,46,5,10,1,443,54,50,1,0.5,0.6111111111111112,0.11111111111111116,0.5,0.6388888888888888,0.13888888888888884,most,My responses were based on what I thought the researcher wanted me to say,My responses were based on what I thought the researcher wanted me to say,a few,a few,I don't know,less than half,a little democratic,"Yes, use my data",,I don't know,none,0.3194444444444444,0.041666666666666664,1
100918,14:30:06,462350836,test,2,0,48,4,5,0,217,54,46,1,0.5,0.6111111111111112,0.11111111111111116,0.5,0.6388888888888888,0.13888888888888884,most,My responses were based on what I thought the researcher wanted me to say,My responses were based on what I thought the researcher wanted me to say,a few,a few,I don't know,less than half,a little democratic,"Yes, use my data",,I don't know,none,0.3194444444444444,0.041666666666666664,1
100918,14:30:06,462350836,test,2,1,50,4,12,0,122,50,46,1,0.5,0.6111111111111112,0.11111111111111116,0.5,0.6388888888888888,0.13888888888888884,most,My responses were based on what I thought the researcher wanted me to say,My responses were based on what I thought the researcher wanted me to say,a few,a few,I don't know,less than half,a little democratic,"Yes, use my data",,I don't know,none,0.3194444444444444,0.041666666666666664,1
100918,14:30:06,462350836,test,2,1,52,1,58,1,299,53,46,0,0.5,0.6111111111111112,0.11111111111111116,0.5,0.6388888888888888,0.13888888888888884,most,My responses were based on what I thought the researcher wanted me to say,My responses were based on what I thought the researcher wanted me to say,a few,a few,I don't know,less than half,a little democratic,"Yes, use my data",,I don't know,none,0.3194444444444444,0.041666666666666664,1
100918,14:30:06,462350836,test,2,1,54,4,4,0,357,50,46,0,0.5,0.6111111111111112,0.11111111111111116,0.5,0.6388888888888888,0.13888888888888884,most,My responses were based on what I thought the researcher wanted me to say,My responses were based on what I thought the researcher wanted me to say,a few,a few,I don't know,less than half,a little democratic,"Yes, use my data",,I don't know,none,0.3194444444444444,0.041666666666666664,1
100918,14:30:06,462350836,test,2,0,56,4,19,1,539,50,50,0,0.5,0.6111111111111112,0.11111111111111116,0.5,0.6388888888888888,0.13888888888888884,most,My responses were based on what I thought the researcher wanted me to say,My responses were based on what I thought the researcher wanted me to say,a few,a few,I don't know,less than half,a little democratic,"Yes, use my data",,I don't know,none,0.3194444444444444,0.041666666666666664,1
100918,14:30:06,462350836,test,2,0,58,5,41,1,808,50,53,0,0.5,0.6111111111111112,0.11111111111111116,0.5,0.6388888888888888,0.13888888888888884,most,My responses were based on what I thought the researcher wanted me to say,My responses were based on what I thought the researcher wanted me to say,a few,a few,I don't know,less than half,a little democratic,"Yes, use my data",,I don't know,none,0.3194444444444444,0.041666666666666664,1
100918,14:30:06,462350836,test,2,0,60,3,47,0,715,50,50,0,0.5,0.6111111111111112,0.11111111111111116,0.5,0.6388888888888888,0.13888888888888884,most,My responses were based on what I thought the researcher wanted me to say,My responses were based on what I thought the researcher wanted me to say,a few,a few,I don't know,less than half,a little democratic,"Yes, use my data",,I don't know,none,0.3194444444444444,0.041666666666666664,1
100918,14:30:06,462350836,test,2,1,62,1,66,1,687,53,50,0,0.5,0.6111111111111112,0.11111111111111116,0.5,0.6388888888888888,0.13888888888888884,most,My responses were based on what I thought the researcher wanted me to say,My responses were based on what I thought the researcher wanted me to say,a few,a few,I don't know,less than half,a little democratic,"Yes, use my data",,I don't know,none,0.3194444444444444,0.041666666666666664,1
100918,14:30:06,462350836,test,2,0,64,1,63,1,493,53,52,0,0.5,0.6111111111111112,0.11111111111111116,0.5,0.6388888888888888,0.13888888888888884,most,My responses were based on what I thought the researcher wanted me to say,My responses were based on what I thought the researcher wanted me to say,a few,a few,I don't know,less than half,a little democratic,"Yes, use my data",,I don't know,none,0.3194444444444444,0.041666666666666664,1
100918,14:30:06,462350836,test,2,1,66,5,17,0,926,50,52,0,0.5,0.6111111111111112,0.11111111111111116,0.5,0.6388888888888888,0.13888888888888884,most,My responses were based on what I thought the researcher wanted me to say,My responses were based on what I thought the researcher wanted me to say,a few,a few,I don't know,less than half,a little democratic,"Yes, use my data",,I don't know,none,0.3194444444444444,0.041666666666666664,1
100918,14:30:06,462350836,test,2,1,68,3,37,1,2159,52,52,0,0.5,0.6111111111111112,0.11111111111111116,0.5,0.6388888888888888,0.13888888888888884,most,My responses were based on what I thought the researcher wanted me to say,My responses were based on what I thought the researcher wanted me to say,a few,a few,I don't know,less than half,a little democratic,"Yes, use my data",,I don't know,none,0.3194444444444444,0.041666666666666664,1
100918,14:30:06,462350836,test,2,0,70,2,31,0,1245,52,50,0,0.5,0.6111111111111112,0.11111111111111116,0.5,0.6388888888888888,0.13888888888888884,most,My responses were based on what I thought the researcher wanted me to say,My responses were based on what I thought the researcher wanted me to say,a few,a few,I don't know,less than half,a little democratic,"Yes, use my data",,I don't know,none,0.3194444444444444,0.041666666666666664,1
100918,14:30:06,462350836,test,2,1,72,6,56,0,610,50,50,0,0.5,0.6111111111111112,0.11111111111111116,0.5,0.6388888888888888,0.13888888888888884,most,My responses were based on what I thought the researcher wanted me to say,My responses were based on what I thought the researcher wanted me to say,a few,a few,I don't know,less than half,a little democratic,"Yes, use my data",,I don't know,none,0.3194444444444444,0.041666666666666664,1
100918,14:30:06,462350836,test,2,1,74,2,68,1,687,52,50,0,0.5,0.6111111111111112,0.11111111111111116,0.5,0.6388888888888888,0.13888888888888884,most,My responses were based on what I thought the researcher wanted me to say,My responses were based on what I thought the researcher wanted me to say,a few,a few,I don't know,less than half,a little democratic,"Yes, use my data",,I don't know,none,0.3194444444444444,0.041666666666666664,1
100918,14:30:06,462350836,test,2,1,76,5,18,1,163,55,50,0,0.5,0.6111111111111112,0.11111111111111116,0.5,0.6388888888888888,0.13888888888888884,most,My responses were based on what I thought the researcher wanted me to say,My responses were based on what I thought the researcher wanted me to say,a few,a few,I don't know,less than half,a little democratic,"Yes, use my data",,I don't know,none,0.3194444444444444,0.041666666666666664,1
100918,14:30:06,462350836,test,2,0,78,6,52,0,494,55,47,0,0.5,0.6111111111111112,0.11111111111111116,0.5,0.6388888888888888,0.13888888888888884,most,My responses were based on what I thought the researcher wanted me to say,My responses were based on what I thought the researcher wanted me to say,a few,a few,I don't know,less than half,a little democratic,"Yes, use my data",,I don't know,none,0.3194444444444444,0.041666666666666664,1
100918,14:30:06,462350836,test,2,0,80,1,42,1,484,55,50,0,0.5,0.6111111111111112,0.11111111111111116,0.5,0.6388888888888888,0.13888888888888884,most,My responses were based on what I thought the researcher wanted me to say,My responses were based on what I thought the researcher wanted me to say,a few,a few,I don't know,less than half,a little democratic,"Yes, use my data",,I don't know,none,0.3194444444444444,0.041666666666666664,1
100918,14:30:06,462350836,test,2,0,82,2,50,0,64,55,47,0,0.5,0.6111111111111112,0.11111111111111116,0.5,0.6388888888888888,0.13888888888888884,most,My responses were based on what I thought the researcher wanted me to say,My responses were based on what I thought the researcher wanted me to say,a few,a few,I don't know,less than half,a little democratic,"Yes, use my data",,I don't know,none,0.3194444444444444,0.041666666666666664,1
100918,14:30:06,462350836,test,2,1,84,3,39,1,905,57,47,0,0.5,0.6111111111111112,0.11111111111111116,0.5,0.6388888888888888,0.13888888888888884,most,My responses were based on what I thought the researcher wanted me to say,My responses were based on what I thought the researcher wanted me to say,a few,a few,I don't know,less than half,a little democratic,"Yes, use my data",,I don't know,none,0.3194444444444444,0.041666666666666664,1
100918,14:30:06,462350836,test,2,0,86,3,34,1,3679,57,50,0,0.5,0.6111111111111112,0.11111111111111116,0.5,0.6388888888888888,0.13888888888888884,most,My responses were based on what I thought the researcher wanted me to say,My responses were based on what I thought the researcher wanted me to say,a few,a few,I don't know,less than half,a little democratic,"Yes, use my data",,I don't know,none,0.3194444444444444,0.041666666666666664,1
100918,14:30:06,462350836,test,2,1,88,6,70,1,659,59,50,0,0.5,0.6111111111111112,0.11111111111111116,0.5,0.6388888888888888,0.13888888888888884,most,My responses were based on what I thought the researcher wanted me to say,My responses were based on what I thought the researcher wanted me to say,a few,a few,I don't know,less than half,a little democratic,"Yes, use my data",,I don't know,none,0.3194444444444444,0.041666666666666664,1
100918,14:30:06,462350836,test,2,1,90,2,69,0,383,56,50,0,0.5,0.6111111111111112,0.11111111111111116,0.5,0.6388888888888888,0.13888888888888884,most,My responses were based on what I thought the researcher wanted me to say,My responses were based on what I thought the researcher wanted me to say,a few,a few,I don't know,less than half,a little democratic,"Yes, use my data",,I don't know,none,0.3194444444444444,0.041666666666666664,1
100918,14:30:06,462350836,test,2,1,92,4,26,1,437,58,50,0,0.5,0.6111111111111112,0.11111111111111116,0.5,0.6388888888888888,0.13888888888888884,most,My responses were based on what I thought the researcher wanted me to say,My responses were based on what I thought the researcher wanted me to say,a few,a few,I don't know,less than half,a little democratic,"Yes, use my data",,I don't know,none,0.3194444444444444,0.041666666666666664,1
100918,14:30:06,462350836,test,2,1,94,1,6,1,1009,60,50,0,0.5,0.6111111111111112,0.11111111111111116,0.5,0.6388888888888888,0.13888888888888884,most,My responses were based on what I thought the researcher wanted me to say,My responses were based on what I thought the researcher wanted me to say,a few,a few,I don't know,less than half,a little democratic,"Yes, use my data",,I don't know,none,0.3194444444444444,0.041666666666666664,1
100918,14:30:06,462350836,test,2,1,96,3,27,0,172,57,50,0,0.5,0.6111111111111112,0.11111111111111116,0.5,0.6388888888888888,0.13888888888888884,most,My responses were based on what I thought the researcher wanted me to say,My responses were based on what I thought the researcher wanted me to say,a few,a few,I don't know,less than half,a little democratic,"Yes, use my data",,I don't know,none,0.3194444444444444,0.041666666666666664,1
100918,14:30:06,462350836,test,2,0,98,4,24,1,897,57,52,0,0.5,0.6111111111111112,0.11111111111111116,0.5,0.6388888888888888,0.13888888888888884,most,My responses were based on what I thought the researcher wanted me to say,My responses were based on what I thought the researcher wanted me to say,a few,a few,I don't know,less than half,a little democratic,"Yes, use my data",,I don't know,none,0.3194444444444444,0.041666666666666664,1
100918,14:30:06,462350836,test,2,0,100,6,16,0,185,57,50,0,0.5,0.6111111111111112,0.11111111111111116,0.5,0.6388888888888888,0.13888888888888884,most,My responses were based on what I thought the researcher wanted me to say,My responses were based on what I thought the researcher wanted me to say,a few,a few,I don't know,less than half,a little democratic,"Yes, use my data",,I don't know,none,0.3194444444444444,0.041666666666666664,1
100918,14:30:06,462350836,test,2,0,102,5,21,1,2624,57,52,0,0.5,0.6111111111111112,0.11111111111111116,0.5,0.6388888888888888,0.13888888888888884,most,My responses were based on what I thought the researcher wanted me to say,My responses were based on what I thought the researcher wanted me to say,a few,a few,I don't know,less than half,a little democratic,"Yes, use my data",,I don't know,none,0.3194444444444444,0.041666666666666664,1
100918,14:30:06,462350836,test,2,0,104,3,28,0,619,57,50,0,0.5,0.6111111111111112,0.11111111111111116,0.5,0.6388888888888888,0.13888888888888884,most,My responses were based on what I thought the researcher wanted me to say,My responses were based on what I thought the researcher wanted me to say,a few,a few,I don't know,less than half,a little democratic,"Yes, use my data",,I don't know,none,0.3194444444444444,0.041666666666666664,1
100918,14:30:06,462350836,test,2,1,106,5,8,1,497,59,50,0,0.5,0.6111111111111112,0.11111111111111116,0.5,0.6388888888888888,0.13888888888888884,most,My responses were based on what I thought the researcher wanted me to say,My responses were based on what I thought the researcher wanted me to say,a few,a few,I don't know,less than half,a little democratic,"Yes, use my data",,I don't know,none,0.3194444444444444,0.041666666666666664,1
100918,14:30:06,462350836,test,2,1,108,6,43,0,595,57,50,0,0.5,0.6111111111111112,0.11111111111111116,0.5,0.6388888888888888,0.13888888888888884,most,My responses were based on what I thought the researcher wanted me to say,My responses were based on what I thought the researcher wanted me to say,a few,a few,I don't know,less than half,a little democratic,"Yes, use my data",,I don't know,none,0.3194444444444444,0.041666666666666664,1
100918,14:30:06,462350836,test,2,1,110,1,44,1,568,58,50,0,0.5,0.6111111111111112,0.11111111111111116,0.5,0.6388888888888888,0.13888888888888884,most,My responses were based on what I thought the researcher wanted me to say,My responses were based on what I thought the researcher wanted me to say,a few,a few,I don't know,less than half,a little democratic,"Yes, use my data",,I don't know,none,0.3194444444444444,0.041666666666666664,1
100918,14:30:06,462350836,test,2,0,112,2,46,1,525,58,51,0,0.5,0.6111111111111112,0.11111111111111116,0.5,0.6388888888888888,0.13888888888888884,most,My responses were based on what I thought the researcher wanted me to say,My responses were based on what I thought the researcher wanted me to say,a few,a few,I don't know,less than half,a little democratic,"Yes, use my data",,I don't know,none,0.3194444444444444,0.041666666666666664,1
100918,14:30:06,462350836,test,2,1,114,2,13,1,87,60,51,0,0.5,0.6111111111111112,0.11111111111111116,0.5,0.6388888888888888,0.13888888888888884,most,My responses were based on what I thought the researcher wanted me to say,My responses were based on what I thought the researcher wanted me to say,a few,a few,I don't know,less than half,a little democratic,"Yes, use my data",,I don't know,none,0.3194444444444444,0.041666666666666664,1
100918,14:30:06,462350836,test,2,0,116,4,40,0,244,60,50,0,0.5,0.6111111111111112,0.11111111111111116,0.5,0.6388888888888888,0.13888888888888884,most,My responses were based on what I thought the researcher wanted me to say,My responses were based on what I thought the researcher wanted me to say,a few,a few,I don't know,less than half,a little democratic,"Yes, use my data",,I don't know,none,0.3194444444444444,0.041666666666666664,1
100918,14:30:06,462350836,test,2,1,118,4,36,0,159,58,50,0,0.5,0.6111111111111112,0.11111111111111116,0.5,0.6388888888888888,0.13888888888888884,most,My responses were based on what I thought the researcher wanted me to say,My responses were based on what I thought the researcher wanted me to say,a few,a few,I don't know,less than half,a little democratic,"Yes, use my data",,I don't know,none,0.3194444444444444,0.041666666666666664,1
100918,14:30:06,462350836,test,2,0,120,5,15,1,606,58,51,0,0.5,0.6111111111111112,0.11111111111111116,0.5,0.6388888888888888,0.13888888888888884,most,My responses were based on what I thought the researcher wanted me to say,My responses were based on what I thought the researcher wanted me to say,a few,a few,I don't know,less than half,a little democratic,"Yes, use my data",,I don't know,none,0.3194444444444444,0.041666666666666664,1
100918,14:30:06,462350836,test,2,1,122,5,2,1,624,59,51,0,0.5,0.6111111111111112,0.11111111111111116,0.5,0.6388888888888888,0.13888888888888884,most,My responses were based on what I thought the researcher wanted me to say,My responses were based on what I thought the researcher wanted me to say,a few,a few,I don't know,less than half,a little democratic,"Yes, use my data",,I don't know,none,0.3194444444444444,0.041666666666666664,1
100918,14:30:06,462350836,test,2,0,124,1,9,0,2097,59,50,0,0.5,0.6111111111111112,0.11111111111111116,0.5,0.6388888888888888,0.13888888888888884,most,My responses were based on what I thought the researcher wanted me to say,My responses were based on what I thought the researcher wanted me to say,a few,a few,I don't know,less than half,a little democratic,"Yes, use my data",,I don't know,none,0.3194444444444444,0.041666666666666664,1
100918,14:30:06,462350836,test,2,1,126,3,52,1,731,60,50,0,0.5,0.6111111111111112,0.11111111111111116,0.5,0.6388888888888888,0.13888888888888884,most,My responses were based on what I thought the researcher wanted me to say,My responses were based on what I thought the researcher wanted me to say,a few,a few,I don't know,less than half,a little democratic,"Yes, use my data",,I don't know,none,0.3194444444444444,0.041666666666666664,1
100918,14:30:06,462350836,test,2,0,128,6,61,1,98,60,51,0,0.5,0.6111111111111112,0.11111111111111116,0.5,0.6388888888888888,0.13888888888888884,most,My responses were based on what I thought the researcher wanted me to say,My responses were based on what I thought the researcher wanted me to say,a few,a few,I don't know,less than half,a little democratic,"Yes, use my data",,I don't know,none,0.3194444444444444,0.041666666666666664,1
100918,14:30:06,462350836,test,2,0,130,5,41,0,359,60,50,0,0.5,0.6111111111111112,0.11111111111111116,0.5,0.6388888888888888,0.13888888888888884,most,My responses were based on what I thought the researcher wanted me to say,My responses were based on what I thought the researcher wanted me to say,a few,a few,I don't know,less than half,a little democratic,"Yes, use my data",,I don't know,none,0.3194444444444444,0.041666666666666664,1
100918,14:30:06,462350836,test,2,1,132,4,49,0,31,58,50,0,0.5,0.6111111111111112,0.11111111111111116,0.5,0.6388888888888888,0.13888888888888884,most,My responses were based on what I thought the researcher wanted me to say,My responses were based on what I thought the researcher wanted me to say,a few,a few,I don't know,less than half,a little democratic,"Yes, use my data",,I don't know,none,0.3194444444444444,0.041666666666666664,1
100918,14:30:06,462350836,test,2,1,134,1,69,1,386,60,50,0,0.5,0.6111111111111112,0.11111111111111116,0.5,0.6388888888888888,0.13888888888888884,most,My responses were based on what I thought the researcher wanted me to say,My responses were based on what I thought the researcher wanted me to say,a few,a few,I don't know,less than half,a little democratic,"Yes, use my data",,I don't know,none,0.3194444444444444,0.041666666666666664,1
100918,14:30:06,462350836,test,2,0,136,3,23,1,607,60,51,0,0.5,0.6111111111111112,0.11111111111111116,0.5,0.6388888888888888,0.13888888888888884,most,My responses were based on what I thought the researcher wanted me to say,My responses were based on what I thought the researcher wanted me to say,a few,a few,I don't know,less than half,a little democratic,"Yes, use my data",,I don't know,none,0.3194444444444444,0.041666666666666664,1
100918,14:30:06,462350836,test,2,0,138,6,21,0,402,60,50,0,0.5,0.6111111111111112,0.11111111111111116,0.5,0.6388888888888888,0.13888888888888884,most,My responses were based on what I thought the researcher wanted me to say,My responses were based on what I thought the researcher wanted me to say,a few,a few,I don't know,less than half,a little democratic,"Yes, use my data",,I don't know,none,0.3194444444444444,0.041666666666666664,1
100918,14:30:06,462350836,test,2,0,140,1,57,0,1039,60,48,0,0.5,0.6111111111111112,0.11111111111111116,0.5,0.6388888888888888,0.13888888888888884,most,My responses were based on what I thought the researcher wanted me to say,My responses were based on what I thought the researcher wanted me to say,a few,a few,I don't know,less than half,a little democratic,"Yes, use my data",,I don't know,none,0.3194444444444444,0.041666666666666664,1
100918,14:30:06,462350836,test,2,1,142,6,59,1,396,61,48,0,0.5,0.6111111111111112,0.11111111111111116,0.5,0.6388888888888888,0.13888888888888884,most,My responses were based on what I thought the researcher wanted me to say,My responses were based on what I thought the researcher wanted me to say,a few,a few,I don't know,less than half,a little democratic,"Yes, use my data",,I don't know,none,0.3194444444444444,0.041666666666666664,1
100918,14:30:06,462350836,test,2,0,144,4,17,1,940,61,50,0,0.5,0.6111111111111112,0.11111111111111116,0.5,0.6388888888888888,0.13888888888888884,most,My responses were based on what I thought the researcher wanted me to say,My responses were based on what I thought the researcher wanted me to say,a few,a few,I don't know,less than half,a little democratic,"Yes, use my data",,I don't know,none,0.3194444444444444,0.041666666666666664,1
100918,16:42:06,469316046,test,2,0,2,4,37,0,484,0,0,1,0.027777777777777776,0.9722222222222222,0.9444444444444444,0.027777777777777776,0.9444444444444444,0.9166666666666666,all,My responses were genuinely based on whether I was influenced or not,My responses were genuinely based on whether I was influenced or not,most,most,most,most,very democratic,"Yes, use my data",,most,most,0.9583333333333334,0.9583333333333334,1
100918,16:42:06,469316046,test,2,0,4,2,15,0,309,0,0,1,0.027777777777777776,0.9722222222222222,0.9444444444444444,0.027777777777777776,0.9444444444444444,0.9166666666666666,all,My responses were genuinely based on whether I was influenced or not,My responses were genuinely based on whether I was influenced or not,most,most,most,most,very democratic,"Yes, use my data",,most,most,0.9583333333333334,0.9583333333333334,1
100918,16:42:06,469316046,test,2,1,6,3,12,1,305,100,0,1,0.027777777777777776,0.9722222222222222,0.9444444444444444,0.027777777777777776,0.9444444444444444,0.9166666666666666,all,My responses were genuinely based on whether I was influenced or not,My responses were genuinely based on whether I was influenced or not,most,most,most,most,very democratic,"Yes, use my data",,most,most,0.9583333333333334,0.9583333333333334,1
100918,16:42:06,469316046,test,2,1,8,1,70,1,375,100,0,1,0.027777777777777776,0.9722222222222222,0.9444444444444444,0.027777777777777776,0.9444444444444444,0.9166666666666666,all,My responses were genuinely based on whether I was influenced or not,My responses were genuinely based on whether I was influenced or not,most,most,most,most,very democratic,"Yes, use my data",,most,most,0.9583333333333334,0.9583333333333334,1
100918,16:42:06,469316046,test,2,0,10,1,19,0,315,100,0,1,0.027777777777777776,0.9722222222222222,0.9444444444444444,0.027777777777777776,0.9444444444444444,0.9166666666666666,all,My responses were genuinely based on whether I was influenced or not,My responses were genuinely based on whether I was influenced or not,most,most,most,most,very democratic,"Yes, use my data",,most,most,0.9583333333333334,0.9583333333333334,1
100918,16:42:06,469316046,test,2,1,12,3,31,1,336,100,0,1,0.027777777777777776,0.9722222222222222,0.9444444444444444,0.027777777777777776,0.9444444444444444,0.9166666666666666,all,My responses were genuinely based on whether I was influenced or not,My responses were genuinely based on whether I was influenced or not,most,most,most,most,very democratic,"Yes, use my data",,most,most,0.9583333333333334,0.9583333333333334,1
100918,16:42:06,469316046,test,2,1,14,4,33,1,222,100,0,1,0.027777777777777776,0.9722222222222222,0.9444444444444444,0.027777777777777776,0.9444444444444444,0.9166666666666666,all,My responses were genuinely based on whether I was influenced or not,My responses were genuinely based on whether I was influenced or not,most,most,most,most,very democratic,"Yes, use my data",,most,most,0.9583333333333334,0.9583333333333334,1
100918,16:42:06,469316046,test,2,1,16,2,66,1,309,100,0,1,0.027777777777777776,0.9722222222222222,0.9444444444444444,0.027777777777777776,0.9444444444444444,0.9166666666666666,all,My responses were genuinely based on whether I was influenced or not,My responses were genuinely based on whether I was influenced or not,most,most,most,most,very democratic,"Yes, use my data",,most,most,0.9583333333333334,0.9583333333333334,1
100918,16:42:06,469316046,test,2,1,18,6,50,1,375,100,0,0,0.027777777777777776,0.9722222222222222,0.9444444444444444,0.027777777777777776,0.9444444444444444,0.9166666666666666,all,My responses were genuinely based on whether I was influenced or not,My responses were genuinely based on whether I was influenced or not,most,most,most,most,very democratic,"Yes, use my data",,most,most,0.9583333333333334,0.9583333333333334,1
100918,16:42:06,469316046,test,2,0,20,4,1,1,1167,100,25,0,0.027777777777777776,0.9722222222222222,0.9444444444444444,0.027777777777777776,0.9444444444444444,0.9166666666666666,all,My responses were genuinely based on whether I was influenced or not,My responses were genuinely based on whether I was influenced or not,most,most,most,most,very democratic,"Yes, use my data",,most,most,0.9583333333333334,0.9583333333333334,1
100918,16:42:06,469316046,test,2,1,22,5,3,1,521,100,25,1,0.027777777777777776,0.9722222222222222,0.9444444444444444,0.027777777777777776,0.9444444444444444,0.9166666666666666,all,My responses were genuinely based on whether I was influenced or not,My responses were genuinely based on whether I was influenced or not,most,most,most,most,very democratic,"Yes, use my data",,most,most,0.9583333333333334,0.9583333333333334,1
100918,16:42:06,469316046,test,2,0,24,5,48,0,695,100,20,1,0.027777777777777776,0.9722222222222222,0.9444444444444444,0.027777777777777776,0.9444444444444444,0.9166666666666666,all,My responses were genuinely based on whether I was influenced or not,My responses were genuinely based on whether I was influenced or not,most,most,most,most,very democratic,"Yes, use my data",,most,most,0.9583333333333334,0.9583333333333334,1
100918,16:42:06,469316046,test,2,1,26,2,64,1,348,100,20,1,0.027777777777777776,0.9722222222222222,0.9444444444444444,0.027777777777777776,0.9444444444444444,0.9166666666666666,all,My responses were genuinely based on whether I was influenced or not,My responses were genuinely based on whether I was influenced or not,most,most,most,most,very democratic,"Yes, use my data",,most,most,0.9583333333333334,0.9583333333333334,1
100918,16:42:06,469316046,test,2,0,28,3,38,0,302,100,16,1,0.027777777777777776,0.9722222222222222,0.9444444444444444,0.027777777777777776,0.9444444444444444,0.9166666666666666,all,My responses were genuinely based on whether I was influenced or not,My responses were genuinely based on whether I was influenced or not,most,most,most,most,very democratic,"Yes, use my data",,most,most,0.9583333333333334,0.9583333333333334,1
100918,16:42:06,469316046,test,2,1,30,1,58,1,213,100,16,1,0.027777777777777776,0.9722222222222222,0.9444444444444444,0.027777777777777776,0.9444444444444444,0.9166666666666666,all,My responses were genuinely based on whether I was influenced or not,My responses were genuinely based on whether I was influenced or not,most,most,most,most,very democratic,"Yes, use my data",,most,most,0.9583333333333334,0.9583333333333334,1
100918,16:42:06,469316046,test,2,0,32,6,21,0,553,100,14,1,0.027777777777777776,0.9722222222222222,0.9444444444444444,0.027777777777777776,0.9444444444444444,0.9166666666666666,all,My responses were genuinely based on whether I was influenced or not,My responses were genuinely based on whether I was influenced or not,most,most,most,most,very democratic,"Yes, use my data",,most,most,0.9583333333333334,0.9583333333333334,1
100918,16:42:06,469316046,test,2,0,34,3,22,0,624,100,12,1,0.027777777777777776,0.9722222222222222,0.9444444444444444,0.027777777777777776,0.9444444444444444,0.9166666666666666,all,My responses were genuinely based on whether I was influenced or not,My responses were genuinely based on whether I was influenced or not,most,most,most,most,very democratic,"Yes, use my data",,most,most,0.9583333333333334,0.9583333333333334,1
100918,16:42:06,469316046,test,2,1,36,6,71,1,294,100,12,1,0.027777777777777776,0.9722222222222222,0.9444444444444444,0.027777777777777776,0.9444444444444444,0.9166666666666666,all,My responses were genuinely based on whether I was influenced or not,My responses were genuinely based on whether I was influenced or not,most,most,most,most,very democratic,"Yes, use my data",,most,most,0.9583333333333334,0.9583333333333334,1
100918,16:42:06,469316046,test,2,1,38,3,54,1,349,100,12,1,0.027777777777777776,0.9722222222222222,0.9444444444444444,0.027777777777777776,0.9444444444444444,0.9166666666666666,all,My responses were genuinely based on whether I was influenced or not,My responses were genuinely based on whether I was influenced or not,most,most,most,most,very democratic,"Yes, use my data",,most,most,0.9583333333333334,0.9583333333333334,1
100918,16:42:06,469316046,test,2,1,40,4,47,0,668,91,12,0,0.027777777777777776,0.9722222222222222,0.9444444444444444,0.027777777777777776,0.9444444444444444,0.9166666666666666,all,My responses were genuinely based on whether I was influenced or not,My responses were genuinely based on whether I was influenced or not,most,most,most,most,very democratic,"Yes, use my data",,most,most,0.9583333333333334,0.9583333333333334,1
100918,16:42:06,469316046,test,2,1,42,5,65,1,244,92,12,1,0.027777777777777776,0.9722222222222222,0.9444444444444444,0.027777777777777776,0.9444444444444444,0.9166666666666666,all,My responses were genuinely based on whether I was influenced or not,My responses were genuinely based on whether I was influenced or not,most,most,most,most,very democratic,"Yes, use my data",,most,most,0.9583333333333334,0.9583333333333334,1
100918,16:42:06,469316046,test,2,1,44,1,23,1,431,92,12,1,0.027777777777777776,0.9722222222222222,0.9444444444444444,0.027777777777777776,0.9444444444444444,0.9166666666666666,all,My responses were genuinely based on whether I was influenced or not,My responses were genuinely based on whether I was influenced or not,most,most,most,most,very democratic,"Yes, use my data",,most,most,0.9583333333333334,0.9583333333333334,1
100918,16:42:06,469316046,test,2,0,46,1,44,0,231,92,11,1,0.027777777777777776,0.9722222222222222,0.9444444444444444,0.027777777777777776,0.9444444444444444,0.9166666666666666,all,My responses were genuinely based on whether I was influenced or not,My responses were genuinely based on whether I was influenced or not,most,most,most,most,very democratic,"Yes, use my data",,most,most,0.9583333333333334,0.9583333333333334,1
100918,16:42:06,469316046,test,2,1,48,6,61,1,355,93,11,1,0.027777777777777776,0.9722222222222222,0.9444444444444444,0.027777777777777776,0.9444444444444444,0.9166666666666666,all,My responses were genuinely based on whether I was influenced or not,My responses were genuinely based on whether I was influenced or not,most,most,most,most,very democratic,"Yes, use my data",,most,most,0.9583333333333334,0.9583333333333334,1
100918,16:42:06,469316046,test,2,0,50,6,43,0,435,93,10,1,0.027777777777777776,0.9722222222222222,0.9444444444444444,0.027777777777777776,0.9444444444444444,0.9166666666666666,all,My responses were genuinely based on whether I was influenced or not,My responses were genuinely based on whether I was influenced or not,most,most,most,most,very democratic,"Yes, use my data",,most,most,0.9583333333333334,0.9583333333333334,1
100918,16:42:06,469316046,test,2,0,52,2,30,0,635,93,9,1,0.027777777777777776,0.9722222222222222,0.9444444444444444,0.027777777777777776,0.9444444444444444,0.9166666666666666,all,My responses were genuinely based on whether I was influenced or not,My responses were genuinely based on whether I was influenced or not,most,most,most,most,very democratic,"Yes, use my data",,most,most,0.9583333333333334,0.9583333333333334,1
100918,16:42:06,469316046,test,2,1,54,4,36,1,348,93,9,1,0.027777777777777776,0.9722222222222222,0.9444444444444444,0.027777777777777776,0.9444444444444444,0.9166666666666666,all,My responses were genuinely based on whether I was influenced or not,My responses were genuinely based on whether I was influenced or not,most,most,most,most,very democratic,"Yes, use my data",,most,most,0.9583333333333334,0.9583333333333334,1
100918,16:42:06,469316046,test,2,0,56,4,7,0,324,93,8,1,0.027777777777777776,0.9722222222222222,0.9444444444444444,0.027777777777777776,0.9444444444444444,0.9166666666666666,all,My responses were genuinely based on whether I was influenced or not,My responses were genuinely based on whether I was influenced or not,most,most,most,most,very democratic,"Yes, use my data",,most,most,0.9583333333333334,0.9583333333333334,1
100918,16:42:06,469316046,test,2,1,58,2,13,1,320,94,8,1,0.027777777777777776,0.9722222222222222,0.9444444444444444,0.027777777777777776,0.9444444444444444,0.9166666666666666,all,My responses were genuinely based on whether I was influenced or not,My responses were genuinely based on whether I was influenced or not,most,most,most,most,very democratic,"Yes, use my data",,most,most,0.9583333333333334,0.9583333333333334,1
100918,16:42:06,469316046,test,2,0,60,5,35,0,202,94,7,1,0.027777777777777776,0.9722222222222222,0.9444444444444444,0.027777777777777776,0.9444444444444444,0.9166666666666666,all,My responses were genuinely based on whether I was influenced or not,My responses were genuinely based on whether I was influenced or not,most,most,most,most,very democratic,"Yes, use my data",,most,most,0.9583333333333334,0.9583333333333334,1
100918,16:42:06,469316046,test,2,1,62,3,40,1,280,94,7,1,0.027777777777777776,0.9722222222222222,0.9444444444444444,0.027777777777777776,0.9444444444444444,0.9166666666666666,all,My responses were genuinely based on whether I was influenced or not,My responses were genuinely based on whether I was influenced or not,most,most,most,most,very democratic,"Yes, use my data",,most,most,0.9583333333333334,0.9583333333333334,1
100918,16:42:06,469316046,test,2,1,64,5,32,1,315,94,7,1,0.027777777777777776,0.9722222222222222,0.9444444444444444,0.027777777777777776,0.9444444444444444,0.9166666666666666,all,My responses were genuinely based on whether I was influenced or not,My responses were genuinely based on whether I was influenced or not,most,most,most,most,very democratic,"Yes, use my data",,most,most,0.9583333333333334,0.9583333333333334,1
100918,16:42:06,469316046,test,2,0,66,5,28,0,189,94,7,1,0.027777777777777776,0.9722222222222222,0.9444444444444444,0.027777777777777776,0.9444444444444444,0.9166666666666666,all,My responses were genuinely based on whether I was influenced or not,My responses were genuinely based on whether I was influenced or not,most,most,most,most,very democratic,"Yes, use my data",,most,most,0.9583333333333334,0.9583333333333334,1
100918,16:42:06,469316046,test,2,1,68,3,62,1,306,95,7,1,0.027777777777777776,0.9722222222222222,0.9444444444444444,0.027777777777777776,0.9444444444444444,0.9166666666666666,all,My responses were genuinely based on whether I was influenced or not,My responses were genuinely based on whether I was influenced or not,most,most,most,most,very democratic,"Yes, use my data",,most,most,0.9583333333333334,0.9583333333333334,1
100918,16:42:06,469316046,test,2,0,70,2,14,0,215,95,6,1,0.027777777777777776,0.9722222222222222,0.9444444444444444,0.027777777777777776,0.9444444444444444,0.9166666666666666,all,My responses were genuinely based on whether I was influenced or not,My responses were genuinely based on whether I was influenced or not,most,most,most,most,very democratic,"Yes, use my data",,most,most,0.9583333333333334,0.9583333333333334,1
100918,16:42:06,469316046,test,2,0,72,6,24,0,239,95,6,1,0.027777777777777776,0.9722222222222222,0.9444444444444444,0.027777777777777776,0.9444444444444444,0.9166666666666666,all,My responses were genuinely based on whether I was influenced or not,My responses were genuinely based on whether I was influenced or not,most,most,most,most,very democratic,"Yes, use my data",,most,most,0.9583333333333334,0.9583333333333334,1
100918,16:42:06,469316046,test,2,1,74,6,2,1,149,95,6,1,0.027777777777777776,0.9722222222222222,0.9444444444444444,0.027777777777777776,0.9444444444444444,0.9166666666666666,all,My responses were genuinely based on whether I was influenced or not,My responses were genuinely based on whether I was influenced or not,most,most,most,most,very democratic,"Yes, use my data",,most,most,0.9583333333333334,0.9583333333333334,1
100918,16:42:06,469316046,test,2,1,76,1,4,1,336,95,6,1,0.027777777777777776,0.9722222222222222,0.9444444444444444,0.027777777777777776,0.9444444444444444,0.9166666666666666,all,My responses were genuinely based on whether I was influenced or not,My responses were genuinely based on whether I was influenced or not,most,most,most,most,very democratic,"Yes, use my data",,most,most,0.9583333333333334,0.9583333333333334,1
100918,16:42:06,469316046,test,2,0,78,4,45,0,261,95,5,1,0.027777777777777776,0.9722222222222222,0.9444444444444444,0.027777777777777776,0.9444444444444444,0.9166666666666666,all,My responses were genuinely based on whether I was influenced or not,My responses were genuinely based on whether I was influenced or not,most,most,most,most,very democratic,"Yes, use my data",,most,most,0.9583333333333334,0.9583333333333334,1
100918,16:42:06,469316046,test,2,1,80,5,42,1,175,95,5,1,0.027777777777777776,0.9722222222222222,0.9444444444444444,0.027777777777777776,0.9444444444444444,0.9166666666666666,all,My responses were genuinely based on whether I was influenced or not,My responses were genuinely based on whether I was influenced or not,most,most,most,most,very democratic,"Yes, use my data",,most,most,0.9583333333333334,0.9583333333333334,1
100918,16:42:06,469316046,test,2,0,82,1,10,0,221,95,5,1,0.027777777777777776,0.9722222222222222,0.9444444444444444,0.027777777777777776,0.9444444444444444,0.9166666666666666,all,My responses were genuinely based on whether I was influenced or not,My responses were genuinely based on whether I was influenced or not,most,most,most,most,very democratic,"Yes, use my data",,most,most,0.9583333333333334,0.9583333333333334,1
100918,16:42:06,469316046,test,2,1,84,2,57,1,174,95,5,1,0.027777777777777776,0.9722222222222222,0.9444444444444444,0.027777777777777776,0.9444444444444444,0.9166666666666666,all,My responses were genuinely based on whether I was influenced or not,My responses were genuinely based on whether I was influenced or not,most,most,most,most,very democratic,"Yes, use my data",,most,most,0.9583333333333334,0.9583333333333334,1
100918,16:42:06,469316046,test,2,0,86,3,17,0,316,95,5,1,0.027777777777777776,0.9722222222222222,0.9444444444444444,0.027777777777777776,0.9444444444444444,0.9166666666666666,all,My responses were genuinely based on whether I was influenced or not,My responses were genuinely based on whether I was influenced or not,most,most,most,most,very democratic,"Yes, use my data",,most,most,0.9583333333333334,0.9583333333333334,1
100918,16:42:06,469316046,test,2,0,88,1,8,0,319,95,5,1,0.027777777777777776,0.9722222222222222,0.9444444444444444,0.027777777777777776,0.9444444444444444,0.9166666666666666,all,My responses were genuinely based on whether I was influenced or not,My responses were genuinely based on whether I was influenced or not,most,most,most,most,very democratic,"Yes, use my data",,most,most,0.9583333333333334,0.9583333333333334,1
100918,16:42:06,469316046,test,2,1,90,4,9,1,530,96,5,1,0.027777777777777776,0.9722222222222222,0.9444444444444444,0.027777777777777776,0.9444444444444444,0.9166666666666666,all,My responses were genuinely based on whether I was influenced or not,My responses were genuinely based on whether I was influenced or not,most,most,most,most,very democratic,"Yes, use my data",,most,most,0.9583333333333334,0.9583333333333334,1
100918,16:42:06,469316046,test,2,0,92,4,34,0,207,96,4,1,0.027777777777777776,0.9722222222222222,0.9444444444444444,0.027777777777777776,0.9444444444444444,0.9166666666666666,all,My responses were genuinely based on whether I was influenced or not,My responses were genuinely based on whether I was influenced or not,most,most,most,most,very democratic,"Yes, use my data",,most,most,0.9583333333333334,0.9583333333333334,1
100918,16:42:06,469316046,test,2,1,94,4,18,1,876,96,4,1,0.027777777777777776,0.9722222222222222,0.9444444444444444,0.027777777777777776,0.9444444444444444,0.9166666666666666,all,My responses were genuinely based on whether I was influenced or not,My responses were genuinely based on whether I was influenced or not,most,most,most,most,very democratic,"Yes, use my data",,most,most,0.9583333333333334,0.9583333333333334,1
100918,16:42:06,469316046,test,2,0,96,6,63,0,242,96,4,1,0.027777777777777776,0.9722222222222222,0.9444444444444444,0.027777777777777776,0.9444444444444444,0.9166666666666666,all,My responses were genuinely based on whether I was influenced or not,My responses were genuinely based on whether I was influenced or not,most,most,most,most,very democratic,"Yes, use my data",,most,most,0.9583333333333334,0.9583333333333334,1
100918,16:42:06,469316046,test,2,0,98,3,20,0,285,96,4,1,0.027777777777777776,0.9722222222222222,0.9444444444444444,0.027777777777777776,0.9444444444444444,0.9166666666666666,all,My responses were genuinely based on whether I was influenced or not,My responses were genuinely based on whether I was influenced or not,most,most,most,most,very democratic,"Yes, use my data",,most,most,0.9583333333333334,0.9583333333333334,1
100918,16:42:06,469316046,test,2,0,100,2,49,0,192,96,4,1,0.027777777777777776,0.9722222222222222,0.9444444444444444,0.027777777777777776,0.9444444444444444,0.9166666666666666,all,My responses were genuinely based on whether I was influenced or not,My responses were genuinely based on whether I was influenced or not,most,most,most,most,very democratic,"Yes, use my data",,most,most,0.9583333333333334,0.9583333333333334,1
100918,16:42:06,469316046,test,2,1,102,1,53,1,102,96,4,1,0.027777777777777776,0.9722222222222222,0.9444444444444444,0.027777777777777776,0.9444444444444444,0.9166666666666666,all,My responses were genuinely based on whether I was influenced or not,My responses were genuinely based on whether I was influenced or not,most,most,most,most,very democratic,"Yes, use my data",,most,most,0.9583333333333334,0.9583333333333334,1
100918,16:42:06,469316046,test,2,0,104,5,39,0,260,96,4,1,0.027777777777777776,0.9722222222222222,0.9444444444444444,0.027777777777777776,0.9444444444444444,0.9166666666666666,all,My responses were genuinely based on whether I was influenced or not,My responses were genuinely based on whether I was influenced or not,most,most,most,most,very democratic,"Yes, use my data",,most,most,0.9583333333333334,0.9583333333333334,1
100918,16:42:06,469316046,test,2,0,106,4,51,0,275,96,3,1,0.027777777777777776,0.9722222222222222,0.9444444444444444,0.027777777777777776,0.9444444444444444,0.9166666666666666,all,My responses were genuinely based on whether I was influenced or not,My responses were genuinely based on whether I was influenced or not,most,most,most,most,very democratic,"Yes, use my data",,most,most,0.9583333333333334,0.9583333333333334,1
100918,16:42:06,469316046,test,2,0,108,6,11,0,191,96,3,1,0.027777777777777776,0.9722222222222222,0.9444444444444444,0.027777777777777776,0.9444444444444444,0.9166666666666666,all,My responses were genuinely based on whether I was influenced or not,My responses were genuinely based on whether I was influenced or not,most,most,most,most,very democratic,"Yes, use my data",,most,most,0.9583333333333334,0.9583333333333334,1
100918,16:42:06,469316046,test,2,0,110,3,41,0,259,96,3,1,0.027777777777777776,0.9722222222222222,0.9444444444444444,0.027777777777777776,0.9444444444444444,0.9166666666666666,all,My responses were genuinely based on whether I was influenced or not,My responses were genuinely based on whether I was influenced or not,most,most,most,most,very democratic,"Yes, use my data",,most,most,0.9583333333333334,0.9583333333333334,1
100918,16:42:06,469316046,test,2,0,112,2,59,0,130,96,3,1,0.027777777777777776,0.9722222222222222,0.9444444444444444,0.027777777777777776,0.9444444444444444,0.9166666666666666,all,My responses were genuinely based on whether I was influenced or not,My responses were genuinely based on whether I was influenced or not,most,most,most,most,very democratic,"Yes, use my data",,most,most,0.9583333333333334,0.9583333333333334,1
100918,16:42:06,469316046,test,2,0,114,1,52,0,20,96,3,1,0.027777777777777776,0.9722222222222222,0.9444444444444444,0.027777777777777776,0.9444444444444444,0.9166666666666666,all,My responses were genuinely based on whether I was influenced or not,My responses were genuinely based on whether I was influenced or not,most,most,most,most,very democratic,"Yes, use my data",,most,most,0.9583333333333334,0.9583333333333334,1
100918,16:42:06,469316046,test,2,0,116,5,29,0,38,96,3,1,0.027777777777777776,0.9722222222222222,0.9444444444444444,0.027777777777777776,0.9444444444444444,0.9166666666666666,all,My responses were genuinely based on whether I was influenced or not,My responses were genuinely based on whether I was influenced or not,most,most,most,most,very democratic,"Yes, use my data",,most,most,0.9583333333333334,0.9583333333333334,1
100918,16:42:06,469316046,test,2,1,118,3,46,1,268,96,3,1,0.027777777777777776,0.9722222222222222,0.9444444444444444,0.027777777777777776,0.9444444444444444,0.9166666666666666,all,My responses were genuinely based on whether I was influenced or not,My responses were genuinely based on whether I was influenced or not,most,most,most,most,very democratic,"Yes, use my data",,most,most,0.9583333333333334,0.9583333333333334,1
100918,16:42:06,469316046,test,2,0,120,1,68,0,246,96,3,1,0.027777777777777776,0.9722222222222222,0.9444444444444444,0.027777777777777776,0.9444444444444444,0.9166666666666666,all,My responses were genuinely based on whether I was influenced or not,My responses were genuinely based on whether I was influenced or not,most,most,most,most,very democratic,"Yes, use my data",,most,most,0.9583333333333334,0.9583333333333334,1
100918,16:42:06,469316046,test,2,1,122,5,6,1,143,96,3,1,0.027777777777777776,0.9722222222222222,0.9444444444444444,0.027777777777777776,0.9444444444444444,0.9166666666666666,all,My responses were genuinely based on whether I was influenced or not,My responses were genuinely based on whether I was influenced or not,most,most,most,most,very democratic,"Yes, use my data",,most,most,0.9583333333333334,0.9583333333333334,1
100918,16:42:06,469316046,test,2,0,124,2,25,0,198,96,3,1,0.027777777777777776,0.9722222222222222,0.9444444444444444,0.027777777777777776,0.9444444444444444,0.9166666666666666,all,My responses were genuinely based on whether I was influenced or not,My responses were genuinely based on whether I was influenced or not,most,most,most,most,very democratic,"Yes, use my data",,most,most,0.9583333333333334,0.9583333333333334,1
100918,16:42:06,469316046,test,2,0,126,4,69,0,123,96,2,1,0.027777777777777776,0.9722222222222222,0.9444444444444444,0.027777777777777776,0.9444444444444444,0.9166666666666666,all,My responses were genuinely based on whether I was influenced or not,My responses were genuinely based on whether I was influenced or not,most,most,most,most,very democratic,"Yes, use my data",,most,most,0.9583333333333334,0.9583333333333334,1
100918,16:42:06,469316046,test,2,1,128,2,1,1,289,96,2,1,0.027777777777777776,0.9722222222222222,0.9444444444444444,0.027777777777777776,0.9444444444444444,0.9166666666666666,all,My responses were genuinely based on whether I was influenced or not,My responses were genuinely based on whether I was influenced or not,most,most,most,most,very democratic,"Yes, use my data",,most,most,0.9583333333333334,0.9583333333333334,1
100918,16:42:06,469316046,test,2,0,130,3,53,0,151,96,2,1,0.027777777777777776,0.9722222222222222,0.9444444444444444,0.027777777777777776,0.9444444444444444,0.9166666666666666,all,My responses were genuinely based on whether I was influenced or not,My responses were genuinely based on whether I was influenced or not,most,most,most,most,very democratic,"Yes, use my data",,most,most,0.9583333333333334,0.9583333333333334,1
100918,16:42:06,469316046,test,2,1,132,6,29,1,254,96,2,1,0.027777777777777776,0.9722222222222222,0.9444444444444444,0.027777777777777776,0.9444444444444444,0.9166666666666666,all,My responses were genuinely based on whether I was influenced or not,My responses were genuinely based on whether I was influenced or not,most,most,most,most,very democratic,"Yes, use my data",,most,most,0.9583333333333334,0.9583333333333334,1
100918,16:42:06,469316046,test,2,1,134,3,55,1,117,96,2,1,0.027777777777777776,0.9722222222222222,0.9444444444444444,0.027777777777777776,0.9444444444444444,0.9166666666666666,all,My responses were genuinely based on whether I was influenced or not,My responses were genuinely based on whether I was influenced or not,most,most,most,most,very democratic,"Yes, use my data",,most,most,0.9583333333333334,0.9583333333333334,1
100918,16:42:06,469316046,test,2,1,136,1,54,1,210,96,2,1,0.027777777777777776,0.9722222222222222,0.9444444444444444,0.027777777777777776,0.9444444444444444,0.9166666666666666,all,My responses were genuinely based on whether I was influenced or not,My responses were genuinely based on whether I was influenced or not,most,most,most,most,very democratic,"Yes, use my data",,most,most,0.9583333333333334,0.9583333333333334,1
100918,16:42:06,469316046,test,2,1,138,6,28,1,186,97,2,1,0.027777777777777776,0.9722222222222222,0.9444444444444444,0.027777777777777776,0.9444444444444444,0.9166666666666666,all,My responses were genuinely based on whether I was influenced or not,My responses were genuinely based on whether I was influenced or not,most,most,most,most,very democratic,"Yes, use my data",,most,most,0.9583333333333334,0.9583333333333334,1
100918,16:42:06,469316046,test,2,0,140,6,18,0,220,97,2,1,0.027777777777777776,0.9722222222222222,0.9444444444444444,0.027777777777777776,0.9444444444444444,0.9166666666666666,all,My responses were genuinely based on whether I was influenced or not,My responses were genuinely based on whether I was influenced or not,most,most,most,most,very democratic,"Yes, use my data",,most,most,0.9583333333333334,0.9583333333333334,1
100918,16:42:06,469316046,test,2,1,142,2,63,1,684,97,2,1,0.027777777777777776,0.9722222222222222,0.9444444444444444,0.027777777777777776,0.9444444444444444,0.9166666666666666,all,My responses were genuinely based on whether I was influenced or not,My responses were genuinely based on whether I was influenced or not,most,most,most,most,very democratic,"Yes, use my data",,most,most,0.9583333333333334,0.9583333333333334,1
100918,16:42:06,469316046,test,2,1,144,4,47,1,300,97,2,1,0.027777777777777776,0.9722222222222222,0.9444444444444444,0.027777777777777776,0.9444444444444444,0.9166666666666666,all,My responses were genuinely based on whether I was influenced or not,My responses were genuinely based on whether I was influenced or not,most,most,most,most,very democratic,"Yes, use my data",,most,most,0.9583333333333334,0.9583333333333334,1
100918,15:48:24,270612844,test,2,1,2,3,24,0,653,0,0,0,0.25,0.5277777777777778,0.2777777777777778,0.4166666666666667,0.7222222222222222,0.3055555555555555,all,My responses were genuinely based on whether I was influenced or not,My responses were genuinely based on whether I was influenced or not,more than half,about half,a few,a few,somewhat democratic,"Yes, use my data",,more than half,about half,0.2361111111111111,0.375,1
100918,15:48:24,270612844,test,2,0,4,6,30,0,382,0,0,1,0.25,0.5277777777777778,0.2777777777777778,0.4166666666666667,0.7222222222222222,0.3055555555555555,all,My responses were genuinely based on whether I was influenced or not,My responses were genuinely based on whether I was influenced or not,more than half,about half,a few,a few,somewhat democratic,"Yes, use my data",,more than half,about half,0.2361111111111111,0.375,1
100918,15:48:24,270612844,test,2,0,6,4,26,0,428,0,0,1,0.25,0.5277777777777778,0.2777777777777778,0.4166666666666667,0.7222222222222222,0.3055555555555555,all,My responses were genuinely based on whether I was influenced or not,My responses were genuinely based on whether I was influenced or not,more than half,about half,a few,a few,somewhat democratic,"Yes, use my data",,more than half,about half,0.2361111111111111,0.375,1
100918,15:48:24,270612844,test,2,0,8,1,65,0,344,0,0,1,0.25,0.5277777777777778,0.2777777777777778,0.4166666666666667,0.7222222222222222,0.3055555555555555,all,My responses were genuinely based on whether I was influenced or not,My responses were genuinely based on whether I was influenced or not,more than half,about half,a few,a few,somewhat democratic,"Yes, use my data",,more than half,about half,0.2361111111111111,0.375,1
100918,15:48:24,270612844,test,2,0,10,6,33,0,276,0,0,1,0.25,0.5277777777777778,0.2777777777777778,0.4166666666666667,0.7222222222222222,0.3055555555555555,all,My responses were genuinely based on whether I was influenced or not,My responses were genuinely based on whether I was influenced or not,more than half,about half,a few,a few,somewhat democratic,"Yes, use my data",,more than half,about half,0.2361111111111111,0.375,1
100918,15:48:24,270612844,test,2,1,12,6,19,1,1039,50,0,1,0.25,0.5277777777777778,0.2777777777777778,0.4166666666666667,0.7222222222222222,0.3055555555555555,all,My responses were genuinely based on whether I was influenced or not,My responses were genuinely based on whether I was influenced or not,more than half,about half,a few,a few,somewhat democratic,"Yes, use my data",,more than half,about half,0.2361111111111111,0.375,1
100918,15:48:24,270612844,test,2,0,14,5,60,0,837,50,0,1,0.25,0.5277777777777778,0.2777777777777778,0.4166666666666667,0.7222222222222222,0.3055555555555555,all,My responses were genuinely based on whether I was influenced or not,My responses were genuinely based on whether I was influenced or not,more than half,about half,a few,a few,somewhat democratic,"Yes, use my data",,more than half,about half,0.2361111111111111,0.375,1
100918,15:48:24,270612844,test,2,0,16,3,41,1,1005,50,16,0,0.25,0.5277777777777778,0.2777777777777778,0.4166666666666667,0.7222222222222222,0.3055555555555555,all,My responses were genuinely based on whether I was influenced or not,My responses were genuinely based on whether I was influenced or not,more than half,about half,a few,a few,somewhat democratic,"Yes, use my data",,more than half,about half,0.2361111111111111,0.375,1
100918,15:48:24,270612844,test,2,0,18,2,36,0,461,50,14,1,0.25,0.5277777777777778,0.2777777777777778,0.4166666666666667,0.7222222222222222,0.3055555555555555,all,My responses were genuinely based on whether I was influenced or not,My responses were genuinely based on whether I was influenced or not,more than half,about half,a few,a few,somewhat democratic,"Yes, use my data",,more than half,about half,0.2361111111111111,0.375,1
100918,15:48:24,270612844,test,2,1,20,1,53,1,1125,66,14,1,0.25,0.5277777777777778,0.2777777777777778,0.4166666666666667,0.7222222222222222,0.3055555555555555,all,My responses were genuinely based on whether I was influenced or not,My responses were genuinely based on whether I was influenced or not,more than half,about half,a few,a few,somewhat democratic,"Yes, use my data",,more than half,about half,0.2361111111111111,0.375,1
100918,15:48:24,270612844,test,2,1,22,3,55,0,743,50,14,0,0.25,0.5277777777777778,0.2777777777777778,0.4166666666666667,0.7222222222222222,0.3055555555555555,all,My responses were genuinely based on whether I was influenced or not,My responses were genuinely based on whether I was influenced or not,more than half,about half,a few,a few,somewhat democratic,"Yes, use my data",,more than half,about half,0.2361111111111111,0.375,1
100918,15:48:24,270612844,test,2,0,24,4,15,0,1088,50,12,1,0.25,0.5277777777777778,0.2777777777777778,0.4166666666666667,0.7222222222222222,0.3055555555555555,all,My responses were genuinely based on whether I was influenced or not,My responses were genuinely based on whether I was influenced or not,more than half,about half,a few,a few,somewhat democratic,"Yes, use my data",,more than half,about half,0.2361111111111111,0.375,1
100918,15:48:24,270612844,test,2,1,26,5,67,1,1048,60,12,1,0.25,0.5277777777777778,0.2777777777777778,0.4166666666666667,0.7222222222222222,0.3055555555555555,all,My responses were genuinely based on whether I was influenced or not,My responses were genuinely based on whether I was influenced or not,more than half,about half,a few,a few,somewhat democratic,"Yes, use my data",,more than half,about half,0.2361111111111111,0.375,1
100918,15:48:24,270612844,test,2,1,28,2,42,1,744,66,12,1,0.25,0.5277777777777778,0.2777777777777778,0.4166666666666667,0.7222222222222222,0.3055555555555555,all,My responses were genuinely based on whether I was influenced or not,My responses were genuinely based on whether I was influenced or not,more than half,about half,a few,a few,somewhat democratic,"Yes, use my data",,more than half,about half,0.2361111111111111,0.375,1
100918,15:48:24,270612844,test,2,0,30,5,1,0,293,66,11,1,0.25,0.5277777777777778,0.2777777777777778,0.4166666666666667,0.7222222222222222,0.3055555555555555,all,My responses were genuinely based on whether I was influenced or not,My responses were genuinely based on whether I was influenced or not,more than half,about half,a few,a few,somewhat democratic,"Yes, use my data",,more than half,about half,0.2361111111111111,0.375,1
100918,15:48:24,270612844,test,2,1,32,4,64,0,839,57,11,0,0.25,0.5277777777777778,0.2777777777777778,0.4166666666666667,0.7222222222222222,0.3055555555555555,all,My responses were genuinely based on whether I was influenced or not,My responses were genuinely based on whether I was influenced or not,more than half,about half,a few,a few,somewhat democratic,"Yes, use my data",,more than half,about half,0.2361111111111111,0.375,1
100918,15:48:24,270612844,test,2,1,34,2,11,1,762,62,11,0,0.25,0.5277777777777778,0.2777777777777778,0.4166666666666667,0.7222222222222222,0.3055555555555555,all,My responses were genuinely based on whether I was influenced or not,My responses were genuinely based on whether I was influenced or not,more than half,about half,a few,a few,somewhat democratic,"Yes, use my data",,more than half,about half,0.2361111111111111,0.375,1
100918,15:48:24,270612844,test,2,0,36,6,66,1,749,62,20,0,0.25,0.5277777777777778,0.2777777777777778,0.4166666666666667,0.7222222222222222,0.3055555555555555,all,My responses were genuinely based on whether I was influenced or not,My responses were genuinely based on whether I was influenced or not,more than half,about half,a few,a few,somewhat democratic,"Yes, use my data",,more than half,about half,0.2361111111111111,0.375,1
100918,15:48:24,270612844,test,2,0,38,1,5,0,798,62,18,0,0.25,0.5277777777777778,0.2777777777777778,0.4166666666666667,0.7222222222222222,0.3055555555555555,all,My responses were genuinely based on whether I was influenced or not,My responses were genuinely based on whether I was influenced or not,more than half,about half,a few,a few,somewhat democratic,"Yes, use my data",,more than half,about half,0.2361111111111111,0.375,1
100918,15:48:24,270612844,test,2,1,40,4,63,0,615,55,18,0,0.25,0.5277777777777778,0.2777777777777778,0.4166666666666667,0.7222222222222222,0.3055555555555555,all,My responses were genuinely based on whether I was influenced or not,My responses were genuinely based on whether I was influenced or not,more than half,about half,a few,a few,somewhat democratic,"Yes, use my data",,more than half,about half,0.2361111111111111,0.375,1
100918,15:48:24,270612844,test,2,1,42,6,50,0,742,50,18,0,0.25,0.5277777777777778,0.2777777777777778,0.4166666666666667,0.7222222222222222,0.3055555555555555,all,My responses were genuinely based on whether I was influenced or not,My responses were genuinely based on whether I was influenced or not,more than half,about half,a few,a few,somewhat democratic,"Yes, use my data",,more than half,about half,0.2361111111111111,0.375,1
100918,15:48:24,270612844,test,2,0,44,3,57,0,775,50,16,1,0.25,0.5277777777777778,0.2777777777777778,0.4166666666666667,0.7222222222222222,0.3055555555555555,all,My responses were genuinely based on whether I was influenced or not,My responses were genuinely based on whether I was influenced or not,more than half,about half,a few,a few,somewhat democratic,"Yes, use my data",,more than half,about half,0.2361111111111111,0.375,1
100918,15:48:24,270612844,test,2,0,46,2,54,1,807,50,23,0,0.25,0.5277777777777778,0.2777777777777778,0.4166666666666667,0.7222222222222222,0.3055555555555555,all,My responses were genuinely based on whether I was influenced or not,My responses were genuinely based on whether I was influenced or not,more than half,about half,a few,a few,somewhat democratic,"Yes, use my data",,more than half,about half,0.2361111111111111,0.375,1
100918,15:48:24,270612844,test,2,0,48,1,7,0,552,50,21,0,0.25,0.5277777777777778,0.2777777777777778,0.4166666666666667,0.7222222222222222,0.3055555555555555,all,My responses were genuinely based on whether I was influenced or not,My responses were genuinely based on whether I was influenced or not,more than half,about half,a few,a few,somewhat democratic,"Yes, use my data",,more than half,about half,0.2361111111111111,0.375,1
100918,15:48:24,270612844,test,2,0,50,3,22,1,633,50,26,0,0.25,0.5277777777777778,0.2777777777777778,0.4166666666666667,0.7222222222222222,0.3055555555555555,all,My responses were genuinely based on whether I was influenced or not,My responses were genuinely based on whether I was influenced or not,more than half,about half,a few,a few,somewhat democratic,"Yes, use my data",,more than half,about half,0.2361111111111111,0.375,1
100918,15:48:24,270612844,test,2,0,52,6,2,0,715,50,25,0,0.25,0.5277777777777778,0.2777777777777778,0.4166666666666667,0.7222222222222222,0.3055555555555555,all,My responses were genuinely based on whether I was influenced or not,My responses were genuinely based on whether I was influenced or not,more than half,about half,a few,a few,somewhat democratic,"Yes, use my data",,more than half,about half,0.2361111111111111,0.375,1
100918,15:48:24,270612844,test,2,1,54,5,37,1,626,54,25,0,0.25,0.5277777777777778,0.2777777777777778,0.4166666666666667,0.7222222222222222,0.3055555555555555,all,My responses were genuinely based on whether I was influenced or not,My responses were genuinely based on whether I was influenced or not,more than half,about half,a few,a few,somewhat democratic,"Yes, use my data",,more than half,about half,0.2361111111111111,0.375,1
100918,15:48:24,270612844,test,2,0,56,5,56,0,590,54,23,0,0.25,0.5277777777777778,0.2777777777777778,0.4166666666666667,0.7222222222222222,0.3055555555555555,all,My responses were genuinely based on whether I was influenced or not,My responses were genuinely based on whether I was influenced or not,more than half,about half,a few,a few,somewhat democratic,"Yes, use my data",,more than half,about half,0.2361111111111111,0.375,1
100918,15:48:24,270612844,test,2,0,58,2,71,0,651,54,22,0,0.25,0.5277777777777778,0.2777777777777778,0.4166666666666667,0.7222222222222222,0.3055555555555555,all,My responses were genuinely based on whether I was influenced or not,My responses were genuinely based on whether I was influenced or not,more than half,about half,a few,a few,somewhat democratic,"Yes, use my data",,more than half,about half,0.2361111111111111,0.375,1
100918,15:48:24,270612844,test,2,1,60,3,21,1,459,58,22,1,0.25,0.5277777777777778,0.2777777777777778,0.4166666666666667,0.7222222222222222,0.3055555555555555,all,My responses were genuinely based on whether I was influenced or not,My responses were genuinely based on whether I was influenced or not,more than half,about half,a few,a few,somewhat democratic,"Yes, use my data",,more than half,about half,0.2361111111111111,0.375,1
100918,15:48:24,270612844,test,2,1,62,1,8,0,848,53,22,0,0.25,0.5277777777777778,0.2777777777777778,0.4166666666666667,0.7222222222222222,0.3055555555555555,all,My responses were genuinely based on whether I was influenced or not,My responses were genuinely based on whether I was influenced or not,more than half,about half,a few,a few,somewhat democratic,"Yes, use my data",,more than half,about half,0.2361111111111111,0.375,1
100918,15:48:24,270612844,test,2,0,64,4,12,0,627,53,21,1,0.25,0.5277777777777778,0.2777777777777778,0.4166666666666667,0.7222222222222222,0.3055555555555555,all,My responses were genuinely based on whether I was influenced or not,My responses were genuinely based on whether I was influenced or not,more than half,about half,a few,a few,somewhat democratic,"Yes, use my data",,more than half,about half,0.2361111111111111,0.375,1
100918,15:48:24,270612844,test,2,1,66,4,16,0,688,50,21,0,0.25,0.5277777777777778,0.2777777777777778,0.4166666666666667,0.7222222222222222,0.3055555555555555,all,My responses were genuinely based on whether I was influenced or not,My responses were genuinely based on whether I was influenced or not,more than half,about half,a few,a few,somewhat democratic,"Yes, use my data",,more than half,about half,0.2361111111111111,0.375,1
100918,15:48:24,270612844,test,2,1,68,3,6,0,702,46,21,0,0.25,0.5277777777777778,0.2777777777777778,0.4166666666666667,0.7222222222222222,0.3055555555555555,all,My responses were genuinely based on whether I was influenced or not,My responses were genuinely based on whether I was influenced or not,more than half,about half,a few,a few,somewhat democratic,"Yes, use my data",,more than half,about half,0.2361111111111111,0.375,1
100918,15:48:24,270612844,test,2,0,70,3,45,0,575,46,20,0,0.25,0.5277777777777778,0.2777777777777778,0.4166666666666667,0.7222222222222222,0.3055555555555555,all,My responses were genuinely based on whether I was influenced or not,My responses were genuinely based on whether I was influenced or not,more than half,about half,a few,a few,somewhat democratic,"Yes, use my data",,more than half,about half,0.2361111111111111,0.375,1
100918,15:48:24,270612844,test,2,1,72,6,23,1,353,50,20,0,0.25,0.5277777777777778,0.2777777777777778,0.4166666666666667,0.7222222222222222,0.3055555555555555,all,My responses were genuinely based on whether I was influenced or not,My responses were genuinely based on whether I was influenced or not,more than half,about half,a few,a few,somewhat democratic,"Yes, use my data",,more than half,about half,0.2361111111111111,0.375,1
100918,15:48:24,270612844,test,2,0,74,2,48,0,599,50,19,0,0.25,0.5277777777777778,0.2777777777777778,0.4166666666666667,0.7222222222222222,0.3055555555555555,all,My responses were genuinely based on whether I was influenced or not,My responses were genuinely based on whether I was influenced or not,more than half,about half,a few,a few,somewhat democratic,"Yes, use my data",,more than half,about half,0.2361111111111111,0.375,1
100918,15:48:24,270612844,test,2,1,76,2,62,0,532,47,19,0,0.25,0.5277777777777778,0.2777777777777778,0.4166666666666667,0.7222222222222222,0.3055555555555555,all,My responses were genuinely based on whether I was influenced or not,My responses were genuinely based on whether I was influenced or not,more than half,about half,a few,a few,somewhat democratic,"Yes, use my data",,more than half,about half,0.2361111111111111,0.375,1
100918,15:48:24,270612844,test,2,1,78,1,61,0,554,44,19,0,0.25,0.5277777777777778,0.2777777777777778,0.4166666666666667,0.7222222222222222,0.3055555555555555,all,My responses were genuinely based on whether I was influenced or not,My responses were genuinely based on whether I was influenced or not,more than half,about half,a few,a few,somewhat democratic,"Yes, use my data",,more than half,about half,0.2361111111111111,0.375,1
100918,15:48:24,270612844,test,2,0,80,6,31,0,559,44,18,0,0.25,0.5277777777777778,0.2777777777777778,0.4166666666666667,0.7222222222222222,0.3055555555555555,all,My responses were genuinely based on whether I was influenced or not,My responses were genuinely based on whether I was influenced or not,more than half,about half,a few,a few,somewhat democratic,"Yes, use my data",,more than half,about half,0.2361111111111111,0.375,1
100918,15:48:24,270612844,test,2,1,82,5,17,1,313,47,18,0,0.25,0.5277777777777778,0.2777777777777778,0.4166666666666667,0.7222222222222222,0.3055555555555555,all,My responses were genuinely based on whether I was influenced or not,My responses were genuinely based on whether I was influenced or not,more than half,about half,a few,a few,somewhat democratic,"Yes, use my data",,more than half,about half,0.2361111111111111,0.375,1
100918,15:48:24,270612844,test,2,0,84,1,59,0,523,47,17,0,0.25,0.5277777777777778,0.2777777777777778,0.4166666666666667,0.7222222222222222,0.3055555555555555,all,My responses were genuinely based on whether I was influenced or not,My responses were genuinely based on whether I was influenced or not,more than half,about half,a few,a few,somewhat democratic,"Yes, use my data",,more than half,about half,0.2361111111111111,0.375,1
100918,15:48:24,270612844,test,2,1,86,6,51,1,454,50,17,0,0.25,0.5277777777777778,0.2777777777777778,0.4166666666666667,0.7222222222222222,0.3055555555555555,all,My responses were genuinely based on whether I was influenced or not,My responses were genuinely based on whether I was influenced or not,more than half,about half,a few,a few,somewhat democratic,"Yes, use my data",,more than half,about half,0.2361111111111111,0.375,1
100918,15:48:24,270612844,test,2,1,88,5,68,0,651,47,17,0,0.25,0.5277777777777778,0.2777777777777778,0.4166666666666667,0.7222222222222222,0.3055555555555555,all,My responses were genuinely based on whether I was influenced or not,My responses were genuinely based on whether I was influenced or not,more than half,about half,a few,a few,somewhat democratic,"Yes, use my data",,more than half,about half,0.2361111111111111,0.375,1
100918,15:48:24,270612844,test,2,0,90,5,40,0,476,47,16,0,0.25,0.5277777777777778,0.2777777777777778,0.4166666666666667,0.7222222222222222,0.3055555555555555,all,My responses were genuinely based on whether I was influenced or not,My responses were genuinely based on whether I was influenced or not,more than half,about half,a few,a few,somewhat democratic,"Yes, use my data",,more than half,about half,0.2361111111111111,0.375,1
100918,15:48:24,270612844,test,2,0,92,4,44,0,471,47,16,1,0.25,0.5277777777777778,0.2777777777777778,0.4166666666666667,0.7222222222222222,0.3055555555555555,all,My responses were genuinely based on whether I was influenced or not,My responses were genuinely based on whether I was influenced or not,more than half,about half,a few,a few,somewhat democratic,"Yes, use my data",,more than half,about half,0.2361111111111111,0.375,1
100918,15:48:24,270612844,test,2,1,94,4,32,1,541,50,16,1,0.25,0.5277777777777778,0.2777777777777778,0.4166666666666667,0.7222222222222222,0.3055555555555555,all,My responses were genuinely based on whether I was influenced or not,My responses were genuinely based on whether I was influenced or not,more than half,about half,a few,a few,somewhat democratic,"Yes, use my data",,more than half,about half,0.2361111111111111,0.375,1
100918,15:48:24,270612844,test,2,1,96,1,4,0,614,47,16,0,0.25,0.5277777777777778,0.2777777777777778,0.4166666666666667,0.7222222222222222,0.3055555555555555,all,My responses were genuinely based on whether I was influenced or not,My responses were genuinely based on whether I was influenced or not,more than half,about half,a few,a few,somewhat democratic,"Yes, use my data",,more than half,about half,0.2361111111111111,0.375,1
100918,15:48:24,270612844,test,2,1,98,3,34,0,520,45,16,0,0.25,0.5277777777777778,0.2777777777777778,0.4166666666666667,0.7222222222222222,0.3055555555555555,all,My responses were genuinely based on whether I was influenced or not,My responses were genuinely based on whether I was influenced or not,more than half,about half,a few,a few,somewhat democratic,"Yes, use my data",,more than half,about half,0.2361111111111111,0.375,1
100918,15:48:24,270612844,test,2,1,100,2,18,0,772,44,16,0,0.25,0.5277777777777778,0.2777777777777778,0.4166666666666667,0.7222222222222222,0.3055555555555555,all,My responses were genuinely based on whether I was influenced or not,My responses were genuinely based on whether I was influenced or not,more than half,about half,a few,a few,somewhat democratic,"Yes, use my data",,more than half,about half,0.2361111111111111,0.375,1
100918,15:48:24,270612844,test,2,1,102,6,20,0,914,42,16,0,0.25,0.5277777777777778,0.2777777777777778,0.4166666666666667,0.7222222222222222,0.3055555555555555,all,My responses were genuinely based on whether I was influenced or not,My responses were genuinely based on whether I was influenced or not,more than half,about half,a few,a few,somewhat democratic,"Yes, use my data",,more than half,about half,0.2361111111111111,0.375,1
100918,15:48:24,270612844,test,2,1,104,4,25,1,586,44,16,0,0.25,0.5277777777777778,0.2777777777777778,0.4166666666666667,0.7222222222222222,0.3055555555555555,all,My responses were genuinely based on whether I was influenced or not,My responses were genuinely based on whether I was influenced or not,more than half,about half,a few,a few,somewhat democratic,"Yes, use my data",,more than half,about half,0.2361111111111111,0.375,1
100918,15:48:24,270612844,test,2,1,106,2,9,1,566,46,16,0,0.25,0.5277777777777778,0.2777777777777778,0.4166666666666667,0.7222222222222222,0.3055555555555555,all,My responses were genuinely based on whether I was influenced or not,My responses were genuinely based on whether I was influenced or not,more than half,about half,a few,a few,somewhat democratic,"Yes, use my data",,more than half,about half,0.2361111111111111,0.375,1
100918,15:48:24,270612844,test,2,1,108,1,72,1,499,48,16,0,0.25,0.5277777777777778,0.2777777777777778,0.4166666666666667,0.7222222222222222,0.3055555555555555,all,My responses were genuinely based on whether I was influenced or not,My responses were genuinely based on whether I was influenced or not,more than half,about half,a few,a few,somewhat democratic,"Yes, use my data",,more than half,about half,0.2361111111111111,0.375,1
100918,15:48:24,270612844,test,2,0,110,4,29,0,655,48,15,0,0.25,0.5277777777777778,0.2777777777777778,0.4166666666666667,0.7222222222222222,0.3055555555555555,all,My responses were genuinely based on whether I was influenced or not,My responses were genuinely based on whether I was influenced or not,more than half,about half,a few,a few,somewhat democratic,"Yes, use my data",,more than half,about half,0.2361111111111111,0.375,1
100918,15:48:24,270612844,test,2,1,112,5,58,0,570,46,15,0,0.25,0.5277777777777778,0.2777777777777778,0.4166666666666667,0.7222222222222222,0.3055555555555555,all,My responses were genuinely based on whether I was influenced or not,My responses were genuinely based on whether I was influenced or not,more than half,about half,a few,a few,somewhat democratic,"Yes, use my data",,more than half,about half,0.2361111111111111,0.375,1
100918,15:48:24,270612844,test,2,0,114,1,70,0,701,46,14,0,0.25,0.5277777777777778,0.2777777777777778,0.4166666666666667,0.7222222222222222,0.3055555555555555,all,My responses were genuinely based on whether I was influenced or not,My responses were genuinely based on whether I was influenced or not,more than half,about half,a few,a few,somewhat democratic,"Yes, use my data",,more than half,about half,0.2361111111111111,0.375,1
100918,15:48:24,270612844,test,2,1,116,3,38,1,420,48,14,0,0.25,0.5277777777777778,0.2777777777777778,0.4166666666666667,0.7222222222222222,0.3055555555555555,all,My responses were genuinely based on whether I was influenced or not,My responses were genuinely based on whether I was influenced or not,more than half,about half,a few,a few,somewhat democratic,"Yes, use my data",,more than half,about half,0.2361111111111111,0.375,1
100918,15:48:24,270612844,test,2,0,118,3,47,0,504,48,14,0,0.25,0.5277777777777778,0.2777777777777778,0.4166666666666667,0.7222222222222222,0.3055555555555555,all,My responses were genuinely based on whether I was influenced or not,My responses were genuinely based on whether I was influenced or not,more than half,about half,a few,a few,somewhat democratic,"Yes, use my data",,more than half,about half,0.2361111111111111,0.375,1
100918,15:48:24,270612844,test,2,0,120,2,13,1,744,48,17,0,0.25,0.5277777777777778,0.2777777777777778,0.4166666666666667,0.7222222222222222,0.3055555555555555,all,My responses were genuinely based on whether I was influenced or not,My responses were genuinely based on whether I was influenced or not,more than half,about half,a few,a few,somewhat democratic,"Yes, use my data",,more than half,about half,0.2361111111111111,0.375,1
100918,15:48:24,270612844,test,2,0,122,6,35,1,826,48,20,0,0.25,0.5277777777777778,0.2777777777777778,0.4166666666666667,0.7222222222222222,0.3055555555555555,all,My responses were genuinely based on whether I was influenced or not,My responses were genuinely based on whether I was influenced or not,more than half,about half,a few,a few,somewhat democratic,"Yes, use my data",,more than half,about half,0.2361111111111111,0.375,1
100918,15:48:24,270612844,test,2,0,124,5,39,1,596,48,22,0,0.25,0.5277777777777778,0.2777777777777778,0.4166666666666667,0.7222222222222222,0.3055555555555555,all,My responses were genuinely based on whether I was influenced or not,My responses were genuinely based on whether I was influenced or not,more than half,about half,a few,a few,somewhat democratic,"Yes, use my data",,more than half,about half,0.2361111111111111,0.375,1
100918,15:48:24,270612844,test,2,1,126,6,13,1,786,50,22,0,0.25,0.5277777777777778,0.2777777777777778,0.4166666666666667,0.7222222222222222,0.3055555555555555,all,My responses were genuinely based on whether I was influenced or not,My responses were genuinely based on whether I was influenced or not,more than half,about half,a few,a few,somewhat democratic,"Yes, use my data",,more than half,about half,0.2361111111111111,0.375,1
100918,15:48:24,270612844,test,2,0,128,2,61,0,603,50,21,0,0.25,0.5277777777777778,0.2777777777777778,0.4166666666666667,0.7222222222222222,0.3055555555555555,all,My responses were genuinely based on whether I was influenced or not,My responses were genuinely based on whether I was influenced or not,more than half,about half,a few,a few,somewhat democratic,"Yes, use my data",,more than half,about half,0.2361111111111111,0.375,1
100918,15:48:24,270612844,test,2,0,130,6,41,0,664,50,21,0,0.25,0.5277777777777778,0.2777777777777778,0.4166666666666667,0.7222222222222222,0.3055555555555555,all,My responses were genuinely based on whether I was influenced or not,My responses were genuinely based on whether I was influenced or not,more than half,about half,a few,a few,somewhat democratic,"Yes, use my data",,more than half,about half,0.2361111111111111,0.375,1
100918,15:48:24,270612844,test,2,0,132,3,63,0,715,50,20,0,0.25,0.5277777777777778,0.2777777777777778,0.4166666666666667,0.7222222222222222,0.3055555555555555,all,My responses were genuinely based on whether I was influenced or not,My responses were genuinely based on whether I was influenced or not,more than half,about half,a few,a few,somewhat democratic,"Yes, use my data",,more than half,about half,0.2361111111111111,0.375,1
100918,15:48:24,270612844,test,2,1,134,4,28,0,698,48,20,0,0.25,0.5277777777777778,0.2777777777777778,0.4166666666666667,0.7222222222222222,0.3055555555555555,all,My responses were genuinely based on whether I was influenced or not,My responses were genuinely based on whether I was influenced or not,more than half,about half,a few,a few,somewhat democratic,"Yes, use my data",,more than half,about half,0.2361111111111111,0.375,1
100918,15:48:24,270612844,test,2,0,136,1,9,1,408,48,22,0,0.25,0.5277777777777778,0.2777777777777778,0.4166666666666667,0.7222222222222222,0.3055555555555555,all,My responses were genuinely based on whether I was influenced or not,My responses were genuinely based on whether I was influenced or not,more than half,about half,a few,a few,somewhat democratic,"Yes, use my data",,more than half,about half,0.2361111111111111,0.375,1
100918,15:48:24,270612844,test,2,0,138,5,6,1,1182,48,25,0,0.25,0.5277777777777778,0.2777777777777778,0.4166666666666667,0.7222222222222222,0.3055555555555555,all,My responses were genuinely based on whether I was influenced or not,My responses were genuinely based on whether I was influenced or not,more than half,about half,a few,a few,somewhat democratic,"Yes, use my data",,more than half,about half,0.2361111111111111,0.375,1
100918,15:48:24,270612844,test,2,1,140,5,51,1,535,50,25,0,0.25,0.5277777777777778,0.2777777777777778,0.4166666666666667,0.7222222222222222,0.3055555555555555,all,My responses were genuinely based on whether I was influenced or not,My responses were genuinely based on whether I was influenced or not,more than half,about half,a few,a few,somewhat democratic,"Yes, use my data",,more than half,about half,0.2361111111111111,0.375,1
100918,15:48:24,270612844,test,2,1,142,2,36,1,443,51,25,0,0.25,0.5277777777777778,0.2777777777777778,0.4166666666666667,0.7222222222222222,0.3055555555555555,all,My responses were genuinely based on whether I was influenced or not,My responses were genuinely based on whether I was influenced or not,more than half,about half,a few,a few,somewhat democratic,"Yes, use my data",,more than half,about half,0.2361111111111111,0.375,1
100918,15:48:24,270612844,test,2,1,144,1,5,1,1235,52,25,0,0.25,0.5277777777777778,0.2777777777777778,0.4166666666666667,0.7222222222222222,0.3055555555555555,all,My responses were genuinely based on whether I was influenced or not,My responses were genuinely based on whether I was influenced or not,more than half,about half,a few,a few,somewhat democratic,"Yes, use my data",,more than half,about half,0.2361111111111111,0.375,1
100918,15:52:24,914741672,test,2,1,2,6,63,1,2636,100,0,0,0.6111111111111112,0.75,0.13888888888888884,0.75,0.8055555555555556,0.05555555555555558,all,My responses were genuinely based on whether I was influenced or not,My responses were genuinely based on whether I was influenced or not,a few,less than half,a few,a few,very democratic,"Yes, use my data",,I don't know,I don't know,0.08333333333333333,0.013888888888888888,1
100918,15:52:24,914741672,test,2,1,4,1,55,1,2027,100,0,0,0.6111111111111112,0.75,0.13888888888888884,0.75,0.8055555555555556,0.05555555555555558,all,My responses were genuinely based on whether I was influenced or not,My responses were genuinely based on whether I was influenced or not,a few,less than half,a few,a few,very democratic,"Yes, use my data",,I don't know,I don't know,0.08333333333333333,0.013888888888888888,1
100918,15:52:24,914741672,test,2,1,6,4,67,1,1268,100,0,0,0.6111111111111112,0.75,0.13888888888888884,0.75,0.8055555555555556,0.05555555555555558,all,My responses were genuinely based on whether I was influenced or not,My responses were genuinely based on whether I was influenced or not,a few,less than half,a few,a few,very democratic,"Yes, use my data",,I don't know,I don't know,0.08333333333333333,0.013888888888888888,1
100918,15:52:24,914741672,test,2,0,8,5,60,0,1690,100,0,1,0.6111111111111112,0.75,0.13888888888888884,0.75,0.8055555555555556,0.05555555555555558,all,My responses were genuinely based on whether I was influenced or not,My responses were genuinely based on whether I was influenced or not,a few,less than half,a few,a few,very democratic,"Yes, use my data",,I don't know,I don't know,0.08333333333333333,0.013888888888888888,1
100918,15:52:24,914741672,test,2,0,10,3,36,1,1652,100,50,0,0.6111111111111112,0.75,0.13888888888888884,0.75,0.8055555555555556,0.05555555555555558,all,My responses were genuinely based on whether I was influenced or not,My responses were genuinely based on whether I was influenced or not,a few,less than half,a few,a few,very democratic,"Yes, use my data",,I don't know,I don't know,0.08333333333333333,0.013888888888888888,1
100918,15:52:24,914741672,test,2,0,12,5,70,1,2378,100,66,0,0.6111111111111112,0.75,0.13888888888888884,0.75,0.8055555555555556,0.05555555555555558,all,My responses were genuinely based on whether I was influenced or not,My responses were genuinely based on whether I was influenced or not,a few,less than half,a few,a few,very democratic,"Yes, use my data",,I don't know,I don't know,0.08333333333333333,0.013888888888888888,1
100918,15:52:24,914741672,test,2,0,14,2,39,0,683,100,50,1,0.6111111111111112,0.75,0.13888888888888884,0.75,0.8055555555555556,0.05555555555555558,all,My responses were genuinely based on whether I was influenced or not,My responses were genuinely based on whether I was influenced or not,a few,less than half,a few,a few,very democratic,"Yes, use my data",,I don't know,I don't know,0.08333333333333333,0.013888888888888888,1
100918,15:52:24,914741672,test,2,1,16,2,13,1,923,100,50,0,0.6111111111111112,0.75,0.13888888888888884,0.75,0.8055555555555556,0.05555555555555558,all,My responses were genuinely based on whether I was influenced or not,My responses were genuinely based on whether I was influenced or not,a few,less than half,a few,a few,very democratic,"Yes, use my data",,I don't know,I don't know,0.08333333333333333,0.013888888888888888,1
100918,15:52:24,914741672,test,2,1,18,3,14,1,3580,100,50,0,0.6111111111111112,0.75,0.13888888888888884,0.75,0.8055555555555556,0.05555555555555558,all,My responses were genuinely based on whether I was influenced or not,My responses were genuinely based on whether I was influenced or not,a few,less than half,a few,a few,very democratic,"Yes, use my data",,I don't know,I don't know,0.08333333333333333,0.013888888888888888,1
100918,15:52:24,914741672,test,2,0,20,1,25,1,3466,100,60,0,0.6111111111111112,0.75,0.13888888888888884,0.75,0.8055555555555556,0.05555555555555558,all,My responses were genuinely based on whether I was influenced or not,My responses were genuinely based on whether I was influenced or not,a few,less than half,a few,a few,very democratic,"Yes, use my data",,I don't know,I don't know,0.08333333333333333,0.013888888888888888,1
100918,15:52:24,914741672,test,2,0,22,4,68,1,1157,100,66,0,0.6111111111111112,0.75,0.13888888888888884,0.75,0.8055555555555556,0.05555555555555558,all,My responses were genuinely based on whether I was influenced or not,My responses were genuinely based on whether I was influenced or not,a few,less than half,a few,a few,very democratic,"Yes, use my data",,I don't know,I don't know,0.08333333333333333,0.013888888888888888,1
100918,15:52:24,914741672,test,2,1,24,5,40,1,818,100,66,0,0.6111111111111112,0.75,0.13888888888888884,0.75,0.8055555555555556,0.05555555555555558,all,My responses were genuinely based on whether I was influenced or not,My responses were genuinely based on whether I was influenced or not,a few,less than half,a few,a few,very democratic,"Yes, use my data",,I don't know,I don't know,0.08333333333333333,0.013888888888888888,1
100918,15:52:24,914741672,test,2,1,26,6,17,1,838,100,66,0,0.6111111111111112,0.75,0.13888888888888884,0.75,0.8055555555555556,0.05555555555555558,all,My responses were genuinely based on whether I was influenced or not,My responses were genuinely based on whether I was influenced or not,a few,less than half,a few,a few,very democratic,"Yes, use my data",,I don't know,I don't know,0.08333333333333333,0.013888888888888888,1
100918,15:52:24,914741672,test,2,0,28,6,19,0,602,100,57,0,0.6111111111111112,0.75,0.13888888888888884,0.75,0.8055555555555556,0.05555555555555558,all,My responses were genuinely based on whether I was influenced or not,My responses were genuinely based on whether I was influenced or not,a few,less than half,a few,a few,very democratic,"Yes, use my data",,I don't know,I don't know,0.08333333333333333,0.013888888888888888,1
100918,15:52:24,914741672,test,2,0,30,3,50,0,748,100,50,0,0.6111111111111112,0.75,0.13888888888888884,0.75,0.8055555555555556,0.05555555555555558,all,My responses were genuinely based on whether I was influenced or not,My responses were genuinely based on whether I was influenced or not,a few,less than half,a few,a few,very democratic,"Yes, use my data",,I don't know,I don't know,0.08333333333333333,0.013888888888888888,1
