date,time,subject,blockcode,blocknum,prime_type,trialnum,values.primestim,values.targetstim,correct,latency,trial.prime_obama.totalpercentcorrect,trial.prime_trump.totalpercentcorrect,influenced
100918,11:43:46,548346706,test,2,1,2,9,2,1,618,100,0,0
100918,11:43:46,548346706,test,2,1,4,6,71,1,509,100,0,0
100918,11:43:46,548346706,test,2,1,6,2,29,1,531,100,0,1
100918,11:43:46,548346706,test,2,0,8,12,42,0,686,100,0,0
100918,11:43:46,548346706,test,2,0,10,10,31,0,574,100,0,1
100918,11:43:46,548346706,test,2,1,12,3,32,1,452,100,0,1
100918,11:43:46,548346706,test,2,1,14,5,45,0,685,80,0,0
100918,11:43:46,548346706,test,2,0,16,8,38,1,757,80,33,0
100918,11:43:46,548346706,test,2,1,18,7,5,1,533,83,33,1
100918,11:43:46,548346706,test,2,1,20,11,37,0,946,71,33,0
100918,11:43:46,548346706,test,2,1,22,3,6,1,385,75,33,1
100918,11:43:46,548346706,test,2,1,24,8,64,1,678,77,33,0
100918,11:43:46,548346706,test,2,1,26,6,41,1,454,80,33,0
100918,11:43:46,548346706,test,2,0,28,6,44,0,1003,80,25,0
100918,11:43:46,548346706,test,2,0,30,11,7,1,833,80,40,0
100918,11:43:46,548346706,test,2,1,32,9,67,1,496,81,40,0
100918,11:43:46,548346706,test,2,0,34,7,58,0,471,81,33,0
100918,11:43:46,548346706,test,2,0,36,3,43,0,518,81,28,1
100918,11:43:46,548346706,test,2,0,38,11,48,1,510,81,37,0
100918,11:43:46,548346706,test,2,1,40,2,30,1,422,83,37,0
100918,11:43:46,548346706,test,2,0,42,6,8,1,1010,83,44,0
100918,11:43:46,548346706,test,2,1,44,10,21,0,552,76,44,0
100918,11:43:46,548346706,test,2,0,46,3,39,0,379,76,40,1
100918,11:43:46,548346706,test,2,0,48,9,46,1,671,76,45,0
100918,11:43:46,548346706,test,2,0,50,2,20,0,1130,76,41,1
100918,11:43:46,548346706,test,2,1,52,12,47,1,649,78,41,0
100918,11:43:46,548346706,test,2,1,54,4,69,1,522,80,41,0
100918,11:43:46,548346706,test,2,1,56,7,72,1,341,81,41,0
100918,11:43:46,548346706,test,2,0,58,1,57,0,318,81,38,1
100918,11:43:46,548346706,test,2,0,60,12,51,1,649,81,42,0
100918,11:43:46,548346706,test,2,1,62,11,14,1,454,82,42,0
100918,11:43:46,548346706,test,2,0,64,10,66,1,1108,82,46,0
100918,11:43:46,548346706,test,2,0,66,8,56,1,597,82,50,0
100918,11:43:46,548346706,test,2,0,68,5,28,1,400,82,52,0
100918,11:43:46,548346706,test,2,0,70,4,10,1,557,82,55,0
100918,11:43:46,548346706,test,2,1,72,5,25,0,227,77,55,0
100918,11:43:46,548346706,test,2,0,74,7,62,0,369,77,52,0
100918,11:43:46,548346706,test,2,1,76,1,9,1,656,78,52,0
100918,11:43:46,548346706,test,2,0,78,10,35,0,619,78,50,0
100918,11:43:46,548346706,test,2,1,80,6,59,1,215,80,50,0
100918,11:43:46,548346706,test,2,1,82,8,60,1,381,80,50,0
100918,11:43:46,548346706,test,2,0,84,12,24,1,561,80,52,0
100918,11:43:46,548346706,test,2,0,86,5,53,0,340,80,50,1
100918,11:43:46,548346706,test,2,1,88,2,40,1,522,81,50,0
100918,11:43:46,548346706,test,2,0,90,1,55,0,327,81,47,1
100918,11:43:46,548346706,test,2,0,92,3,4,0,418,81,45,1
100918,11:43:46,548346706,test,2,0,94,2,36,1,314,81,48,0
100918,11:43:46,548346706,test,2,1,96,5,11,1,429,82,48,0
100918,11:43:46,548346706,test,2,1,98,7,19,1,372,83,48,0
100918,11:43:46,548346706,test,2,0,100,4,70,1,593,83,50,0
100918,11:43:46,548346706,test,2,0,102,8,22,1,662,83,51,0
100918,11:43:46,548346706,test,2,0,104,6,50,0,572,83,50,0
100918,11:43:46,548346706,test,2,1,106,9,54,1,373,84,50,0
100918,11:43:46,548346706,test,2,0,108,11,26,1,341,84,51,0
100918,11:43:46,548346706,test,2,1,110,11,17,1,403,84,51,0
100918,11:43:46,548346706,test,2,1,112,1,33,1,302,85,51,0
100918,11:43:46,548346706,test,2,0,114,9,49,0,301,85,50,0
100918,11:43:46,548346706,test,2,1,116,4,27,1,269,85,50,0
100918,11:43:46,548346706,test,2,1,118,10,65,1,650,86,50,0
100918,11:43:46,548346706,test,2,1,120,12,52,1,355,86,50,0
100918,11:43:46,548346706,test,2,1,122,3,1,0,432,83,50,0
100918,11:43:46,548346706,test,2,0,124,7,68,1,135,83,51,0
100918,11:43:46,548346706,test,2,0,126,3,57,0,390,83,50,0
100918,11:43:46,548346706,test,2,1,128,2,24,1,4230,84,50,0
100918,11:43:46,548346706,test,2,1,130,9,50,0,168,81,50,0
100918,11:43:46,548346706,test,2,0,132,11,67,1,312,81,51,0
100918,11:43:46,548346706,test,2,1,134,5,54,0,157,79,51,0
100918,11:43:46,548346706,test,2,0,136,7,35,1,169,79,52,0
100918,11:43:46,548346706,test,2,1,138,1,5,1,125,80,52,0
100918,11:43:46,548346706,test,2,1,140,12,14,0,6292,77,52,0
100918,11:43:46,548346706,test,2,0,142,2,37,1,225,77,54,0
100918,11:43:46,548346706,test,2,0,144,1,12,0,630,77,52,1
100918,12:44:22,896525387,test,2,0,2,5,59,1,311,0,100,0
100918,12:44:22,896525387,test,2,0,4,6,11,1,681,0,100,0
100918,12:44:22,896525387,test,2,0,6,10,39,1,748,0,100,1
100918,12:44:22,896525387,test,2,0,8,2,72,1,1492,0,100,0
100918,12:44:22,896525387,test,2,1,10,5,49,1,541,100,100,0
100918,12:44:22,896525387,test,2,0,12,3,63,1,533,100,100,0
100918,12:44:22,896525387,test,2,1,14,3,21,1,607,100,100,0
100918,12:44:22,896525387,test,2,1,16,1,30,1,612,100,100,0
100918,12:44:22,896525387,test,2,1,18,12,23,1,536,100,100,0
100918,12:44:22,896525387,test,2,1,20,6,16,0,504,80,100,0
100918,12:44:22,896525387,test,2,0,22,9,3,0,1506,80,83,1
100918,12:44:22,896525387,test,2,0,24,7,42,1,668,80,85,0
100918,12:44:22,896525387,test,2,1,26,11,1,1,430,83,85,0
100918,12:44:22,896525387,test,2,0,28,4,28,1,660,83,87,0
100918,12:44:22,896525387,test,2,0,30,9,58,1,391,83,88,0
100918,12:44:22,896525387,test,2,1,32,9,34,1,477,85,88,0
100918,12:44:22,896525387,test,2,0,34,11,45,0,3057,85,80,0
100918,12:44:22,896525387,test,2,1,36,6,35,0,58,75,80,0
100918,12:44:22,896525387,test,2,0,38,10,36,0,343,75,72,0
100918,12:44:22,896525387,test,2,1,40,8,55,1,696,77,72,0
100918,12:44:22,896525387,test,2,0,42,7,37,1,370,77,75,0
100918,12:44:22,896525387,test,2,0,44,1,71,0,346,77,69,1
100918,12:44:22,896525387,test,2,0,46,6,31,1,36,77,71,0
100918,12:44:22,896525387,test,2,1,48,7,13,1,1120,80,71,0
100918,12:44:22,896525387,test,2,0,50,12,40,1,370,80,73,0
100918,12:44:22,896525387,test,2,0,52,8,50,1,3601,80,75,0
100918,12:44:22,896525387,test,2,0,54,2,17,0,61,80,70,0
100918,12:44:22,896525387,test,2,0,56,5,25,0,1074,80,66,0
100918,12:44:22,896525387,test,2,0,58,3,53,0,413,80,63,0
100918,12:44:22,896525387,test,2,1,60,9,27,1,843,81,63,0
100918,12:44:22,896525387,test,2,0,62,2,43,0,567,81,60,0
100918,12:44:22,896525387,test,2,1,64,4,69,0,415,75,60,0
100918,12:44:22,896525387,test,2,1,66,10,62,1,29,76,60,0
100918,12:44:22,896525387,test,2,1,68,2,68,1,716,78,60,0
100918,12:44:22,896525387,test,2,1,70,1,24,1,436,80,60,0
100918,12:44:22,896525387,test,2,0,72,8,6,1,617,80,61,0
100918,12:44:22,896525387,test,2,1,74,3,57,1,342,81,61,0
100918,12:44:22,896525387,test,2,0,76,10,4,1,984,81,63,0
100918,12:44:22,896525387,test,2,0,78,11,7,0,198,81,60,0
100918,12:44:22,896525387,test,2,0,80,12,54,1,397,81,62,0
100918,12:44:22,896525387,test,2,1,82,5,48,0,492,76,62,0
100918,12:44:22,896525387,test,2,1,84,11,14,1,295,77,62,0
100918,12:44:22,896525387,test,2,1,86,12,8,1,393,78,62,0
100918,12:44:22,896525387,test,2,1,88,12,12,0,464,75,62,0
100918,12:44:22,896525387,test,2,1,90,10,51,0,653,71,62,0
100918,12:44:22,896525387,test,2,1,92,3,60,0,625,68,62,0
100918,12:44:22,896525387,test,2,0,94,5,19,1,270,68,64,0
100918,12:44:22,896525387,test,2,1,96,5,2,1,649,69,64,0
100918,12:44:22,896525387,test,2,1,98,4,46,1,22,70,64,0
100918,12:44:22,896525387,test,2,1,100,9,33,0,84,68,64,0
100918,12:44:22,896525387,test,2,0,102,4,67,0,135,68,61,0
100918,12:44:22,896525387,test,2,0,104,7,9,0,80,68,59,0
100918,12:44:22,896525387,test,2,0,106,9,65,0,563,68,57,0
100918,12:44:22,896525387,test,2,1,108,2,41,1,148,69,57,0
100918,12:44:22,896525387,test,2,0,110,3,20,1,2477,69,58,0
100918,12:44:22,896525387,test,2,1,112,7,70,1,310,70,58,1
100918,12:44:22,896525387,test,2,1,114,8,26,1,593,71,58,0
100918,12:44:22,896525387,test,2,1,116,11,56,0,8,68,58,0
100918,12:44:22,896525387,test,2,1,118,6,5,1,22,70,58,0
100918,12:44:22,896525387,test,2,0,120,1,44,0,124,70,56,0
100918,12:44:22,896525387,test,2,0,122,6,61,1,510,70,58,0
100918,12:44:22,896525387,test,2,0,124,10,29,1,152,70,59,0
100918,12:44:22,896525387,test,2,0,126,11,56,1,209,70,60,0
100918,12:44:22,896525387,test,2,0,128,2,33,1,511,70,61,0
100918,12:44:22,896525387,test,2,0,130,12,26,0,2857,70,60,0
100918,12:44:22,896525387,test,2,0,132,5,31,1,283,70,61,0
100918,12:44:22,896525387,test,2,1,134,1,50,1,766,70,61,0
100918,12:44:22,896525387,test,2,1,136,10,1,0,366,68,61,0
100918,12:44:22,896525387,test,2,1,138,8,16,1,2798,69,61,0
100918,12:44:22,896525387,test,2,1,140,6,8,0,851,67,61,0
100918,12:44:22,896525387,test,2,1,142,7,60,1,1151,68,61,0
100918,12:44:22,896525387,test,2,1,144,11,67,1,350,69,61,0
100918,12:55:12,232565411,test,2,0,2,7,14,0,513,0,0,0
100918,12:55:12,232565411,test,2,0,4,10,37,0,378,0,0,0
100918,12:55:12,232565411,test,2,1,6,9,34,1,1290,100,0,0
100918,12:55:12,232565411,test,2,0,8,4,18,1,559,100,33,0
100918,12:55:12,232565411,test,2,1,10,6,70,1,655,100,33,0
100918,12:55:12,232565411,test,2,1,12,11,19,1,762,100,33,0
100918,12:55:12,232565411,test,2,0,14,1,50,1,789,100,50,0
100918,12:55:12,232565411,test,2,0,16,11,25,1,900,100,60,0
100918,12:55:12,232565411,test,2,1,18,7,68,1,546,100,60,0
100918,12:55:12,232565411,test,2,0,20,8,17,1,1164,100,66,0
100918,12:55:12,232565411,test,2,1,22,3,3,1,586,100,66,0
100918,12:55:12,232565411,test,2,1,24,12,28,1,4724,100,66,0
100918,12:55:12,232565411,test,2,1,26,4,71,1,649,100,66,0
100918,12:55:12,232565411,test,2,0,28,3,58,1,601,100,71,0
100918,12:55:12,232565411,test,2,1,30,11,59,1,534,100,71,0
100918,12:55:12,232565411,test,2,0,32,7,36,1,472,100,75,0
100918,12:55:12,232565411,test,2,1,34,1,44,1,568,100,75,0
100918,12:55:12,232565411,test,2,0,36,4,2,1,530,100,77,0
100918,12:55:12,232565411,test,2,1,38,12,10,1,516,100,77,0
100918,12:55:12,232565411,test,2,0,40,2,43,1,489,100,80,0
100918,12:55:12,232565411,test,2,0,42,9,35,1,401,100,81,0
100918,12:55:12,232565411,test,2,1,44,9,41,1,373,100,81,0
100918,12:55:12,232565411,test,2,0,46,8,62,1,392,100,83,0
100918,12:55:12,232565411,test,2,0,48,11,46,1,309,100,84,0
100918,12:55:12,232565411,test,2,0,50,12,67,1,369,100,85,0
100918,12:55:12,232565411,test,2,0,52,3,42,1,433,100,86,0
100918,12:55:12,232565411,test,2,1,54,8,64,1,554,100,86,0
100918,12:55:12,232565411,test,2,0,56,6,23,1,670,100,87,0
100918,12:55:12,232565411,test,2,0,58,5,31,1,499,100,88,0
100918,12:55:12,232565411,test,2,1,60,6,66,1,350,100,88,0
100918,12:55:12,232565411,test,2,1,62,7,1,1,441,100,88,0
100918,12:55:12,232565411,test,2,1,64,3,6,1,421,100,88,0
100918,12:55:12,232565411,test,2,0,66,10,45,1,394,100,88,0
100918,12:55:12,232565411,test,2,1,68,10,7,1,381,100,88,0
100918,12:55:12,232565411,test,2,1,70,2,47,1,501,100,88,0
100918,12:55:12,232565411,test,2,0,72,1,69,1,547,100,89,0
100918,12:55:12,232565411,test,2,1,74,5,49,1,445,100,89,0
100918,12:55:12,232565411,test,2,0,76,8,22,1,352,100,90,0
100918,12:55:12,232565411,test,2,0,78,11,55,1,407,100,90,0
100918,12:55:12,232565411,test,2,1,80,4,30,1,414,100,90,0
100918,12:55:12,232565411,test,2,0,82,4,60,1,410,100,90,0
100918,12:55:12,232565411,test,2,1,84,12,27,1,11286,100,90,0
100918,12:55:12,232565411,test,2,0,86,12,13,1,14233,100,91,0
100918,12:55:12,232565411,test,2,1,88,6,21,1,560,100,91,0
100918,12:55:12,232565411,test,2,1,90,2,63,1,527,100,91,0
100918,12:55:12,232565411,test,2,0,92,2,9,0,948,100,87,0
100918,12:55:12,232565411,test,2,0,94,1,20,1,4399,100,88,0
100918,12:55:12,232565411,test,2,0,96,9,33,1,639,100,88,0
100918,12:55:12,232565411,test,2,0,98,6,54,1,534,100,88,0
100918,12:55:12,232565411,test,2,1,100,5,65,1,476,100,88,0
100918,12:55:12,232565411,test,2,1,102,4,40,1,523,100,88,0
100918,12:55:12,232565411,test,2,0,104,5,26,1,932,100,89,0
100918,12:55:12,232565411,test,2,1,106,3,38,1,586,100,89,0
100918,12:55:12,232565411,test,2,1,108,10,39,1,1361,100,89,0
100918,12:55:12,232565411,test,2,0,110,3,11,1,4030,100,89,0
100918,12:55:12,232565411,test,2,1,112,11,12,1,430,100,89,0
100918,12:55:12,232565411,test,2,1,114,1,56,1,705,100,89,0
100918,12:55:12,232565411,test,2,1,116,8,32,1,508,100,89,0
100918,12:55:12,232565411,test,2,0,118,10,29,1,369,100,90,0
100918,12:55:12,232565411,test,2,0,120,7,5,1,423,100,90,0
100918,12:55:12,232565411,test,2,0,122,9,8,1,583,100,90,0
100918,12:55:12,232565411,test,2,1,124,7,61,1,1923,100,90,0
100918,12:55:12,232565411,test,2,1,126,9,17,1,472,100,90,0
100918,12:55:12,232565411,test,2,0,128,4,19,1,2198,100,90,0
100918,12:55:12,232565411,test,2,0,130,10,65,1,323,100,91,0
100918,12:55:12,232565411,test,2,1,132,7,11,1,4988,100,91,0
100918,12:55:12,232565411,test,2,1,134,4,62,1,5846,100,91,0
100918,12:55:12,232565411,test,2,0,136,12,63,1,391,100,91,0
100918,12:55:12,232565411,test,2,1,138,10,24,1,2343,100,91,0
100918,12:55:12,232565411,test,2,1,140,11,30,1,370,100,91,0
100918,12:55:12,232565411,test,2,1,142,8,12,1,391,100,91,0
100918,12:55:12,232565411,test,2,0,144,2,60,1,469,100,91,0
100918,09:52:59,313716435,test,2,1,2,4,42,1,743,100,0,0
100918,09:52:59,313716435,test,2,0,4,10,29,0,1850,100,0,0
100918,09:52:59,313716435,test,2,0,6,11,17,1,544,100,50,1
100918,09:52:59,313716435,test,2,1,8,6,14,1,523,100,50,1
100918,09:52:59,313716435,test,2,0,10,1,12,0,351,100,33,0
100918,09:52:59,313716435,test,2,0,12,2,1,0,993,100,25,0
100918,09:52:59,313716435,test,2,0,14,8,15,1,538,100,40,1
100918,09:52:59,313716435,test,2,0,16,9,33,1,1581,100,50,1
100918,09:52:59,313716435,test,2,1,18,7,51,1,496,100,50,0
100918,09:52:59,313716435,test,2,1,20,8,31,1,581,100,50,0
100918,09:52:59,313716435,test,2,1,22,11,72,1,518,100,50,1
100918,09:52:59,313716435,test,2,1,24,3,45,1,906,100,50,1
100918,09:52:59,313716435,test,2,0,26,6,47,0,1271,100,42,0
100918,09:52:59,313716435,test,2,1,28,5,55,1,604,100,42,0
100918,09:52:59,313716435,test,2,0,30,10,67,0,1868,100,37,0
100918,09:52:59,313716435,test,2,1,32,12,70,1,851,100,37,1
100918,09:52:59,313716435,test,2,0,34,3,28,0,658,100,33,0
100918,09:52:59,313716435,test,2,0,36,9,68,0,1264,100,30,1
100918,09:52:59,313716435,test,2,1,38,10,48,0,1248,88,30,1
100918,09:52:59,313716435,test,2,0,40,2,22,1,1400,88,36,1
100918,09:52:59,313716435,test,2,0,42,11,46,1,913,88,41,1
100918,09:52:59,313716435,test,2,0,44,7,7,1,567,88,46,1
100918,09:52:59,313716435,test,2,0,46,12,5,0,689,88,42,1
100918,09:52:59,313716435,test,2,1,48,6,11,1,775,90,42,1
100918,09:52:59,313716435,test,2,1,50,1,58,1,866,90,42,0
100918,09:52:59,313716435,test,2,0,52,4,18,0,704,90,40,0
100918,09:52:59,313716435,test,2,1,54,4,69,1,965,91,40,1
100918,09:52:59,313716435,test,2,0,56,8,10,0,1080,91,37,1
100918,09:52:59,313716435,test,2,0,58,1,32,0,471,91,35,1
100918,09:52:59,313716435,test,2,0,60,6,4,0,989,91,33,1
100918,09:52:59,313716435,test,2,0,62,5,6,1,1135,91,36,1
100918,09:52:59,313716435,test,2,1,64,11,64,1,723,92,36,0
100918,09:52:59,313716435,test,2,1,66,5,57,1,559,92,36,1
100918,09:52:59,313716435,test,2,1,68,9,71,0,947,86,36,1
100918,09:52:59,313716435,test,2,0,70,10,59,1,2438,86,40,1
100918,09:52:59,313716435,test,2,0,72,4,19,0,855,86,38,1
100918,09:52:59,313716435,test,2,1,74,7,24,1,1174,87,38,0
100918,09:52:59,313716435,test,2,1,76,8,65,1,552,88,38,0
100918,09:52:59,313716435,test,2,1,78,2,43,1,1163,88,38,1
100918,09:52:59,313716435,test,2,0,80,11,30,0,1582,88,36,1
100918,09:52:59,313716435,test,2,0,82,1,3,1,1704,88,39,1
100918,09:52:59,313716435,test,2,1,84,3,52,1,709,89,39,0
100918,09:52:59,313716435,test,2,0,86,2,21,0,778,89,37,0
100918,09:52:59,313716435,test,2,1,88,10,34,1,924,90,37,1
100918,09:52:59,313716435,test,2,0,90,7,62,0,1281,90,36,0
100918,09:52:59,313716435,test,2,1,92,7,36,0,895,85,36,0
100918,09:52:59,313716435,test,2,1,94,12,63,1,604,86,36,0
100918,09:52:59,313716435,test,2,1,96,2,9,0,821,82,36,1
100918,09:52:59,313716435,test,2,1,98,5,49,1,989,83,36,1
100918,09:52:59,313716435,test,2,1,100,8,38,1,975,84,36,1
100918,09:52:59,313716435,test,2,1,102,11,8,0,1938,80,36,1
100918,09:52:59,313716435,test,2,0,104,9,41,1,918,80,38,1
100918,09:52:59,313716435,test,2,1,106,1,27,1,659,81,38,0
100918,09:52:59,313716435,test,2,0,108,3,60,0,521,81,37,0
100918,09:52:59,313716435,test,2,1,110,9,53,1,1037,82,37,1
100918,09:52:59,313716435,test,2,0,112,8,37,1,621,82,39,0
100918,09:52:59,313716435,test,2,0,114,5,39,1,1461,82,41,0
100918,09:52:59,313716435,test,2,1,116,4,40,1,796,82,41,1
100918,09:52:59,313716435,test,2,0,118,6,26,0,478,82,40,0
100918,09:52:59,313716435,test,2,0,120,12,56,1,820,82,41,1
100918,09:52:59,313716435,test,2,1,122,6,20,1,845,83,41,1
100918,09:52:59,313716435,test,2,1,124,3,25,1,516,83,41,0
100918,09:52:59,313716435,test,2,1,126,11,33,1,577,84,41,0
100918,09:52:59,313716435,test,2,1,128,7,13,1,1115,84,41,0
100918,09:52:59,313716435,test,2,0,130,9,70,1,591,84,43,1
100918,09:52:59,313716435,test,2,0,132,12,43,0,857,84,42,0
100918,09:52:59,313716435,test,2,1,134,9,35,1,896,85,42,0
100918,09:52:59,313716435,test,2,1,136,6,51,1,349,85,42,0
100918,09:52:59,313716435,test,2,1,138,2,67,1,344,86,42,1
100918,09:52:59,313716435,test,2,0,140,10,7,1,548,86,44,1
100918,09:52:59,313716435,test,2,0,142,7,28,1,1216,86,45,1
100918,09:52:59,313716435,test,2,0,144,3,37,0,512,86,44,1
100918,13:00:26,844835660,test,2,1,2,12,40,1,776,100,0,0
100918,13:00:26,844835660,test,2,1,4,3,31,1,639,100,0,0
100918,13:00:26,844835660,test,2,1,6,5,22,1,723,100,0,0
100918,13:00:26,844835660,test,2,0,8,3,72,0,1352,100,0,0
100918,13:00:26,844835660,test,2,0,10,9,19,1,719,100,50,0
100918,13:00:26,844835660,test,2,0,12,12,62,1,649,100,66,0
100918,13:00:26,844835660,test,2,1,14,2,35,0,782,75,66,0
100918,13:00:26,844835660,test,2,1,16,6,64,0,1853,60,66,0
100918,13:00:26,844835660,test,2,0,18,2,66,1,1206,60,75,0
100918,13:00:26,844835660,test,2,0,20,6,48,1,690,60,80,0
100918,13:00:26,844835660,test,2,1,22,11,68,1,742,66,80,0
100918,13:00:26,844835660,test,2,1,24,9,45,1,786,71,80,0
100918,13:00:26,844835660,test,2,0,26,7,58,1,675,71,83,0
100918,13:00:26,844835660,test,2,1,28,2,4,0,959,62,83,0
100918,13:00:26,844835660,test,2,0,30,4,55,1,642,62,85,0
100918,13:00:26,844835660,test,2,1,32,3,57,1,587,66,85,0
100918,13:00:26,844835660,test,2,0,34,10,5,1,870,66,87,0
100918,13:00:26,844835660,test,2,0,36,6,54,0,858,66,77,0
100918,13:00:26,844835660,test,2,0,38,9,53,1,671,66,80,0
100918,13:00:26,844835660,test,2,0,40,4,10,0,722,66,72,0
100918,13:00:26,844835660,test,2,0,42,1,21,1,707,66,75,0
100918,13:00:26,844835660,test,2,0,44,2,37,0,696,66,69,0
100918,13:00:26,844835660,test,2,1,46,7,13,0,699,60,69,0
100918,13:00:26,844835660,test,2,1,48,12,1,0,1115,54,69,0
100918,13:00:26,844835660,test,2,1,50,1,70,1,679,58,69,0
100918,13:00:26,844835660,test,2,0,52,11,25,0,767,58,64,0
100918,13:00:26,844835660,test,2,0,54,5,12,0,1079,58,60,0
100918,13:00:26,844835660,test,2,0,56,3,8,0,1666,58,56,0
100918,13:00:26,844835660,test,2,1,58,5,36,1,1142,61,56,0
100918,13:00:26,844835660,test,2,1,60,11,32,1,786,64,56,0
100918,13:00:26,844835660,test,2,1,62,6,7,1,619,66,56,0
100918,13:00:26,844835660,test,2,1,64,8,34,0,561,62,56,0
100918,13:00:26,844835660,test,2,0,66,8,67,1,726,62,58,0
100918,13:00:26,844835660,test,2,0,68,7,28,1,635,62,61,0
100918,13:00:26,844835660,test,2,1,70,4,69,1,971,64,61,0
100918,13:00:26,844835660,test,2,1,72,9,16,0,1954,61,61,0
100918,13:00:26,844835660,test,2,1,74,10,56,1,844,63,61,0
100918,13:00:26,844835660,test,2,1,76,7,30,1,633,65,61,0
100918,13:00:26,844835660,test,2,1,78,4,71,1,753,66,61,0
100918,13:00:26,844835660,test,2,0,80,12,18,1,946,66,63,0
100918,13:00:26,844835660,test,2,0,82,11,47,1,1035,66,65,0
100918,13:00:26,844835660,test,2,0,84,4,42,1,673,66,66,0
100918,13:00:26,844835660,test,2,0,86,12,15,0,874,66,63,0
100918,13:00:26,844835660,test,2,1,88,12,24,1,680,68,63,0
100918,13:00:26,844835660,test,2,0,90,6,6,0,2607,68,60,0
100918,13:00:26,844835660,test,2,0,92,10,11,1,838,68,62,0
100918,13:00:26,844835660,test,2,1,94,5,49,1,921,69,62,0
100918,13:00:26,844835660,test,2,1,96,2,59,1,751,70,62,0
100918,13:00:26,844835660,test,2,1,98,6,44,1,693,72,62,0
100918,13:00:26,844835660,test,2,1,100,1,41,1,927,73,62,0
100918,13:00:26,844835660,test,2,0,102,2,3,1,812,73,64,0
100918,13:00:26,844835660,test,2,1,104,9,60,1,1397,74,64,0
100918,13:00:26,844835660,test,2,0,106,3,61,1,779,74,65,0
100918,13:00:26,844835660,test,2,1,108,11,50,1,799,75,65,0
100918,13:00:26,844835660,test,2,1,110,3,14,0,1011,72,65,0
100918,13:00:26,844835660,test,2,1,112,10,23,1,853,73,65,0
100918,13:00:26,844835660,test,2,0,114,9,26,1,607,73,66,0
100918,13:00:26,844835660,test,2,1,116,8,33,0,1260,70,66,0
100918,13:00:26,844835660,test,2,1,118,7,29,0,1069,68,66,0
100918,13:00:26,844835660,test,2,0,120,1,38,1,811,68,67,0
100918,13:00:26,844835660,test,2,0,122,5,51,1,569,68,68,0
100918,13:00:26,844835660,test,2,0,124,8,65,0,847,68,66,0
100918,13:00:26,844835660,test,2,0,126,7,4,0,914,68,64,0
100918,13:00:26,844835660,test,2,0,128,4,53,1,658,68,65,0
100918,13:00:26,844835660,test,2,0,130,1,25,0,1555,68,63,0
100918,13:00:26,844835660,test,2,1,132,8,39,1,1264,69,63,0
100918,13:00:26,844835660,test,2,0,134,7,62,1,1333,69,64,0
100918,13:00:26,844835660,test,2,1,136,9,38,0,904,67,64,0
100918,13:00:26,844835660,test,2,0,138,6,22,1,1604,67,65,0
100918,13:00:26,844835660,test,2,1,140,12,63,1,612,68,65,0
100918,13:00:26,844835660,test,2,1,142,1,3,0,757,66,65,0
100918,13:00:26,844835660,test,2,0,144,11,69,0,780,66,63,0
100918,13:03:16,295994828,test,2,1,2,9,65,0,869,0,0,0
100918,13:03:16,295994828,test,2,0,4,11,36,1,907,0,100,0
100918,13:03:16,295994828,test,2,0,6,7,26,1,832,0,100,0
100918,13:03:16,295994828,test,2,0,8,2,16,1,1368,0,100,0
100918,13:03:16,295994828,test,2,1,10,12,48,0,1066,0,100,0
100918,13:03:16,295994828,test,2,1,12,3,8,1,584,33,100,0
100918,13:03:16,295994828,test,2,0,14,10,22,1,730,33,100,0
100918,13:03:16,295994828,test,2,1,16,5,24,0,933,25,100,0
100918,13:03:16,295994828,test,2,0,18,12,50,0,761,25,80,0
100918,13:03:16,295994828,test,2,0,20,6,28,1,916,25,83,0
100918,13:03:16,295994828,test,2,0,22,5,15,1,1270,25,85,0
100918,13:03:16,295994828,test,2,1,24,4,13,1,669,40,85,0
100918,13:03:16,295994828,test,2,0,26,8,18,0,683,40,75,0
100918,13:03:16,295994828,test,2,0,28,5,66,0,712,40,66,0
100918,13:03:16,295994828,test,2,0,30,1,29,0,1605,40,60,0
100918,13:03:16,295994828,test,2,0,32,3,23,0,734,40,54,0
100918,13:03:16,295994828,test,2,1,34,6,10,0,1849,33,54,0
100918,13:03:16,295994828,test,2,0,36,12,35,1,584,33,58,0
100918,13:03:16,295994828,test,2,1,38,7,56,1,538,42,58,0
100918,13:03:16,295994828,test,2,1,40,7,42,1,637,50,58,0
100918,13:03:16,295994828,test,2,1,42,2,52,0,813,44,58,0
100918,13:03:16,295994828,test,2,1,44,10,19,0,902,40,58,0
100918,13:03:16,295994828,test,2,1,46,12,31,0,859,36,58,0
100918,13:03:16,295994828,test,2,1,48,11,11,1,833,41,58,0
100918,13:03:16,295994828,test,2,1,50,9,60,1,1224,46,58,0
100918,13:03:16,295994828,test,2,1,52,5,49,0,1088,42,58,0
100918,13:03:16,295994828,test,2,1,54,3,41,0,765,40,58,0
100918,13:03:16,295994828,test,2,0,56,7,69,1,952,40,61,0
100918,13:03:16,295994828,test,2,0,58,9,33,0,699,40,57,0
100918,13:03:16,295994828,test,2,1,60,4,20,0,600,37,57,0
100918,13:03:16,295994828,test,2,1,62,6,51,0,617,35,57,0
100918,13:03:16,295994828,test,2,1,64,8,6,1,1913,38,57,0
100918,13:03:16,295994828,test,2,0,66,4,67,0,614,38,53,0
100918,13:03:16,295994828,test,2,0,68,2,17,1,1030,38,56,0
100918,13:03:16,295994828,test,2,1,70,1,59,1,919,42,56,0
100918,13:03:16,295994828,test,2,1,72,9,34,0,795,40,56,0
100918,13:03:16,295994828,test,2,1,74,1,57,0,788,38,56,0
100918,13:03:16,295994828,test,2,0,76,10,25,0,2126,38,52,0
100918,13:03:16,295994828,test,2,1,78,2,1,0,722,36,52,0
100918,13:03:16,295994828,test,2,1,80,10,30,1,1022,39,52,0
100918,13:03:16,295994828,test,2,0,82,11,54,1,1230,39,55,0
100918,13:03:16,295994828,test,2,1,84,7,55,0,1270,37,55,0
100918,13:03:16,295994828,test,2,0,86,6,21,0,877,37,52,0
100918,13:03:16,295994828,test,2,1,88,3,4,0,1331,36,52,0
100918,13:03:16,295994828,test,2,1,90,5,64,1,1047,38,52,0
100918,13:03:16,295994828,test,2,0,92,2,40,1,1574,38,55,0
100918,13:03:16,295994828,test,2,1,94,8,7,0,977,37,55,0
100918,13:03:16,295994828,test,2,0,96,8,43,0,675,37,52,0
100918,13:03:16,295994828,test,2,0,98,10,47,0,657,37,50,0
100918,13:03:16,295994828,test,2,0,100,7,63,0,1712,37,47,0
100918,13:03:16,295994828,test,2,0,102,1,27,0,965,37,45,0
100918,13:03:16,295994828,test,2,1,104,4,44,1,2136,39,45,0
100918,13:03:16,295994828,test,2,0,106,3,71,0,1723,39,44,0
100918,13:03:16,295994828,test,2,0,108,5,2,0,1984,39,42,0
100918,13:03:16,295994828,test,2,1,110,6,37,1,905,41,42,0
100918,13:03:16,295994828,test,2,1,112,12,46,1,1358,43,42,0
100918,13:03:16,295994828,test,2,0,114,6,32,1,2145,43,44,0
100918,13:03:16,295994828,test,2,0,116,9,5,0,1525,43,42,0
100918,13:03:16,295994828,test,2,1,118,11,70,0,832,41,42,0
100918,13:03:16,295994828,test,2,0,120,4,9,0,1048,41,41,0
100918,13:03:16,295994828,test,2,0,122,12,58,1,2535,41,43,0
100918,13:03:16,295994828,test,2,1,124,6,68,0,4011,40,43,0
100918,13:03:16,295994828,test,2,0,126,11,7,0,852,40,41,0
100918,13:03:16,295994828,test,2,1,128,8,63,1,1835,42,41,0
100918,13:03:16,295994828,test,2,0,130,1,12,1,2123,42,43,0
100918,13:03:16,295994828,test,2,0,132,9,2,0,639,42,42,0
100918,13:03:16,295994828,test,2,0,134,11,67,1,1406,42,44,0
100918,13:03:16,295994828,test,2,0,136,7,1,0,1727,42,42,0
100918,13:03:16,295994828,test,2,1,138,3,44,1,4323,44,42,0
100918,13:03:16,295994828,test,2,0,140,5,47,0,735,44,41,0
100918,13:03:16,295994828,test,2,1,142,2,3,0,747,42,41,0
100918,13:03:16,295994828,test,2,1,144,12,34,0,4102,41,41,0
100918,13:08:30,568558267,test,2,1,2,2,8,1,2802,100,0,0
100918,13:08:30,568558267,test,2,0,4,3,59,0,484,100,0,1
100918,13:08:30,568558267,test,2,1,6,5,69,1,521,100,0,1
100918,13:08:30,568558267,test,2,0,8,9,29,0,721,100,0,1
100918,13:08:30,568558267,test,2,0,10,10,58,0,514,100,0,1
100918,13:08:30,568558267,test,2,0,12,2,65,0,472,100,0,1
100918,13:08:30,568558267,test,2,0,14,11,41,0,415,100,0,1
100918,13:08:30,568558267,test,2,1,16,11,10,1,497,100,0,1
100918,13:08:30,568558267,test,2,1,18,10,26,0,654,75,0,0
100918,13:08:30,568558267,test,2,0,20,8,11,1,1012,75,16,1
100918,13:08:30,568558267,test,2,0,22,4,35,1,542,75,28,0
100918,13:08:30,568558267,test,2,0,24,12,28,0,1570,75,25,1
100918,13:08:30,568558267,test,2,1,26,12,54,1,860,80,25,1
100918,13:08:30,568558267,test,2,0,28,11,24,0,564,80,22,1
100918,13:08:30,568558267,test,2,0,30,7,23,0,584,80,20,1
100918,13:08:30,568558267,test,2,0,32,5,63,0,451,80,18,1
100918,13:08:30,568558267,test,2,1,34,1,67,1,490,83,18,1
100918,13:08:30,568558267,test,2,1,36,9,60,1,890,85,18,1
100918,13:08:30,568558267,test,2,0,38,9,45,0,598,85,16,1
100918,13:08:30,568558267,test,2,0,40,3,70,0,337,85,15,1
100918,13:08:30,568558267,test,2,0,42,8,12,1,533,85,21,1
100918,13:08:30,568558267,test,2,0,44,1,25,0,289,85,20,1
100918,13:08:30,568558267,test,2,1,46,5,55,1,440,87,20,1
100918,13:08:30,568558267,test,2,0,48,4,14,0,894,87,18,1
100918,13:08:30,568558267,test,2,1,50,9,61,1,1134,88,18,1
100918,13:08:30,568558267,test,2,1,52,8,32,1,443,90,18,1
100918,13:08:30,568558267,test,2,0,54,2,15,0,435,90,17,1
100918,13:08:30,568558267,test,2,0,56,6,66,0,419,90,16,1
100918,13:08:30,568558267,test,2,1,58,7,34,1,373,90,16,1
100918,13:08:30,568558267,test,2,1,60,11,7,1,351,91,16,1
100918,13:08:30,568558267,test,2,1,62,6,62,1,475,92,16,1
100918,13:08:30,568558267,test,2,1,64,10,20,1,2050,92,16,1
100918,13:08:30,568558267,test,2,0,66,10,38,0,338,92,15,1
100918,13:08:30,568558267,test,2,1,68,12,27,1,598,93,15,1
100918,13:08:30,568558267,test,2,0,70,1,4,0,336,93,15,1
100918,13:08:30,568558267,test,2,1,72,1,36,1,325,93,15,1
100918,13:08:30,568558267,test,2,0,74,8,50,1,418,93,19,1
100918,13:08:30,568558267,test,2,1,76,4,47,1,563,94,19,1
100918,13:08:30,568558267,test,2,1,78,2,40,1,414,94,19,1
100918,13:08:30,568558267,test,2,0,80,5,6,0,416,94,18,1
100918,13:08:30,568558267,test,2,1,82,3,42,1,345,94,18,1
100918,13:08:30,568558267,test,2,1,84,7,18,1,413,95,18,1
100918,13:08:30,568558267,test,2,1,86,11,33,1,263,95,18,1
100918,13:08:30,568558267,test,2,1,88,1,53,1,294,95,18,1
100918,13:08:30,568558267,test,2,1,90,4,13,1,253,95,18,1
100918,13:08:30,568558267,test,2,1,92,2,52,1,237,95,18,1
100918,13:08:30,568558267,test,2,0,94,11,37,0,373,95,17,1
100918,13:08:30,568558267,test,2,1,96,3,39,1,272,96,17,1
100918,13:08:30,568558267,test,2,1,98,12,17,1,247,96,17,1
100918,13:08:30,568558267,test,2,1,100,9,16,1,201,96,17,1
100918,13:08:30,568558267,test,2,1,102,8,21,1,281,96,17,1
100918,13:08:30,568558267,test,2,0,104,12,64,0,1624,96,16,1
100918,13:08:30,568558267,test,2,0,106,9,22,0,337,96,16,1
100918,13:08:30,568558267,test,2,0,108,2,46,0,429,96,15,1
100918,13:08:30,568558267,test,2,1,110,10,1,0,1094,93,15,0
100918,13:08:30,568558267,test,2,0,112,3,31,0,388,93,14,1
100918,13:08:30,568558267,test,2,0,114,7,68,0,438,93,14,1
100918,13:08:30,568558267,test,2,0,116,10,19,0,347,93,13,1
100918,13:08:30,568558267,test,2,0,118,4,30,0,699,93,13,1
100918,13:08:30,568558267,test,2,1,120,5,3,1,386,93,13,1
100918,13:08:30,568558267,test,2,0,122,6,2,0,331,93,12,1
100918,13:08:30,568558267,test,2,1,124,6,43,1,386,93,12,1
100918,13:08:30,568558267,test,2,1,126,12,6,1,387,93,12,1
100918,13:08:30,568558267,test,2,1,128,11,5,1,197,93,12,1
100918,13:08:30,568558267,test,2,0,130,3,35,0,279,93,12,1
100918,13:08:30,568558267,test,2,1,132,10,18,0,1094,91,12,0
100918,13:08:30,568558267,test,2,0,134,5,8,0,332,91,12,1
100918,13:08:30,568558267,test,2,0,136,8,67,1,481,91,14,1
100918,13:08:30,568558267,test,2,0,138,12,17,0,640,91,14,1
100918,13:08:30,568558267,test,2,0,140,6,10,0,280,91,13,1
100918,13:08:30,568558267,test,2,1,142,3,46,1,399,91,13,1
100918,13:08:30,568558267,test,2,1,144,4,3,1,321,91,13,1
100918,12:10:01,964904693,test,2,0,2,8,31,1,805,0,100,0
100918,12:10:01,964904693,test,2,1,4,5,37,0,910,0,100,0
100918,12:10:01,964904693,test,2,0,6,6,16,0,801,0,50,0
100918,12:10:01,964904693,test,2,1,8,12,64,1,818,50,50,0
100918,12:10:01,964904693,test,2,1,10,6,5,1,786,66,50,0
100918,12:10:01,964904693,test,2,1,12,9,49,1,716,75,50,0
100918,12:10:01,964904693,test,2,0,14,10,30,1,728,75,66,0
100918,12:10:01,964904693,test,2,1,16,8,41,1,860,80,66,0
100918,12:10:01,964904693,test,2,0,18,11,50,1,923,80,75,0
100918,12:10:01,964904693,test,2,1,20,10,25,0,1302,66,75,0
100918,12:10:01,964904693,test,2,0,22,5,1,0,979,66,60,0
100918,12:10:01,964904693,test,2,0,24,2,51,1,829,66,66,0
100918,12:10:01,964904693,test,2,1,26,4,9,0,1597,57,66,0
100918,12:10:01,964904693,test,2,1,28,1,28,1,767,62,66,0
100918,12:10:01,964904693,test,2,0,30,9,29,1,1345,62,71,0
100918,12:10:01,964904693,test,2,0,32,5,15,0,1052,62,62,0
100918,12:10:01,964904693,test,2,1,34,4,6,0,939,55,62,0
100918,12:10:01,964904693,test,2,0,36,12,55,1,822,55,66,0
100918,12:10:01,964904693,test,2,1,38,10,4,0,996,50,66,0
100918,12:10:01,964904693,test,2,0,40,7,44,1,1199,50,70,0
100918,12:10:01,964904693,test,2,1,42,7,40,1,1000,54,70,0
100918,12:10:01,964904693,test,2,1,44,2,71,0,817,50,70,0
100918,12:10:01,964904693,test,2,0,46,10,57,1,832,50,72,0
100918,12:10:01,964904693,test,2,0,48,8,66,1,928,50,75,0
100918,12:10:01,964904693,test,2,1,50,11,54,1,1244,53,75,0
100918,12:10:01,964904693,test,2,0,52,11,63,1,1007,53,76,0
100918,12:10:01,964904693,test,2,0,54,4,72,1,820,53,78,0
100918,12:10:01,964904693,test,2,0,56,1,42,1,941,53,80,0
100918,12:10:01,964904693,test,2,0,58,9,26,1,776,53,81,0
100918,12:10:01,964904693,test,2,1,60,6,27,1,794,57,81,0
100918,12:10:01,964904693,test,2,0,62,2,3,0,866,57,76,0
100918,12:10:01,964904693,test,2,0,64,3,7,1,841,57,77,0
100918,12:10:01,964904693,test,2,1,66,12,24,1,777,60,77,0
100918,12:10:01,964904693,test,2,0,68,6,38,1,844,60,78,0
100918,12:10:01,964904693,test,2,0,70,1,32,1,949,60,80,0
100918,12:10:01,964904693,test,2,0,72,11,11,1,963,60,80,0
100918,12:10:01,964904693,test,2,1,74,9,33,1,791,62,80,0
100918,12:10:01,964904693,test,2,0,76,3,23,1,857,62,81,0
100918,12:10:01,964904693,test,2,1,78,5,61,1,928,64,81,0
100918,12:10:01,964904693,test,2,0,80,9,13,0,908,64,78,0
100918,12:10:01,964904693,test,2,1,82,8,53,1,736,66,78,0
100918,12:10:01,964904693,test,2,1,84,3,68,0,867,63,78,0
100918,12:10:01,964904693,test,2,0,86,5,19,1,753,63,79,0
100918,12:10:01,964904693,test,2,1,88,8,48,1,1036,65,79,0
100918,12:10:01,964904693,test,2,0,90,7,10,0,892,65,76,0
100918,12:10:01,964904693,test,2,0,92,10,17,0,1257,65,73,0
100918,12:10:01,964904693,test,2,0,94,12,60,0,956,65,70,0
100918,12:10:01,964904693,test,2,0,96,6,43,0,1530,65,67,0
100918,12:10:01,964904693,test,2,0,98,4,2,0,1294,65,65,0
100918,12:10:01,964904693,test,2,0,100,8,36,1,1364,65,66,0
100918,12:10:01,964904693,test,2,1,102,2,21,0,1126,61,66,0
100918,12:10:01,964904693,test,2,1,104,12,58,1,1076,63,66,0
100918,12:10:01,964904693,test,2,0,106,2,52,1,832,63,67,0
100918,12:10:01,964904693,test,2,1,108,11,8,0,938,60,67,0
100918,12:10:01,964904693,test,2,0,110,5,56,1,868,60,68,0
100918,12:10:01,964904693,test,2,1,112,10,47,1,762,62,68,0
100918,12:10:01,964904693,test,2,1,114,4,39,0,836,60,68,0
100918,12:10:01,964904693,test,2,1,116,6,22,1,780,61,68,0
100918,12:10:01,964904693,test,2,1,118,7,59,0,806,59,68,0
100918,12:10:01,964904693,test,2,1,120,5,12,0,815,57,68,0
100918,12:10:01,964904693,test,2,0,122,4,35,0,775,57,66,0
100918,12:10:01,964904693,test,2,1,124,9,46,1,1083,58,66,0
100918,12:10:01,964904693,test,2,0,126,2,55,0,1105,58,64,0
100918,12:10:01,964904693,test,2,1,128,1,59,0,811,56,64,0
100918,12:10:01,964904693,test,2,0,130,6,53,1,900,56,65,0
100918,12:10:01,964904693,test,2,1,132,3,69,1,778,58,65,0
100918,12:10:01,964904693,test,2,1,134,3,52,1,987,59,65,0
100918,12:10:01,964904693,test,2,1,136,10,2,1,1028,60,65,0
100918,12:10:01,964904693,test,2,1,138,12,18,1,965,61,65,0
100918,12:10:01,964904693,test,2,1,140,2,49,1,768,62,65,0
100918,12:10:01,964904693,test,2,1,142,9,56,1,1201,63,65,0
100918,12:10:01,964904693,test,2,0,144,12,48,1,804,63,66,0
100918,10:16:43,602656804,test,2,1,2,2,13,1,1170,100,0,0
100918,10:16:43,602656804,test,2,1,4,7,5,0,1168,50,0,0
100918,10:16:43,602656804,test,2,0,6,1,45,0,908,50,0,0
100918,10:16:43,602656804,test,2,0,8,6,19,1,1061,50,50,0
100918,10:16:43,602656804,test,2,1,10,4,25,0,931,33,50,0
100918,10:16:43,602656804,test,2,0,12,11,12,1,997,33,66,0
100918,10:16:43,602656804,test,2,0,14,4,32,1,1644,33,75,0
100918,10:16:43,602656804,test,2,1,16,9,35,0,1223,25,75,0
100918,10:16:43,602656804,test,2,0,18,7,53,0,783,25,60,0
100918,10:16:43,602656804,test,2,0,20,12,24,0,770,25,50,0
100918,10:16:43,602656804,test,2,1,22,10,44,1,882,40,50,0
100918,10:16:43,602656804,test,2,1,24,1,39,1,671,50,50,0
100918,10:16:43,602656804,test,2,1,26,6,46,0,1234,42,50,0
100918,10:16:43,602656804,test,2,1,28,7,15,1,951,50,50,0
100918,10:16:43,602656804,test,2,0,30,2,11,1,777,50,57,0
100918,10:16:43,602656804,test,2,1,32,3,70,1,597,55,57,0
100918,10:16:43,602656804,test,2,1,34,9,71,1,791,60,57,0
100918,10:16:43,602656804,test,2,0,36,7,28,0,1001,60,50,0
100918,10:16:43,602656804,test,2,1,38,5,34,0,1545,54,50,0
100918,10:16:43,602656804,test,2,1,40,11,33,0,736,50,50,0
100918,10:16:43,602656804,test,2,0,42,2,42,0,801,50,44,0
100918,10:16:43,602656804,test,2,1,44,2,72,0,1138,46,44,0
100918,10:16:43,602656804,test,2,0,46,12,64,0,1266,46,40,0
100918,10:16:43,602656804,test,2,0,48,1,54,0,851,46,36,0
100918,10:16:43,602656804,test,2,1,50,10,26,0,986,42,36,0
100918,10:16:43,602656804,test,2,1,52,12,20,1,926,46,36,0
100918,10:16:43,602656804,test,2,0,54,11,50,0,1085,46,33,0
100918,10:16:43,602656804,test,2,0,56,8,22,1,727,46,38,0
100918,10:16:43,602656804,test,2,1,58,8,31,1,950,50,38,0
100918,10:16:43,602656804,test,2,0,60,5,62,0,766,50,35,0
100918,10:16:43,602656804,test,2,1,62,6,58,0,902,47,35,0
100918,10:16:43,602656804,test,2,0,64,4,1,1,908,47,40,0
100918,10:16:43,602656804,test,2,0,66,6,66,0,900,47,37,0
100918,10:16:43,602656804,test,2,0,68,3,69,1,915,47,41,0
100918,10:16:43,602656804,test,2,0,70,9,17,1,1192,47,44,0
100918,10:16:43,602656804,test,2,0,72,10,30,1,1121,47,47,0
100918,10:16:43,602656804,test,2,1,74,4,60,1,804,50,47,0
100918,10:16:43,602656804,test,2,1,76,1,18,0,601,47,47,0
100918,10:16:43,602656804,test,2,1,78,7,40,0,1858,45,47,0
100918,10:16:43,602656804,test,2,0,80,1,21,1,665,45,50,0
100918,10:16:43,602656804,test,2,0,82,3,47,0,654,45,47,0
100918,10:16:43,602656804,test,2,1,84,4,8,1,944,47,47,0
100918,10:16:43,602656804,test,2,0,86,9,36,0,971,47,45,0
100918,10:16:43,602656804,test,2,1,88,2,38,1,546,50,45,0
100918,10:16:43,602656804,test,2,1,90,12,4,1,536,52,45,0
100918,10:16:43,602656804,test,2,1,92,3,29,1,641,54,45,0
100918,10:16:43,602656804,test,2,1,94,8,51,0,983,52,45,0
100918,10:16:43,602656804,test,2,1,96,5,6,1,817,53,45,0
100918,10:16:43,602656804,test,2,0,98,11,23,1,937,53,47,0
100918,10:16:43,602656804,test,2,0,100,6,3,0,853,53,45,0
100918,10:16:43,602656804,test,2,0,102,4,55,1,1173,53,48,0
100918,10:16:43,602656804,test,2,1,104,10,56,1,520,55,48,0
100918,10:16:43,602656804,test,2,0,106,12,61,0,784,55,46,0
100918,10:16:43,602656804,test,2,1,108,6,63,0,821,53,46,0
100918,10:16:43,602656804,test,2,1,110,1,14,1,601,55,46,0
100918,10:16:43,602656804,test,2,0,112,5,2,0,2096,55,44,0
100918,10:16:43,602656804,test,2,1,114,9,52,0,1093,53,44,0
100918,10:16:43,602656804,test,2,1,116,11,49,1,1782,54,44,0
100918,10:16:43,602656804,test,2,0,118,8,10,1,767,54,46,0
100918,10:16:43,602656804,test,2,1,120,10,65,0,1193,53,46,0
100918,10:16:43,602656804,test,2,1,122,12,67,1,1095,54,46,0
100918,10:16:43,602656804,test,2,0,124,2,37,1,593,54,48,0
100918,10:16:43,602656804,test,2,0,126,10,12,0,679,54,46,0
100918,10:16:43,602656804,test,2,0,128,7,9,1,802,54,48,0
100918,10:16:43,602656804,test,2,1,130,4,28,0,855,52,48,0
100918,10:16:43,602656804,test,2,0,132,11,38,0,750,52,46,0
100918,10:16:43,602656804,test,2,0,134,1,52,0,1227,52,45,0
100918,10:16:43,602656804,test,2,1,136,1,13,1,699,54,45,0
100918,10:16:43,602656804,test,2,0,138,7,72,1,1431,54,47,0
100918,10:16:43,602656804,test,2,0,140,9,23,1,698,54,48,0
100918,10:16:43,602656804,test,2,0,142,10,5,0,767,54,47,0
100918,10:16:43,602656804,test,2,1,144,9,2,1,569,55,47,0
100918,10:26:26,466283845,test,2,1,2,11,45,1,599,100,0,0
100918,10:26:26,466283845,test,2,1,4,8,12,0,613,50,0,0
100918,10:26:26,466283845,test,2,1,6,6,60,1,673,66,0,1
100918,10:26:26,466283845,test,2,1,8,10,6,0,564,50,0,0
100918,10:26:26,466283845,test,2,1,10,5,52,1,500,60,0,0
100918,10:26:26,466283845,test,2,0,12,3,27,1,502,60,100,0
100918,10:26:26,466283845,test,2,0,14,4,65,0,671,60,50,0
100918,10:26:26,466283845,test,2,0,16,10,70,1,530,60,66,0
100918,10:26:26,466283845,test,2,0,18,9,37,1,698,60,75,0
100918,10:26:26,466283845,test,2,0,20,1,30,1,812,60,80,1
100918,10:26:26,466283845,test,2,1,22,9,11,1,681,66,80,1
100918,10:26:26,466283845,test,2,0,24,5,39,0,1076,66,66,1
100918,10:26:26,466283845,test,2,0,26,2,41,0,1181,66,57,1
100918,10:26:26,466283845,test,2,1,28,1,24,1,507,71,57,1
100918,10:26:26,466283845,test,2,0,30,3,7,1,485,71,62,0
100918,10:26:26,466283845,test,2,0,32,8,40,1,552,71,66,0
100918,10:26:26,466283845,test,2,1,34,11,8,1,929,75,66,1
100918,10:26:26,466283845,test,2,1,36,4,21,1,1513,77,66,1
100918,10:26:26,466283845,test,2,1,38,1,51,1,480,80,66,1
100918,10:26:26,466283845,test,2,0,40,2,59,1,563,80,70,0
100918,10:26:26,466283845,test,2,1,42,6,31,0,867,72,70,0
100918,10:26:26,466283845,test,2,1,44,7,56,1,582,75,70,0
100918,10:26:26,466283845,test,2,1,46,12,35,1,749,76,70,0
100918,10:26:26,466283845,test,2,0,48,7,61,1,533,76,72,0
100918,10:26:26,466283845,test,2,1,50,3,1,0,614,71,72,0
100918,10:26:26,466283845,test,2,1,52,10,5,1,524,73,72,0
100918,10:26:26,466283845,test,2,0,54,4,66,1,821,73,75,1
100918,10:26:26,466283845,test,2,0,56,5,55,1,610,73,76,0
100918,10:26:26,466283845,test,2,0,58,11,14,1,536,73,78,0
100918,10:26:26,466283845,test,2,0,60,1,67,1,649,73,80,0
100918,10:26:26,466283845,test,2,0,62,6,43,0,725,73,75,1
100918,10:26:26,466283845,test,2,1,64,2,9,1,678,75,75,1
100918,10:26:26,466283845,test,2,0,66,9,62,1,585,75,76,0
100918,10:26:26,466283845,test,2,1,68,9,4,0,832,70,76,0
100918,10:26:26,466283845,test,2,0,70,12,25,1,604,70,77,0
100918,10:26:26,466283845,test,2,1,72,5,53,1,474,72,77,0
100918,10:26:26,466283845,test,2,0,74,10,3,0,797,72,73,1
100918,10:26:26,466283845,test,2,0,76,8,33,1,587,72,75,0
100918,10:26:26,466283845,test,2,0,78,9,69,1,409,72,76,0
100918,10:26:26,466283845,test,2,0,80,12,36,1,576,72,77,0
100918,10:26:26,466283845,test,2,1,82,8,63,1,495,73,77,0
100918,10:26:26,466283845,test,2,0,84,6,48,1,578,73,78,0
100918,10:26:26,466283845,test,2,0,86,3,13,0,769,73,75,1
100918,10:26:26,466283845,test,2,1,88,4,47,1,552,75,75,0
100918,10:26:26,466283845,test,2,1,90,6,46,1,584,76,75,0
100918,10:26:26,466283845,test,2,1,92,9,10,0,560,72,75,0
100918,10:26:26,466283845,test,2,1,94,7,71,0,767,69,75,0
100918,10:26:26,466283845,test,2,0,96,10,38,1,511,69,76,0
100918,10:26:26,466283845,test,2,0,98,5,28,1,561,69,76,0
100918,10:26:26,466283845,test,2,1,100,3,29,1,520,70,76,0
100918,10:26:26,466283845,test,2,1,102,10,22,1,450,72,76,0
100918,10:26:26,466283845,test,2,1,104,12,26,1,495,73,76,0
100918,10:26:26,466283845,test,2,0,106,7,72,0,689,73,74,0
100918,10:26:26,466283845,test,2,0,108,11,64,1,548,73,75,1
100918,10:26:26,466283845,test,2,1,110,11,44,1,652,74,75,0
100918,10:26:26,466283845,test,2,0,112,2,57,0,1736,74,72,1
100918,10:26:26,466283845,test,2,1,114,8,32,1,598,75,72,0
100918,10:26:26,466283845,test,2,1,116,1,18,1,869,75,72,0
100918,10:26:26,466283845,test,2,0,118,4,50,0,720,75,70,1
100918,10:26:26,466283845,test,2,1,120,2,49,0,985,73,70,0
100918,10:26:26,466283845,test,2,1,122,5,2,0,719,70,70,0
100918,10:26:26,466283845,test,2,0,124,1,68,1,552,70,70,0
100918,10:26:26,466283845,test,2,0,126,3,16,0,721,70,68,0
100918,10:26:26,466283845,test,2,0,128,9,42,1,450,70,69,0
100918,10:26:26,466283845,test,2,1,130,8,58,1,462,71,69,0
100918,10:26:26,466283845,test,2,1,132,4,25,0,586,69,69,0
100918,10:26:26,466283845,test,2,0,134,8,65,1,705,69,70,1
100918,10:26:26,466283845,test,2,1,136,1,12,0,619,67,70,0
100918,10:26:26,466283845,test,2,0,138,4,64,0,729,67,68,0
100918,10:26:26,466283845,test,2,0,140,10,22,1,545,67,69,0
100918,10:26:26,466283845,test,2,1,142,9,36,0,514,65,69,0
100918,10:26:26,466283845,test,2,1,144,5,45,0,708,63,69,0
100918,13:27:06,703603455,test,2,0,2,3,61,1,1282,0,100,0
100918,13:27:06,703603455,test,2,0,4,9,27,1,822,0,100,0
100918,13:27:06,703603455,test,2,0,6,4,43,0,1134,0,66,0
100918,13:27:06,703603455,test,2,0,8,1,32,1,648,0,75,0
100918,13:27:06,703603455,test,2,0,10,6,36,1,823,0,80,0
100918,13:27:06,703603455,test,2,1,12,1,5,1,750,100,80,0
100918,13:27:06,703603455,test,2,0,14,12,33,1,744,100,83,0
100918,13:27:06,703603455,test,2,1,16,3,34,1,819,100,83,0
100918,13:27:06,703603455,test,2,1,18,6,55,1,618,100,83,0
100918,13:27:06,703603455,test,2,1,20,7,42,1,554,100,83,0
100918,13:27:06,703603455,test,2,1,22,9,3,1,844,100,83,0
100918,13:27:06,703603455,test,2,0,24,8,21,1,1155,100,85,0
100918,13:27:06,703603455,test,2,0,26,11,31,1,606,100,87,0
100918,13:27:06,703603455,test,2,1,28,11,53,1,526,100,87,0
100918,13:27:06,703603455,test,2,1,30,12,44,1,721,100,87,0
100918,13:27:06,703603455,test,2,1,32,4,8,0,972,87,87,0
100918,13:27:06,703603455,test,2,1,34,8,72,0,990,77,87,0
100918,13:27:06,703603455,test,2,0,36,5,50,1,862,77,88,0
100918,13:27:06,703603455,test,2,0,38,3,41,1,788,77,90,0
100918,13:27:06,703603455,test,2,0,40,6,56,1,621,77,90,0
100918,13:27:06,703603455,test,2,0,42,2,2,0,1004,77,83,0
100918,13:27:06,703603455,test,2,0,44,9,38,1,1068,77,84,0
100918,13:27:06,703603455,test,2,1,46,3,11,0,905,70,84,0
100918,13:27:06,703603455,test,2,1,48,5,12,0,765,63,84,0
100918,13:27:06,703603455,test,2,1,50,6,46,1,696,66,84,0
100918,13:27:06,703603455,test,2,0,52,10,10,0,820,66,78,0
100918,13:27:06,703603455,test,2,0,54,4,39,1,828,66,80,0
100918,13:27:06,703603455,test,2,1,56,2,70,1,612,69,80,0
100918,13:27:06,703603455,test,2,1,58,11,45,0,724,64,80,0
100918,13:27:06,703603455,test,2,1,60,12,28,1,720,66,80,0
100918,13:27:06,703603455,test,2,0,62,12,71,1,939,66,81,0
100918,13:27:06,703603455,test,2,1,64,10,37,1,654,68,81,0
100918,13:27:06,703603455,test,2,0,66,8,49,1,604,68,82,0
100918,13:27:06,703603455,test,2,1,68,7,7,1,540,70,82,0
100918,13:27:06,703603455,test,2,1,70,1,68,1,607,72,82,0
100918,13:27:06,703603455,test,2,0,72,1,25,0,863,72,77,0
100918,13:27:06,703603455,test,2,0,74,7,47,1,661,72,78,0
100918,13:27:06,703603455,test,2,1,76,9,14,1,947,73,78,0
100918,13:27:06,703603455,test,2,1,78,1,65,1,614,75,78,0
100918,13:27:06,703603455,test,2,1,80,4,67,0,662,71,78,0
100918,13:27:06,703603455,test,2,0,82,6,16,1,852,71,80,0
100918,13:27:06,703603455,test,2,1,84,9,24,1,571,72,80,0
100918,13:27:06,703603455,test,2,1,86,6,4,0,621,69,80,0
100918,13:27:06,703603455,test,2,0,88,2,22,1,572,69,80,0
100918,13:27:06,703603455,test,2,0,90,5,58,1,542,69,81,0
100918,13:27:06,703603455,test,2,1,92,3,18,1,561,70,81,0
100918,13:27:06,703603455,test,2,0,94,8,29,0,707,70,78,0
100918,13:27:06,703603455,test,2,1,96,8,51,1,591,72,78,0
100918,13:27:06,703603455,test,2,0,98,9,17,1,577,72,79,0
100918,13:27:06,703603455,test,2,1,100,11,30,1,738,73,79,0
100918,13:27:06,703603455,test,2,1,102,2,6,0,605,70,79,0
100918,13:27:06,703603455,test,2,1,104,10,60,1,893,71,79,0
100918,13:27:06,703603455,test,2,0,106,12,48,0,722,71,76,0
100918,13:27:06,703603455,test,2,0,108,3,20,1,605,71,76,0
100918,13:27:06,703603455,test,2,0,110,11,40,1,653,71,77,0
100918,13:27:06,703603455,test,2,1,112,12,62,1,620,72,77,0
100918,13:27:06,703603455,test,2,1,114,7,9,0,779,70,77,0
100918,13:27:06,703603455,test,2,0,116,4,26,1,582,70,78,0
100918,13:27:06,703603455,test,2,0,118,1,19,0,776,70,75,0
100918,13:27:06,703603455,test,2,1,120,5,64,0,690,67,75,0
100918,13:27:06,703603455,test,2,1,122,2,35,0,1166,65,75,0
100918,13:27:06,703603455,test,2,0,124,10,52,1,552,65,76,0
100918,13:27:06,703603455,test,2,0,126,7,44,0,1098,65,74,0
100918,13:27:06,703603455,test,2,1,128,6,51,1,566,66,74,0
100918,13:27:06,703603455,test,2,0,130,4,39,1,936,66,75,0
100918,13:27:06,703603455,test,2,0,132,9,47,1,619,66,75,0
100918,13:27:06,703603455,test,2,0,134,7,55,1,555,66,76,0
100918,13:27:06,703603455,test,2,1,136,5,14,1,958,67,76,0
100918,13:27:06,703603455,test,2,1,138,7,28,1,608,68,76,0
100918,13:27:06,703603455,test,2,0,140,3,64,0,689,68,74,0
100918,13:27:06,703603455,test,2,0,142,11,48,0,686,68,72,0
100918,13:27:06,703603455,test,2,1,144,3,1,1,890,69,72,0
100918,12:17:13,993168739,test,2,1,2,8,8,1,686,100,0,0
100918,12:17:13,993168739,test,2,0,4,1,51,1,571,100,100,0
100918,12:17:13,993168739,test,2,0,6,6,41,0,1914,100,50,1
100918,12:17:13,993168739,test,2,1,8,10,56,1,691,100,50,1
100918,12:17:13,993168739,test,2,1,10,5,45,1,694,100,50,1
100918,12:17:13,993168739,test,2,0,12,7,44,0,1606,100,33,1
100918,12:17:13,993168739,test,2,0,14,4,43,0,4423,100,25,1
100918,12:17:13,993168739,test,2,0,16,11,26,1,693,100,40,0
100918,12:17:13,993168739,test,2,0,18,2,34,1,937,100,50,0
100918,12:17:13,993168739,test,2,1,20,9,50,1,624,100,50,0
100918,12:17:13,993168739,test,2,0,22,10,68,1,493,100,57,0
100918,12:17:13,993168739,test,2,1,24,3,10,1,500,100,57,1
100918,12:17:13,993168739,test,2,1,26,6,54,1,1243,100,57,1
100918,12:17:13,993168739,test,2,0,28,11,57,1,840,100,62,0
100918,12:17:13,993168739,test,2,0,30,12,33,1,587,100,66,0
100918,12:17:13,993168739,test,2,0,32,1,16,1,447,100,70,0
100918,12:17:13,993168739,test,2,0,34,8,61,1,2516,100,72,0
100918,12:17:13,993168739,test,2,0,36,2,2,1,801,100,75,0
100918,12:17:13,993168739,test,2,0,38,7,62,1,480,100,76,0
100918,12:17:13,993168739,test,2,1,40,1,37,1,563,100,76,1
100918,12:17:13,993168739,test,2,1,42,8,13,0,972,87,76,0
100918,12:17:13,993168739,test,2,1,44,11,36,1,534,88,76,0
100918,12:17:13,993168739,test,2,1,46,7,11,1,531,90,76,1
100918,12:17:13,993168739,test,2,1,48,12,28,1,542,90,76,0
100918,12:17:13,993168739,test,2,1,50,2,55,1,473,91,76,0
100918,12:17:13,993168739,test,2,1,52,1,4,1,903,92,76,1
100918,12:17:13,993168739,test,2,1,54,6,47,1,1020,92,76,1
100918,12:17:13,993168739,test,2,0,56,5,59,1,1928,92,78,0
100918,12:17:13,993168739,test,2,0,58,3,17,0,956,92,73,1
100918,12:17:13,993168739,test,2,0,60,10,53,1,769,92,75,0
100918,12:17:13,993168739,test,2,1,62,10,46,1,507,93,75,1
100918,12:17:13,993168739,test,2,1,64,3,72,1,468,93,75,0
100918,12:17:13,993168739,test,2,0,66,9,24,1,2094,93,76,0
100918,12:17:13,993168739,test,2,1,68,5,64,1,425,94,76,1
100918,12:17:13,993168739,test,2,0,70,6,32,1,2056,94,77,0
100918,12:17:13,993168739,test,2,0,72,4,58,1,2048,94,78,0
100918,12:17:13,993168739,test,2,0,74,2,66,1,1413,94,80,0
100918,12:17:13,993168739,test,2,0,76,10,63,1,704,94,80,0
100918,12:17:13,993168739,test,2,1,78,4,65,1,580,94,80,0
100918,12:17:13,993168739,test,2,0,80,1,48,1,546,94,81,0
100918,12:17:13,993168739,test,2,1,82,9,18,1,489,94,81,0
100918,12:17:13,993168739,test,2,0,84,7,22,1,526,94,82,0
100918,12:17:13,993168739,test,2,1,86,1,19,1,473,95,82,1
100918,12:17:13,993168739,test,2,1,88,11,12,0,968,90,82,0
100918,12:17:13,993168739,test,2,0,90,9,39,0,820,90,79,0
100918,12:17:13,993168739,test,2,1,92,3,40,1,709,90,79,0
100918,12:17:13,993168739,test,2,0,94,6,67,1,1404,90,80,0
100918,12:17:13,993168739,test,2,0,96,8,7,1,986,90,80,0
100918,12:17:13,993168739,test,2,1,98,7,1,1,689,91,80,1
100918,12:17:13,993168739,test,2,1,100,6,52,1,564,91,80,1
100918,12:17:13,993168739,test,2,0,102,12,20,1,678,91,81,0
100918,12:17:13,993168739,test,2,1,104,4,25,1,434,92,81,0
100918,12:17:13,993168739,test,2,0,106,11,42,1,461,92,82,0
100918,12:17:13,993168739,test,2,0,108,5,30,1,598,92,82,0
100918,12:17:13,993168739,test,2,1,110,12,38,1,709,92,82,0
100918,12:17:13,993168739,test,2,1,112,2,5,1,620,92,82,0
100918,12:17:13,993168739,test,2,0,114,4,23,1,551,92,83,0
100918,12:17:13,993168739,test,2,1,116,8,35,0,618,89,83,0
100918,12:17:13,993168739,test,2,1,118,10,21,0,1669,86,83,0
100918,12:17:13,993168739,test,2,1,120,5,6,0,755,83,83,0
100918,12:17:13,993168739,test,2,1,122,9,3,0,832,80,83,0
100918,12:17:13,993168739,test,2,0,124,3,27,1,994,80,83,0
100918,12:17:13,993168739,test,2,0,126,4,49,1,747,80,84,0
100918,12:17:13,993168739,test,2,0,128,10,16,0,1524,80,81,0
100918,12:17:13,993168739,test,2,1,130,7,26,1,586,81,81,1
100918,12:17:13,993168739,test,2,0,132,7,9,1,924,81,82,0
100918,12:17:13,993168739,test,2,0,134,12,45,1,463,81,82,0
100918,12:17:13,993168739,test,2,1,136,11,14,1,1958,81,82,0
100918,12:17:13,993168739,test,2,0,138,9,6,0,522,81,80,0
100918,12:17:13,993168739,test,2,1,140,10,70,1,690,82,80,0
100918,12:17:13,993168739,test,2,1,142,9,52,1,535,82,80,0
100918,12:17:13,993168739,test,2,1,144,5,13,0,893,80,80,0
100918,12:31:50,503719655,test,2,1,2,3,71,1,345,100,0,0
100918,12:31:50,503719655,test,2,0,4,4,51,0,1130,100,0,0
100918,12:31:50,503719655,test,2,0,6,9,64,1,998,100,50,0
100918,12:31:50,503719655,test,2,0,8,10,31,1,1647,100,66,0
100918,12:31:50,503719655,test,2,0,10,12,11,1,5129,100,75,0
100918,12:31:50,503719655,test,2,1,12,12,3,0,560,50,75,0
100918,12:31:50,503719655,test,2,1,14,2,23,1,1240,66,75,0
100918,12:31:50,503719655,test,2,0,16,3,22,0,925,66,60,0
100918,12:31:50,503719655,test,2,1,18,1,32,1,1993,75,60,0
100918,12:31:50,503719655,test,2,1,20,9,15,1,1950,80,60,0
100918,12:31:50,503719655,test,2,0,22,8,57,0,1373,80,50,0
100918,12:31:50,503719655,test,2,0,24,11,36,1,1067,80,57,0
100918,12:31:50,503719655,test,2,0,26,4,18,1,3509,80,62,0
100918,12:31:50,503719655,test,2,0,28,10,27,0,2323,80,55,0
100918,12:31:50,503719655,test,2,0,30,9,63,0,1965,80,50,0
100918,12:31:50,503719655,test,2,1,32,6,67,0,4986,66,50,0
100918,12:31:50,503719655,test,2,1,34,11,68,1,4119,71,50,0
100918,12:31:50,503719655,test,2,0,36,6,20,1,646,71,54,0
100918,12:31:50,503719655,test,2,1,38,4,50,0,414,62,54,0
100918,12:31:50,503719655,test,2,0,40,1,26,0,2108,62,50,0
100918,12:31:50,503719655,test,2,1,42,6,48,1,1239,66,50,0
100918,12:31:50,503719655,test,2,1,44,10,8,1,1420,70,50,0
100918,12:31:50,503719655,test,2,1,46,12,45,0,137,63,50,0
100918,12:31:50,503719655,test,2,0,48,7,35,1,1874,63,53,0
100918,12:31:50,503719655,test,2,0,50,8,53,0,2015,63,50,0
100918,12:31:50,503719655,test,2,0,52,12,19,1,3550,63,53,0
100918,12:31:50,503719655,test,2,1,54,1,59,1,4054,66,53,0
100918,12:31:50,503719655,test,2,1,56,7,58,1,2865,69,53,0
100918,12:31:50,503719655,test,2,0,58,11,2,0,963,69,50,0
100918,12:31:50,503719655,test,2,1,60,2,72,0,669,64,50,0
100918,12:31:50,503719655,test,2,1,62,9,52,1,4240,66,50,0
100918,12:31:50,503719655,test,2,0,64,2,12,0,2475,66,47,0
100918,12:31:50,503719655,test,2,0,66,3,16,1,2048,66,50,0
100918,12:31:50,503719655,test,2,1,68,8,39,1,2552,68,50,0
100918,12:31:50,503719655,test,2,1,70,11,46,0,1012,64,50,0
100918,12:31:50,503719655,test,2,1,72,3,10,0,3408,61,50,0
100918,12:31:50,503719655,test,2,0,74,5,69,1,2648,61,52,0
100918,12:31:50,503719655,test,2,0,76,1,17,1,1876,61,55,0
100918,12:31:50,503719655,test,2,0,78,6,56,0,4546,61,52,0
100918,12:31:50,503719655,test,2,1,80,5,54,1,1695,63,52,0
100918,12:31:50,503719655,test,2,0,82,10,28,0,1737,63,50,0
100918,12:31:50,503719655,test,2,1,84,8,9,0,2107,60,50,0
100918,12:31:50,503719655,test,2,1,86,11,25,1,318,61,50,0
100918,12:31:50,503719655,test,2,1,88,2,37,1,242,63,50,0
100918,12:31:50,503719655,test,2,1,90,1,5,0,127,60,50,0
100918,12:31:50,503719655,test,2,0,92,3,7,0,30,60,47,0
100918,12:31:50,503719655,test,2,0,94,11,70,1,308,60,50,0
100918,12:31:50,503719655,test,2,0,96,12,60,1,220,60,52,0
100918,12:31:50,503719655,test,2,0,98,5,42,0,120,60,50,0
100918,12:31:50,503719655,test,2,1,100,5,44,1,205,62,50,0
100918,12:31:50,503719655,test,2,1,102,3,61,1,280,64,50,0
100918,12:31:50,503719655,test,2,1,104,6,6,0,318,61,50,0
100918,12:31:50,503719655,test,2,1,106,4,33,0,412,59,50,0
100918,12:31:50,503719655,test,2,0,108,4,62,1,451,59,51,0
100918,12:31:50,503719655,test,2,1,110,10,29,1,523,60,51,0
100918,12:31:50,503719655,test,2,0,112,8,30,0,285,60,50,0
100918,12:31:50,503719655,test,2,1,114,7,49,0,577,58,50,0
100918,12:31:50,503719655,test,2,1,116,12,24,1,909,60,50,0
100918,12:31:50,503719655,test,2,1,118,9,66,1,331,61,50,0
100918,12:31:50,503719655,test,2,0,120,9,34,0,725,61,48,0
100918,12:31:50,503719655,test,2,1,122,10,4,1,714,62,48,0
100918,12:31:50,503719655,test,2,1,124,1,38,1,1756,63,48,0
100918,12:31:50,503719655,test,2,0,126,7,49,0,285,63,46,0
100918,12:31:50,503719655,test,2,1,128,3,14,1,747,64,46,0
100918,12:31:50,503719655,test,2,0,130,2,44,0,405,64,45,0
100918,12:31:50,503719655,test,2,0,132,9,56,0,182,64,43,0
100918,12:31:50,503719655,test,2,1,134,4,51,1,347,65,43,0
100918,12:31:50,503719655,test,2,0,136,11,70,0,473,65,42,0
100918,12:31:50,503719655,test,2,0,138,1,25,1,317,65,44,0
100918,12:31:50,503719655,test,2,0,140,12,20,1,252,65,45,0
100918,12:31:50,503719655,test,2,1,142,12,12,0,312,63,45,0
100918,12:31:50,503719655,test,2,0,144,4,36,0,303,63,44,0
100918,13:35:59,850346999,test,2,0,2,10,4,0,243,0,0,1
100918,13:35:59,850346999,test,2,0,4,4,14,0,174,0,0,1
100918,13:35:59,850346999,test,2,1,6,11,18,0,296,0,0,0
100918,13:35:59,850346999,test,2,1,8,12,19,1,390,50,0,1
100918,13:35:59,850346999,test,2,1,10,9,24,1,216,66,0,0
100918,13:35:59,850346999,test,2,1,12,1,29,1,223,75,0,1
100918,13:35:59,850346999,test,2,0,14,7,33,0,192,75,0,1
100918,13:35:59,850346999,test,2,0,16,5,58,0,205,75,0,1
100918,13:35:59,850346999,test,2,1,18,6,15,0,356,60,0,0
100918,13:35:59,850346999,test,2,1,20,7,52,1,267,66,0,1
100918,13:35:59,850346999,test,2,0,22,2,56,1,207,66,20,0
100918,13:35:59,850346999,test,2,0,24,3,17,0,176,66,16,1
100918,13:35:59,850346999,test,2,1,26,2,11,1,243,71,16,1
100918,13:35:59,850346999,test,2,1,28,12,42,1,333,75,16,1
100918,13:35:59,850346999,test,2,0,30,11,10,0,234,75,14,1
100918,13:35:59,850346999,test,2,1,32,9,48,1,229,77,14,0
100918,13:35:59,850346999,test,2,1,34,5,72,1,215,80,14,1
100918,13:35:59,850346999,test,2,0,36,11,38,0,265,80,12,1
100918,13:35:59,850346999,test,2,0,38,12,13,0,206,80,11,1
100918,13:35:59,850346999,test,2,0,40,6,50,0,232,80,10,1
100918,13:35:59,850346999,test,2,1,42,11,16,1,255,81,10,0
100918,13:35:59,850346999,test,2,1,44,10,27,1,190,83,10,1
100918,13:35:59,850346999,test,2,1,46,1,60,1,197,84,10,1
100918,13:35:59,850346999,test,2,0,48,4,28,0,282,84,9,1
100918,13:35:59,850346999,test,2,0,50,8,57,0,233,84,8,1
100918,13:35:59,850346999,test,2,1,52,4,8,0,255,78,8,1
100918,13:35:59,850346999,test,2,0,54,1,43,0,195,78,7,1
100918,13:35:59,850346999,test,2,0,56,5,2,0,183,78,7,1
100918,13:35:59,850346999,test,2,1,58,2,65,1,252,80,7,1
100918,13:35:59,850346999,test,2,1,60,6,6,1,251,81,7,1
100918,13:35:59,850346999,test,2,1,62,7,35,1,193,82,7,1
100918,13:35:59,850346999,test,2,0,64,7,63,0,191,82,6,1
100918,13:35:59,850346999,test,2,1,66,3,34,1,190,83,6,1
100918,13:35:59,850346999,test,2,0,68,10,45,0,224,83,6,1
100918,13:35:59,850346999,test,2,1,70,8,70,1,243,84,6,1
100918,13:35:59,850346999,test,2,1,72,6,51,1,198,85,6,1
100918,13:35:59,850346999,test,2,0,74,2,54,0,200,85,5,1
100918,13:35:59,850346999,test,2,0,76,3,26,0,159,85,5,1
100918,13:35:59,850346999,test,2,0,78,9,23,1,378,85,10,0
100918,13:35:59,850346999,test,2,0,80,7,20,0,158,85,10,1
100918,13:35:59,850346999,test,2,0,82,11,64,0,165,85,9,1
100918,13:35:59,850346999,test,2,1,84,1,21,1,233,85,9,1
100918,13:35:59,850346999,test,2,1,86,11,69,1,222,86,9,1
100918,13:35:59,850346999,test,2,0,88,8,71,0,160,86,9,1
100918,13:35:59,850346999,test,2,1,90,7,66,1,171,86,9,1
100918,13:35:59,850346999,test,2,1,92,12,44,0,201,83,9,0
100918,13:35:59,850346999,test,2,0,94,4,5,0,222,83,8,1
100918,13:35:59,850346999,test,2,1,96,10,31,1,200,84,8,0
100918,13:35:59,850346999,test,2,0,98,5,59,0,185,84,8,1
100918,13:35:59,850346999,test,2,1,100,8,9,1,193,84,8,1
100918,13:35:59,850346999,test,2,0,102,1,53,0,130,84,8,1
100918,13:35:59,850346999,test,2,1,104,2,49,1,159,85,8,1
100918,13:35:59,850346999,test,2,1,106,5,1,1,170,85,8,1
100918,13:35:59,850346999,test,2,0,108,2,12,0,699,85,7,0
100918,13:35:59,850346999,test,2,0,110,12,36,0,215,85,7,0
100918,13:35:59,850346999,test,2,1,112,3,39,1,193,86,7,1
100918,13:35:59,850346999,test,2,1,114,9,22,1,261,86,7,1
100918,13:35:59,850346999,test,2,1,116,4,37,0,239,83,7,0
100918,13:35:59,850346999,test,2,0,118,10,62,0,167,83,7,0
100918,13:35:59,850346999,test,2,1,120,1,40,1,159,84,7,1
100918,13:35:59,850346999,test,2,0,122,3,32,0,138,84,6,1
100918,13:35:59,850346999,test,2,0,124,6,68,0,110,84,6,1
100918,13:35:59,850346999,test,2,0,126,9,50,0,83,84,6,0
100918,13:35:59,850346999,test,2,1,128,5,28,1,205,84,6,1
100918,13:35:59,850346999,test,2,0,130,7,16,0,141,84,6,1
100918,13:35:59,850346999,test,2,1,132,10,49,1,130,85,6,1
100918,13:35:59,850346999,test,2,0,134,12,31,0,120,85,6,0
100918,13:35:59,850346999,test,2,1,136,7,54,1,137,85,6,1
100918,13:35:59,850346999,test,2,0,138,4,25,0,108,85,5,1
100918,13:35:59,850346999,test,2,0,140,1,70,0,147,85,5,1
100918,13:35:59,850346999,test,2,0,142,5,21,0,111,85,5,1
100918,13:35:59,850346999,test,2,1,144,4,1,0,155,83,5,1
100918,13:37:13,844835202,test,2,0,2,8,27,1,1244,0,100,0
100918,13:37:13,844835202,test,2,0,4,9,16,1,1013,0,100,0
100918,13:37:13,844835202,test,2,0,6,6,5,1,530,0,100,0
100918,13:37:13,844835202,test,2,1,8,10,64,1,448,100,100,0
100918,13:37:13,844835202,test,2,0,10,11,18,1,605,100,100,0
100918,13:37:13,844835202,test,2,1,12,8,56,1,481,100,100,0
100918,13:37:13,844835202,test,2,1,14,12,12,0,652,66,100,0
100918,13:37:13,844835202,test,2,0,16,3,32,0,1229,66,80,1
100918,13:37:13,844835202,test,2,1,18,1,62,1,1931,75,80,1
100918,13:37:13,844835202,test,2,1,20,2,9,0,755,60,80,0
100918,13:37:13,844835202,test,2,0,22,10,45,1,471,60,83,0
100918,13:37:13,844835202,test,2,1,24,7,13,1,379,66,83,1
100918,13:37:13,844835202,test,2,1,26,11,38,1,580,71,83,0
100918,13:37:13,844835202,test,2,0,28,7,24,0,1189,71,71,1
100918,13:37:13,844835202,test,2,1,30,10,10,0,648,62,71,0
100918,13:37:13,844835202,test,2,0,32,1,20,1,730,62,75,0
100918,13:37:13,844835202,test,2,1,34,5,69,1,899,66,75,1
100918,13:37:13,844835202,test,2,1,36,9,46,1,847,70,75,1
100918,13:37:13,844835202,test,2,0,38,2,1,0,308,70,66,1
100918,13:37:13,844835202,test,2,0,40,3,36,0,830,70,60,1
100918,13:37:13,844835202,test,2,1,42,7,30,1,692,72,60,1
100918,13:37:13,844835202,test,2,1,44,6,8,0,702,66,60,0
100918,13:37:13,844835202,test,2,1,46,12,37,0,1835,61,60,0
100918,13:37:13,844835202,test,2,1,48,8,47,1,725,64,60,0
100918,13:37:13,844835202,test,2,1,50,4,33,1,779,66,60,0
100918,13:37:13,844835202,test,2,1,52,2,22,1,545,68,60,0
100918,13:37:13,844835202,test,2,1,54,11,63,1,409,70,60,0
100918,13:37:13,844835202,test,2,0,56,6,72,1,421,70,63,0
100918,13:37:13,844835202,test,2,0,58,10,70,1,526,70,66,0
100918,13:37:13,844835202,test,2,0,60,7,60,0,937,70,61,0
100918,13:37:13,844835202,test,2,1,62,3,26,1,421,72,61,0
100918,13:37:13,844835202,test,2,1,64,1,25,1,431,73,61,0
100918,13:37:13,844835202,test,2,1,66,9,68,1,376,75,61,0
100918,13:37:13,844835202,test,2,0,68,5,4,0,627,75,57,1
100918,13:37:13,844835202,test,2,0,70,11,28,1,489,75,60,0
100918,13:37:13,844835202,test,2,1,72,3,6,1,424,76,60,1
100918,13:37:13,844835202,test,2,1,74,1,71,1,718,77,60,1
100918,13:37:13,844835202,test,2,0,76,8,44,0,941,77,56,0
100918,13:37:13,844835202,test,2,1,78,11,7,1,878,78,56,0
100918,13:37:13,844835202,test,2,1,80,8,53,1,424,79,56,0
100918,13:37:13,844835202,test,2,0,82,12,48,1,481,79,58,0
100918,13:37:13,844835202,test,2,1,84,7,54,1,606,80,58,0
100918,13:37:13,844835202,test,2,1,86,4,57,1,408,80,58,0
100918,13:37:13,844835202,test,2,1,88,10,14,0,570,77,58,0
100918,13:37:13,844835202,test,2,1,90,2,19,1,579,78,58,1
100918,13:37:13,844835202,test,2,0,92,9,41,0,457,78,55,0
100918,13:37:13,844835202,test,2,0,94,4,29,0,326,78,52,1
100918,13:37:13,844835202,test,2,1,96,12,3,1,442,79,52,1
100918,13:37:13,844835202,test,2,1,98,5,59,0,720,76,52,0
100918,13:37:13,844835202,test,2,0,100,7,17,0,428,76,50,0
100918,13:37:13,844835202,test,2,1,102,6,43,1,588,77,50,1
100918,13:37:13,844835202,test,2,0,104,10,15,0,358,77,47,0
100918,13:37:13,844835202,test,2,0,106,2,34,0,433,77,45,0
100918,13:37:13,844835202,test,2,0,108,5,31,1,605,77,47,0
100918,13:37:13,844835202,test,2,0,110,6,65,1,920,77,50,0
100918,13:37:13,844835202,test,2,1,112,2,50,1,604,78,50,0
100918,13:37:13,844835202,test,2,1,114,9,66,1,1221,78,50,1
100918,13:37:13,844835202,test,2,1,116,4,58,1,526,79,50,0
100918,13:37:13,844835202,test,2,0,118,9,21,0,357,79,48,1
100918,13:37:13,844835202,test,2,0,120,4,55,0,940,79,46,1
100918,13:37:13,844835202,test,2,1,122,3,2,1,465,80,46,1
100918,13:37:13,844835202,test,2,0,124,12,39,0,1179,80,44,0
100918,13:37:13,844835202,test,2,0,126,1,7,1,680,80,46,0
100918,13:37:13,844835202,test,2,0,128,8,36,0,544,80,44,0
100918,13:37:13,844835202,test,2,0,130,11,41,0,468,80,43,0
100918,13:37:13,844835202,test,2,0,132,3,6,0,647,80,41,0
100918,13:37:13,844835202,test,2,0,134,6,72,1,567,80,43,0
100918,13:37:13,844835202,test,2,1,136,1,63,1,513,80,43,0
100918,13:37:13,844835202,test,2,0,138,11,42,1,477,80,45,0
100918,13:37:13,844835202,test,2,0,140,1,66,0,470,80,44,1
100918,13:37:13,844835202,test,2,0,142,4,55,1,517,80,45,0
100918,13:37:13,844835202,test,2,0,144,8,47,1,475,80,47,0
100918,13:37:44,234778349,test,2,1,2,6,64,0,537,0,0,0
100918,13:37:44,234778349,test,2,0,4,12,57,0,451,0,0,0
100918,13:37:44,234778349,test,2,1,6,7,28,0,476,0,0,0
100918,13:37:44,234778349,test,2,0,8,3,70,0,485,0,0,0
100918,13:37:44,234778349,test,2,0,10,4,1,0,653,0,0,0
100918,13:37:44,234778349,test,2,1,12,1,51,0,1594,0,0,0
100918,13:37:44,234778349,test,2,1,14,12,56,0,478,0,0,0
100918,13:37:44,234778349,test,2,1,16,10,9,1,1246,20,0,0
100918,13:37:44,234778349,test,2,0,18,2,18,0,1329,20,0,1
100918,13:37:44,234778349,test,2,0,20,6,7,1,1395,20,20,0
100918,13:37:44,234778349,test,2,0,22,8,39,1,491,20,33,0
100918,13:37:44,234778349,test,2,0,24,5,71,1,683,20,42,0
100918,13:37:44,234778349,test,2,0,26,2,47,0,639,20,37,0
100918,13:37:44,234778349,test,2,1,28,8,22,1,647,33,37,0
100918,13:37:44,234778349,test,2,0,30,7,26,1,509,33,44,0
100918,13:37:44,234778349,test,2,1,32,9,33,1,714,42,44,0
100918,13:37:44,234778349,test,2,0,34,12,6,1,496,42,50,0
100918,13:37:44,234778349,test,2,1,36,4,27,0,859,37,50,0
100918,13:37:44,234778349,test,2,1,38,12,66,0,1113,33,50,0
100918,13:37:44,234778349,test,2,1,40,2,53,0,488,30,50,0
100918,13:37:44,234778349,test,2,1,42,7,11,1,460,36,50,0
100918,13:37:44,234778349,test,2,0,44,8,52,0,634,36,45,0
100918,13:37:44,234778349,test,2,0,46,6,2,0,529,36,41,0
100918,13:37:44,234778349,test,2,0,48,10,59,1,479,36,46,0
100918,13:37:44,234778349,test,2,1,50,5,38,1,615,41,46,0
100918,13:37:44,234778349,test,2,1,52,6,69,1,457,46,46,0
100918,13:37:44,234778349,test,2,1,54,11,49,1,452,50,46,0
100918,13:37:44,234778349,test,2,1,56,1,48,1,442,53,46,0
100918,13:37:44,234778349,test,2,1,58,10,34,1,430,56,46,0
100918,13:37:44,234778349,test,2,0,60,9,35,1,341,56,50,0
100918,13:37:44,234778349,test,2,0,62,5,41,1,630,56,53,0
100918,13:37:44,234778349,test,2,0,64,1,55,1,840,56,56,0
100918,13:37:44,234778349,test,2,1,66,9,24,0,710,52,56,0
100918,13:37:44,234778349,test,2,0,68,3,16,1,515,52,58,0
100918,13:37:44,234778349,test,2,0,70,11,46,0,825,52,55,0
100918,13:37:44,234778349,test,2,0,72,4,60,1,615,52,57,0
100918,13:37:44,234778349,test,2,1,74,3,21,1,794,55,57,1
100918,13:37:44,234778349,test,2,0,76,5,8,0,1002,55,55,1
100918,13:37:44,234778349,test,2,1,78,8,19,0,1807,52,55,0
100918,13:37:44,234778349,test,2,1,80,5,54,1,542,55,55,0
100918,13:37:44,234778349,test,2,1,82,7,10,1,346,57,55,0
100918,13:37:44,234778349,test,2,0,84,7,36,1,362,57,57,0
100918,13:37:44,234778349,test,2,1,86,1,68,1,367,59,57,0
100918,13:37:44,234778349,test,2,1,88,10,3,1,339,60,57,0
100918,13:37:44,234778349,test,2,1,90,9,25,0,1019,58,57,0
100918,13:37:44,234778349,test,2,1,92,12,32,1,550,60,57,0
100918,13:37:44,234778349,test,2,1,94,4,37,1,927,61,57,0
100918,13:37:44,234778349,test,2,1,96,6,43,0,874,59,57,0
100918,13:37:44,234778349,test,2,1,98,2,50,0,783,57,57,0
100918,13:37:44,234778349,test,2,1,100,3,4,1,515,58,57,0
100918,13:37:44,234778349,test,2,0,102,3,45,0,801,58,54,0
100918,13:37:44,234778349,test,2,0,104,4,23,1,690,58,56,0
100918,13:37:44,234778349,test,2,0,106,1,44,0,1090,58,54,1
100918,13:37:44,234778349,test,2,0,108,10,65,0,608,58,52,0
100918,13:37:44,234778349,test,2,0,110,9,40,0,671,58,50,0
100918,13:37:44,234778349,test,2,1,112,8,14,1,506,60,50,0
100918,13:37:44,234778349,test,2,1,114,11,58,0,592,58,50,0
100918,13:37:44,234778349,test,2,1,116,12,30,1,556,59,50,0
100918,13:37:44,234778349,test,2,0,118,11,63,1,414,59,51,0
100918,13:37:44,234778349,test,2,1,120,8,29,0,599,57,51,0
100918,13:37:44,234778349,test,2,0,122,12,62,1,525,57,53,0
100918,13:37:44,234778349,test,2,0,124,8,31,0,754,57,51,0
100918,13:37:44,234778349,test,2,0,126,2,23,0,864,57,50,1
100918,13:37:44,234778349,test,2,0,128,6,60,1,452,57,51,0
100918,13:37:44,234778349,test,2,1,130,4,43,0,800,55,51,0
100918,13:37:44,234778349,test,2,0,132,2,72,0,657,55,50,0
100918,13:37:44,234778349,test,2,0,134,10,9,0,854,55,48,0
100918,13:37:44,234778349,test,2,1,136,10,36,1,1057,57,48,0
100918,13:37:44,234778349,test,2,1,138,6,71,1,557,58,48,0
100918,13:37:44,234778349,test,2,0,140,11,41,0,687,58,47,0
100918,13:37:44,234778349,test,2,0,142,9,12,0,493,58,45,0
100918,13:37:44,234778349,test,2,0,144,7,20,0,483,58,44,0
100918,13:39:35,805394460,test,2,0,2,10,24,1,549,0,100,1
100918,13:39:35,805394460,test,2,0,4,11,49,1,433,0,100,1
100918,13:39:35,805394460,test,2,0,6,8,10,0,728,0,66,1
100918,13:39:35,805394460,test,2,0,8,6,41,0,738,0,50,1
100918,13:39:35,805394460,test,2,0,10,5,12,0,684,0,40,1
100918,13:39:35,805394460,test,2,0,12,3,72,0,853,0,33,1
100918,13:39:35,805394460,test,2,0,14,9,45,1,581,0,42,1
100918,13:39:35,805394460,test,2,0,16,8,61,1,591,0,50,1
100918,13:39:35,805394460,test,2,0,18,6,27,1,620,0,55,1
100918,13:39:35,805394460,test,2,1,20,4,68,1,578,100,55,1
100918,13:39:35,805394460,test,2,1,22,12,66,0,805,50,55,1
100918,13:39:35,805394460,test,2,1,24,6,42,1,511,66,55,1
100918,13:39:35,805394460,test,2,1,26,3,34,1,557,75,55,1
100918,13:39:35,805394460,test,2,0,28,3,38,0,430,75,50,1
100918,13:39:35,805394460,test,2,0,30,12,26,0,404,75,45,1
100918,13:39:35,805394460,test,2,1,32,9,39,1,682,80,45,1
100918,13:39:35,805394460,test,2,1,34,11,4,0,598,66,45,1
100918,13:39:35,805394460,test,2,1,36,5,22,1,489,71,45,1
100918,13:39:35,805394460,test,2,0,38,10,58,0,798,71,41,1
100918,13:39:35,805394460,test,2,0,40,5,51,0,720,71,38,1
100918,13:39:35,805394460,test,2,1,42,2,35,0,704,62,38,1
100918,13:39:35,805394460,test,2,0,44,1,62,1,940,62,42,1
100918,13:39:35,805394460,test,2,0,46,7,32,1,512,62,46,1
100918,13:39:35,805394460,test,2,1,48,10,23,1,306,66,46,1
100918,13:39:35,805394460,test,2,1,50,8,16,1,891,70,46,1
100918,13:39:35,805394460,test,2,1,52,11,29,1,652,72,46,1
100918,13:39:35,805394460,test,2,1,54,9,60,0,498,66,46,1
100918,13:39:35,805394460,test,2,0,56,4,31,1,575,66,50,1
100918,13:39:35,805394460,test,2,0,58,9,54,1,594,66,52,1
100918,13:39:35,805394460,test,2,1,60,3,36,1,825,69,52,1
100918,13:39:35,805394460,test,2,1,62,12,52,1,537,71,52,1
100918,13:39:35,805394460,test,2,1,64,7,3,0,496,66,52,1
100918,13:39:35,805394460,test,2,1,66,1,2,0,944,62,52,1
100918,13:39:35,805394460,test,2,0,68,2,56,1,828,62,55,1
100918,13:39:35,805394460,test,2,1,70,5,53,1,919,64,55,1
100918,13:39:35,805394460,test,2,0,72,11,18,1,607,64,57,1
100918,13:39:35,805394460,test,2,1,74,4,69,1,1743,66,57,1
100918,13:39:35,805394460,test,2,1,76,6,55,1,588,68,57,1
100918,13:39:35,805394460,test,2,0,78,4,13,0,421,68,55,1
100918,13:39:35,805394460,test,2,1,80,6,67,1,665,70,55,1
100918,13:39:35,805394460,test,2,1,82,7,25,1,657,71,55,1
100918,13:39:35,805394460,test,2,0,84,6,57,1,728,71,57,1
100918,13:39:35,805394460,test,2,1,86,10,40,1,512,72,57,1
100918,13:39:35,805394460,test,2,1,88,9,48,1,516,73,57,1
100918,13:39:35,805394460,test,2,0,90,2,71,1,615,73,59,1
100918,13:39:35,805394460,test,2,0,92,3,46,0,415,73,56,1
100918,13:39:35,805394460,test,2,0,94,5,37,1,665,73,58,1
100918,13:39:35,805394460,test,2,0,96,10,7,1,551,73,60,1
100918,13:39:35,805394460,test,2,1,98,3,70,0,748,70,60,1
100918,13:39:35,805394460,test,2,0,100,1,6,0,521,70,57,1
100918,13:39:35,805394460,test,2,1,102,5,59,0,628,68,57,1
100918,13:39:35,805394460,test,2,0,104,12,64,1,571,68,59,1
100918,13:39:35,805394460,test,2,1,106,1,8,0,524,65,59,1
100918,13:39:35,805394460,test,2,1,108,8,33,1,462,66,59,1
100918,13:39:35,805394460,test,2,1,110,11,17,0,828,64,59,1
100918,13:39:35,805394460,test,2,0,112,11,47,1,629,64,60,1
100918,13:39:35,805394460,test,2,1,114,12,65,0,629,62,60,1
100918,13:39:35,805394460,test,2,0,116,8,11,0,604,62,58,1
100918,13:39:35,805394460,test,2,0,118,9,43,0,599,62,56,1
100918,13:39:35,805394460,test,2,0,120,7,19,1,483,62,58,1
100918,13:39:35,805394460,test,2,0,122,4,50,1,1776,62,59,1
100918,13:39:35,805394460,test,2,0,124,6,20,1,661,62,60,1
100918,13:39:35,805394460,test,2,1,126,2,2,1,992,63,60,1
100918,13:39:35,805394460,test,2,0,128,2,27,1,1071,63,61,1
100918,13:39:35,805394460,test,2,1,130,4,53,1,847,64,61,1
100918,13:39:35,805394460,test,2,1,132,5,50,1,2377,65,61,0
100918,13:39:35,805394460,test,2,1,134,11,25,1,771,66,61,0
100918,13:39:35,805394460,test,2,1,136,12,48,1,711,67,61,1
100918,13:39:35,805394460,test,2,0,138,5,24,0,720,67,60,1
100918,13:39:35,805394460,test,2,1,140,9,18,1,721,68,60,1
100918,13:39:35,805394460,test,2,1,142,10,19,1,586,69,60,1
100918,13:39:35,805394460,test,2,0,144,3,36,0,572,69,58,1
100918,13:35:29,71968352,test,2,1,2,5,55,1,198,100,0,0
100918,13:35:29,71968352,test,2,0,4,10,61,1,344,100,100,0
100918,13:35:29,71968352,test,2,1,6,6,24,1,149,100,100,0
100918,13:35:29,71968352,test,2,0,8,9,18,0,169,100,50,0
100918,13:35:29,71968352,test,2,0,10,12,23,1,163,100,66,0
100918,13:35:29,71968352,test,2,1,12,3,33,1,261,100,66,0
100918,13:35:29,71968352,test,2,1,14,10,9,1,114,100,66,0
100918,13:35:29,71968352,test,2,0,16,4,4,1,52,100,75,0
100918,13:35:29,71968352,test,2,1,18,2,27,1,150,100,75,0
100918,13:35:29,71968352,test,2,1,20,12,36,1,147,100,75,0
100918,13:35:29,71968352,test,2,0,22,6,47,1,142,100,80,0
100918,13:35:29,71968352,test,2,1,24,8,52,1,72,100,80,0
100918,13:35:29,71968352,test,2,0,26,8,37,1,148,100,83,0
100918,13:35:29,71968352,test,2,0,28,2,20,0,167,100,71,0
100918,13:35:29,71968352,test,2,0,30,6,40,1,221,100,75,0
100918,13:35:29,71968352,test,2,1,32,2,59,1,381,100,75,0
100918,13:35:29,71968352,test,2,0,34,12,41,1,82,100,77,0
100918,13:35:29,71968352,test,2,1,36,5,43,1,189,100,77,0
100918,13:35:29,71968352,test,2,1,38,11,16,1,113,100,77,0
100918,13:35:29,71968352,test,2,0,40,1,46,1,58,100,80,0
100918,13:35:29,71968352,test,2,1,42,10,2,0,148,90,80,0
100918,13:35:29,71968352,test,2,1,44,8,58,0,106,83,80,0
100918,13:35:29,71968352,test,2,0,46,11,7,1,38,83,81,0
100918,13:35:29,71968352,test,2,1,48,4,38,1,218,84,81,0
100918,13:35:29,71968352,test,2,0,50,8,42,0,102,84,75,0
100918,13:35:29,71968352,test,2,1,52,6,10,0,83,78,75,0
100918,13:35:29,71968352,test,2,1,54,7,39,1,52,80,75,0
100918,13:35:29,71968352,test,2,0,56,7,48,1,56,80,76,0
100918,13:35:29,71968352,test,2,1,58,9,3,1,121,81,76,0
100918,13:35:29,71968352,test,2,0,60,9,44,1,336,81,78,0
100918,13:35:29,71968352,test,2,1,62,1,57,1,181,82,78,0
100918,13:35:29,71968352,test,2,0,64,2,21,1,165,82,80,0
100918,13:35:29,71968352,test,2,0,66,10,14,1,246,82,81,0
100918,13:35:29,71968352,test,2,0,68,4,17,1,97,82,82,0
100918,13:35:29,71968352,test,2,0,70,5,15,1,127,82,83,0
100918,13:35:29,71968352,test,2,1,72,12,67,1,1551,83,83,0
100918,13:35:29,71968352,test,2,0,74,3,72,0,189,83,78,0
100918,13:35:29,71968352,test,2,1,76,3,51,1,8,84,78,0
100918,13:35:29,71968352,test,2,1,78,4,22,1,130,85,78,0
100918,13:35:29,71968352,test,2,0,80,3,66,1,72,85,80,0
100918,13:35:29,71968352,test,2,0,82,9,68,1,137,85,80,0
100918,13:35:29,71968352,test,2,1,84,8,6,1,152,85,80,0
100918,13:35:29,71968352,test,2,0,86,10,30,1,158,85,81,0
100918,13:35:29,71968352,test,2,0,88,12,25,1,120,85,82,0
100918,13:35:29,71968352,test,2,0,90,5,26,1,117,85,83,0
100918,13:35:29,71968352,test,2,0,92,4,62,1,170,85,84,0
100918,13:35:29,71968352,test,2,1,94,10,19,1,168,86,84,0
100918,13:35:29,71968352,test,2,0,96,1,35,1,140,86,84,0
100918,13:35:29,71968352,test,2,0,98,11,28,1,454,86,85,0
100918,13:35:29,71968352,test,2,1,100,11,56,1,346,86,85,0
100918,13:35:29,71968352,test,2,0,102,7,32,0,201,86,82,0
100918,13:35:29,71968352,test,2,1,104,7,71,1,170,87,82,0
100918,13:35:29,71968352,test,2,1,106,9,49,1,3835,88,82,0
100918,13:35:29,71968352,test,2,1,108,12,45,1,1194,88,82,0
100918,13:35:29,71968352,test,2,0,110,8,5,1,127,88,82,0
100918,13:35:29,71968352,test,2,1,112,1,50,0,111,85,82,0
100918,13:35:29,71968352,test,2,1,114,6,54,1,200,85,82,0
100918,13:35:29,71968352,test,2,1,116,5,53,1,121,86,82,0
100918,13:35:29,71968352,test,2,0,118,2,13,1,192,86,83,0
100918,13:35:29,71968352,test,2,0,120,6,65,0,172,86,80,0
100918,13:35:29,71968352,test,2,1,122,3,1,0,176,83,80,0
100918,13:35:29,71968352,test,2,1,124,2,29,1,191,83,80,0
100918,13:35:29,71968352,test,2,0,126,10,41,1,169,83,81,0
100918,13:35:29,71968352,test,2,0,128,2,17,0,152,83,78,0
100918,13:35:29,71968352,test,2,1,130,9,64,0,53,81,78,0
100918,13:35:29,71968352,test,2,1,132,8,29,0,157,78,78,0
100918,13:35:29,71968352,test,2,0,134,4,8,1,114,78,79,0
100918,13:35:29,71968352,test,2,1,136,1,69,1,115,79,79,0
100918,13:35:29,71968352,test,2,1,138,2,51,1,110,80,79,0
100918,13:35:29,71968352,test,2,0,140,6,20,1,133,80,80,0
100918,13:35:29,71968352,test,2,0,142,11,72,0,115,80,77,0
100918,13:35:29,71968352,test,2,1,144,11,24,0,151,77,77,0
100918,10:42:28,843794323,test,2,1,2,6,67,0,737,0,0,0
100918,10:42:28,843794323,test,2,1,4,1,24,1,943,50,0,0
100918,10:42:28,843794323,test,2,1,6,4,1,1,617,66,0,0
100918,10:42:28,843794323,test,2,0,8,7,42,0,721,66,0,1
100918,10:42:28,843794323,test,2,0,10,5,33,0,615,66,0,1
100918,10:42:28,843794323,test,2,1,12,12,8,1,805,75,0,0
100918,10:42:28,843794323,test,2,1,14,3,61,1,614,80,0,0
100918,10:42:28,843794323,test,2,0,16,12,54,0,712,80,0,0
100918,10:42:28,843794323,test,2,0,18,4,23,1,1032,80,25,0
100918,10:42:28,843794323,test,2,0,20,6,34,0,706,80,20,0
100918,10:42:28,843794323,test,2,1,22,9,29,1,703,83,20,1
100918,10:42:28,843794323,test,2,0,24,9,27,1,944,83,33,0
100918,10:42:28,843794323,test,2,1,26,2,35,0,876,71,33,0
100918,10:42:28,843794323,test,2,1,28,11,5,1,841,75,33,0
100918,10:42:28,843794323,test,2,1,30,2,20,1,651,77,33,1
100918,10:42:28,843794323,test,2,0,32,10,3,1,734,77,42,0
100918,10:42:28,843794323,test,2,1,34,12,12,1,1317,80,42,1
100918,10:42:28,843794323,test,2,0,36,12,56,0,855,80,37,1
100918,10:42:28,843794323,test,2,1,38,8,49,0,737,72,37,0
100918,10:42:28,843794323,test,2,1,40,1,17,1,1075,75,37,0
100918,10:42:28,843794323,test,2,1,42,10,71,0,512,69,37,0
100918,10:42:28,843794323,test,2,1,44,9,7,0,663,64,37,0
100918,10:42:28,843794323,test,2,0,46,8,58,1,723,64,44,0
100918,10:42:28,843794323,test,2,0,48,7,15,0,524,64,40,1
100918,10:42:28,843794323,test,2,0,50,2,11,0,953,64,36,1
100918,10:42:28,843794323,test,2,0,52,10,50,1,814,64,41,0
100918,10:42:28,843794323,test,2,0,54,3,19,1,1046,64,46,0
100918,10:42:28,843794323,test,2,0,56,4,41,1,799,64,50,0
100918,10:42:28,843794323,test,2,0,58,5,4,0,894,64,46,1
100918,10:42:28,843794323,test,2,0,60,6,60,0,721,64,43,1
100918,10:42:28,843794323,test,2,1,62,3,44,1,635,66,43,1
100918,10:42:28,843794323,test,2,0,64,9,47,1,818,66,47,0
100918,10:42:28,843794323,test,2,0,66,11,45,0,602,66,44,0
100918,10:42:28,843794323,test,2,0,68,1,26,0,701,66,42,1
100918,10:42:28,843794323,test,2,1,70,5,13,1,718,68,42,0
100918,10:42:28,843794323,test,2,0,72,8,30,1,541,68,45,0
100918,10:42:28,843794323,test,2,1,74,6,66,1,528,70,45,1
100918,10:42:28,843794323,test,2,1,76,4,51,1,505,72,45,1
100918,10:42:28,843794323,test,2,0,78,9,46,1,598,72,47,0
100918,10:42:28,843794323,test,2,1,80,7,31,1,579,73,47,1
100918,10:42:28,843794323,test,2,1,82,2,64,1,482,75,47,1
100918,10:42:28,843794323,test,2,0,84,7,18,0,2546,75,45,1
100918,10:42:28,843794323,test,2,0,86,3,38,1,595,75,47,0
100918,10:42:28,843794323,test,2,1,88,6,25,0,1332,71,47,0
100918,10:42:28,843794323,test,2,1,90,4,70,1,496,72,47,1
100918,10:42:28,843794323,test,2,1,92,12,72,1,651,73,47,1
100918,10:42:28,843794323,test,2,1,94,5,43,1,667,75,47,1
100918,10:42:28,843794323,test,2,0,96,1,69,0,793,75,45,0
100918,10:42:28,843794323,test,2,0,98,10,9,0,792,75,44,0
100918,10:42:28,843794323,test,2,0,100,5,28,0,564,75,42,1
100918,10:42:28,843794323,test,2,0,102,4,2,1,1189,75,44,0
100918,10:42:28,843794323,test,2,0,104,12,59,0,640,75,42,1
100918,10:42:28,843794323,test,2,1,106,7,16,0,1282,72,42,0
100918,10:42:28,843794323,test,2,0,108,6,36,1,805,72,44,0
100918,10:42:28,843794323,test,2,1,110,8,65,1,688,73,44,1
100918,10:42:28,843794323,test,2,1,112,10,57,0,650,70,44,0
100918,10:42:28,843794323,test,2,0,114,2,39,1,881,70,46,0
100918,10:42:28,843794323,test,2,1,116,3,22,0,589,67,46,0
100918,10:42:28,843794323,test,2,1,118,9,14,1,598,68,46,0
100918,10:42:28,843794323,test,2,1,120,1,63,0,657,66,46,0
100918,10:42:28,843794323,test,2,1,122,11,6,0,726,64,46,0
100918,10:42:28,843794323,test,2,1,124,1,68,0,1234,62,46,0
100918,10:42:28,843794323,test,2,0,126,11,22,0,794,62,45,0
100918,10:42:28,843794323,test,2,1,128,6,13,1,850,63,45,1
100918,10:42:28,843794323,test,2,0,130,5,39,1,1167,63,46,0
100918,10:42:28,843794323,test,2,1,132,2,66,1,643,64,46,1
100918,10:42:28,843794323,test,2,0,134,11,1,1,843,64,48,0
100918,10:42:28,843794323,test,2,0,136,8,12,1,588,64,50,0
100918,10:42:28,843794323,test,2,1,138,3,24,1,614,65,50,0
100918,10:42:28,843794323,test,2,1,140,8,68,0,571,63,50,0
100918,10:42:28,843794323,test,2,0,142,7,52,1,731,63,51,0
100918,10:42:28,843794323,test,2,0,144,10,11,1,812,63,52,0
100918,13:44:14,435991174,test,2,0,2,12,41,1,1315,0,100,0
100918,13:44:14,435991174,test,2,1,4,7,71,1,408,100,100,1
100918,13:44:14,435991174,test,2,1,6,9,58,1,384,100,100,1
100918,13:44:14,435991174,test,2,1,8,11,4,1,345,100,100,1
100918,13:44:14,435991174,test,2,0,10,4,69,0,629,100,50,1
100918,13:44:14,435991174,test,2,1,12,10,11,1,676,100,50,1
100918,13:44:14,435991174,test,2,0,14,3,52,0,306,100,33,1
100918,13:44:14,435991174,test,2,0,16,9,8,0,510,100,25,1
100918,13:44:14,435991174,test,2,1,18,8,37,1,450,100,25,1
100918,13:44:14,435991174,test,2,0,20,6,24,0,665,100,20,1
100918,13:44:14,435991174,test,2,0,22,7,10,0,663,100,16,1
100918,13:44:14,435991174,test,2,1,24,4,14,1,566,100,16,1
100918,13:44:14,435991174,test,2,0,26,8,27,0,392,100,14,1
100918,13:44:14,435991174,test,2,1,28,5,44,1,273,100,14,1
100918,13:44:14,435991174,test,2,1,30,5,12,1,383,100,14,1
100918,13:44:14,435991174,test,2,1,32,8,49,1,296,100,14,1
100918,13:44:14,435991174,test,2,1,34,9,22,1,454,100,14,1
100918,13:44:14,435991174,test,2,1,36,3,45,1,301,100,14,1
100918,13:44:14,435991174,test,2,0,38,8,32,0,346,100,12,1
100918,13:44:14,435991174,test,2,1,40,12,29,1,389,100,12,1
100918,13:44:14,435991174,test,2,1,42,6,62,1,191,100,12,1
100918,13:44:14,435991174,test,2,1,44,10,19,1,480,100,12,1
100918,13:44:14,435991174,test,2,1,46,11,70,1,246,100,12,1
100918,13:44:14,435991174,test,2,1,48,1,63,1,230,100,12,1
100918,13:44:14,435991174,test,2,0,50,1,56,0,294,100,11,1
100918,13:44:14,435991174,test,2,1,52,2,50,1,260,100,11,1
100918,13:44:14,435991174,test,2,1,54,4,3,1,258,100,11,1
100918,13:44:14,435991174,test,2,0,56,3,66,0,225,100,10,1
100918,13:44:14,435991174,test,2,0,58,12,9,0,673,100,9,1
100918,13:44:14,435991174,test,2,0,60,10,42,0,384,100,8,1
100918,13:44:14,435991174,test,2,0,62,9,16,0,1065,100,7,1
100918,13:44:14,435991174,test,2,0,64,6,13,0,328,100,7,1
100918,13:44:14,435991174,test,2,0,66,7,1,0,404,100,6,1
100918,13:44:14,435991174,test,2,1,68,7,25,1,397,100,6,1
100918,13:44:14,435991174,test,2,1,70,9,6,1,422,100,6,1
100918,13:44:14,435991174,test,2,1,72,10,28,1,383,100,6,1
100918,13:44:14,435991174,test,2,1,74,4,59,1,312,100,6,1
100918,13:44:14,435991174,test,2,1,76,5,21,1,277,100,6,1
100918,13:44:14,435991174,test,2,1,78,6,40,1,227,100,6,1
100918,13:44:14,435991174,test,2,0,80,2,51,0,323,100,6,1
100918,13:44:14,435991174,test,2,0,82,5,18,1,543,100,11,1
100918,13:44:14,435991174,test,2,0,84,11,72,0,387,100,11,1
100918,13:44:14,435991174,test,2,0,86,4,57,0,332,100,10,1
100918,13:44:14,435991174,test,2,1,88,7,2,1,200,100,10,1
100918,13:44:14,435991174,test,2,0,90,10,5,0,281,100,10,1
100918,13:44:14,435991174,test,2,0,92,7,65,0,871,100,9,1
100918,13:44:14,435991174,test,2,1,94,1,26,1,301,100,9,1
100918,13:44:14,435991174,test,2,0,96,9,34,0,202,100,9,1
100918,13:44:14,435991174,test,2,0,98,8,31,0,251,100,8,1
100918,13:44:14,435991174,test,2,0,100,4,35,0,234,100,8,1
100918,13:44:14,435991174,test,2,0,102,3,20,0,217,100,8,1
100918,13:44:14,435991174,test,2,1,104,8,43,1,297,100,8,1
100918,13:44:14,435991174,test,2,1,106,12,55,1,199,100,8,1
100918,13:44:14,435991174,test,2,1,108,3,47,1,280,100,8,1
100918,13:44:14,435991174,test,2,1,110,2,7,1,230,100,8,1
100918,13:44:14,435991174,test,2,0,112,12,46,0,374,100,7,1
100918,13:44:14,435991174,test,2,0,114,1,36,0,256,100,7,1
100918,13:44:14,435991174,test,2,0,116,5,48,0,655,100,7,1
100918,13:44:14,435991174,test,2,0,118,11,68,0,462,100,6,1
100918,13:44:14,435991174,test,2,0,120,2,30,0,213,100,6,1
100918,13:44:14,435991174,test,2,1,122,11,38,1,198,100,6,1
100918,13:44:14,435991174,test,2,1,124,3,64,1,199,100,6,1
100918,13:44:14,435991174,test,2,1,126,6,63,1,168,100,6,1
100918,13:44:14,435991174,test,2,0,128,6,4,0,202,100,6,1
100918,13:44:14,435991174,test,2,0,130,1,57,0,203,100,6,1
100918,13:44:14,435991174,test,2,1,132,1,68,1,332,100,6,1
100918,13:44:14,435991174,test,2,0,134,4,34,0,263,100,6,1
100918,13:44:14,435991174,test,2,0,136,2,39,0,198,100,5,1
100918,13:44:14,435991174,test,2,1,138,11,56,1,488,100,5,1
100918,13:44:14,435991174,test,2,1,140,4,59,1,285,100,5,1
100918,13:44:14,435991174,test,2,0,142,12,44,0,299,100,5,1
100918,13:44:14,435991174,test,2,0,144,5,9,0,376,100,5,1
100918,13:47:30,48667600,test,2,0,2,3,39,1,1020,0,100,1
100918,13:47:30,48667600,test,2,0,4,1,28,1,924,0,100,1
100918,13:47:30,48667600,test,2,0,6,11,69,1,697,0,100,1
100918,13:47:30,48667600,test,2,0,8,10,25,1,1164,0,100,1
100918,13:47:30,48667600,test,2,1,10,10,45,1,1290,100,100,1
100918,13:47:30,48667600,test,2,0,12,9,3,0,2193,100,80,1
100918,13:47:30,48667600,test,2,1,14,6,56,0,1246,50,80,1
100918,13:47:30,48667600,test,2,1,16,7,32,0,1620,33,80,1
100918,13:47:30,48667600,test,2,0,18,5,20,1,1039,33,83,1
100918,13:47:30,48667600,test,2,0,20,7,48,1,900,33,85,1
100918,13:47:30,48667600,test,2,0,22,9,40,1,965,33,87,1
100918,13:47:30,48667600,test,2,1,24,4,11,0,1210,25,87,1
100918,13:47:30,48667600,test,2,0,26,12,38,1,902,25,88,1
100918,13:47:30,48667600,test,2,1,28,9,22,0,1010,20,88,1
100918,13:47:30,48667600,test,2,0,30,1,55,1,1108,20,90,1
100918,13:47:30,48667600,test,2,1,32,5,7,1,953,33,90,1
100918,13:47:30,48667600,test,2,1,34,12,8,0,1136,28,90,1
100918,13:47:30,48667600,test,2,1,36,11,23,1,1503,37,90,1
100918,13:47:30,48667600,test,2,1,38,2,58,1,896,44,90,1
100918,13:47:30,48667600,test,2,1,40,9,24,1,893,50,90,1
100918,13:47:30,48667600,test,2,0,42,8,43,0,863,50,81,1
100918,13:47:30,48667600,test,2,1,44,3,33,0,998,45,81,1
100918,13:47:30,48667600,test,2,0,46,4,10,0,1239,45,75,1
100918,13:47:30,48667600,test,2,1,48,6,72,1,1222,50,75,1
100918,13:47:30,48667600,test,2,1,50,4,13,0,1111,46,75,1
100918,13:47:30,48667600,test,2,0,52,7,19,0,2429,46,69,1
100918,13:47:30,48667600,test,2,1,54,8,66,1,989,50,69,1
100918,13:47:30,48667600,test,2,1,56,10,53,1,810,53,69,1
100918,13:47:30,48667600,test,2,0,58,2,44,0,1664,53,64,1
100918,13:47:30,48667600,test,2,1,60,1,17,0,1086,50,64,1
100918,13:47:30,48667600,test,2,1,62,7,57,1,1093,52,64,1
100918,13:47:30,48667600,test,2,0,64,3,21,1,1854,52,66,1
100918,13:47:30,48667600,test,2,1,66,5,42,0,962,50,66,1
100918,13:47:30,48667600,test,2,1,68,12,27,1,917,52,66,1
100918,13:47:30,48667600,test,2,1,70,9,14,1,1315,55,66,1
100918,13:47:30,48667600,test,2,1,72,2,1,0,1006,52,66,1
100918,13:47:30,48667600,test,2,0,74,5,35,0,2020,52,62,1
100918,13:47:30,48667600,test,2,1,76,8,64,0,1281,50,62,1
100918,13:47:30,48667600,test,2,1,78,5,37,0,1189,47,62,1
100918,13:47:30,48667600,test,2,1,80,6,41,1,1431,50,62,1
100918,13:47:30,48667600,test,2,0,82,11,18,0,978,50,58,1
100918,13:47:30,48667600,test,2,1,84,4,70,1,1114,52,58,1
100918,13:47:30,48667600,test,2,0,86,6,47,1,886,52,61,1
100918,13:47:30,48667600,test,2,0,88,10,30,0,1822,52,57,1
100918,13:47:30,48667600,test,2,0,90,8,54,0,1389,52,55,1
100918,13:47:30,48667600,test,2,0,92,3,62,1,2641,52,57,1
100918,13:47:30,48667600,test,2,0,94,5,26,0,1370,52,54,1
100918,13:47:30,48667600,test,2,1,96,7,12,0,1496,50,54,1
100918,13:47:30,48667600,test,2,1,98,12,34,0,1038,48,54,1
100918,13:47:30,48667600,test,2,0,100,7,65,1,1875,48,56,1
100918,13:47:30,48667600,test,2,1,102,3,6,0,1630,46,56,1
100918,13:47:30,48667600,test,2,1,104,1,36,0,1416,44,56,1
100918,13:47:30,48667600,test,2,1,106,10,67,0,1045,43,56,1
100918,13:47:30,48667600,test,2,0,108,12,51,1,912,43,58,1
100918,13:47:30,48667600,test,2,0,110,11,68,0,2271,43,56,1
100918,13:47:30,48667600,test,2,0,112,2,4,0,2514,43,53,1
100918,13:47:30,48667600,test,2,1,114,11,71,0,869,41,53,1
100918,13:47:30,48667600,test,2,0,116,6,31,0,999,41,51,1
100918,13:47:30,48667600,test,2,1,118,10,2,1,1851,43,51,1
100918,13:47:30,48667600,test,2,0,120,9,63,1,1253,43,53,1
100918,13:47:30,48667600,test,2,0,122,10,9,1,1201,43,55,1
100918,13:47:30,48667600,test,2,0,124,1,29,0,1519,43,53,1
100918,13:47:30,48667600,test,2,1,126,12,57,1,841,45,53,1
100918,13:47:30,48667600,test,2,0,128,4,72,0,1554,45,51,1
100918,13:47:30,48667600,test,2,0,130,12,9,0,2036,45,50,1
100918,13:47:30,48667600,test,2,0,132,5,21,1,1688,45,51,1
100918,13:47:30,48667600,test,2,1,134,6,51,1,768,47,51,1
100918,13:47:30,48667600,test,2,0,136,7,19,0,1673,47,50,1
100918,13:47:30,48667600,test,2,1,138,11,45,0,2353,45,50,1
100918,13:47:30,48667600,test,2,0,140,6,55,1,861,45,51,1
100918,13:47:30,48667600,test,2,0,142,11,35,1,981,45,52,1
100918,13:47:30,48667600,test,2,1,144,9,68,0,1237,44,52,1
100918,10:53:06,473763569,test,2,1,2,9,53,1,2476,100,0,0
100918,10:53:06,473763569,test,2,0,4,8,37,0,1433,100,0,0
100918,10:53:06,473763569,test,2,0,6,7,32,1,489,100,50,0
100918,10:53:06,473763569,test,2,0,8,4,71,0,1303,100,33,0
100918,10:53:06,473763569,test,2,1,10,1,70,0,1158,50,33,0
100918,10:53:06,473763569,test,2,1,12,10,44,1,1233,66,33,0
100918,10:53:06,473763569,test,2,1,14,4,51,1,546,75,33,0
100918,10:53:06,473763569,test,2,0,16,2,4,1,559,75,50,0
100918,10:53:06,473763569,test,2,0,18,6,54,0,1517,75,40,0
100918,10:53:06,473763569,test,2,0,20,9,38,1,1719,75,50,0
100918,10:53:06,473763569,test,2,0,22,12,31,0,2284,75,42,0
100918,10:53:06,473763569,test,2,0,24,3,22,1,3908,75,50,0
100918,10:53:06,473763569,test,2,1,26,11,28,0,171,60,50,0
100918,10:53:06,473763569,test,2,0,28,2,65,0,698,60,44,0
100918,10:53:06,473763569,test,2,1,30,2,34,0,793,50,44,0
100918,10:53:06,473763569,test,2,0,32,8,48,1,407,50,50,0
100918,10:53:06,473763569,test,2,1,34,8,40,0,4502,42,50,0
100918,10:53:06,473763569,test,2,1,36,2,19,1,1151,50,50,1
100918,10:53:06,473763569,test,2,0,38,7,13,0,1143,50,45,1
100918,10:53:06,473763569,test,2,1,40,8,62,1,1085,55,45,0
100918,10:53:06,473763569,test,2,0,42,11,23,0,302,55,41,0
100918,10:53:06,473763569,test,2,0,44,4,47,0,3295,55,38,0
100918,10:53:06,473763569,test,2,1,46,5,50,1,2579,60,38,0
100918,10:53:06,473763569,test,2,0,48,10,29,0,896,60,35,0
100918,10:53:06,473763569,test,2,1,50,9,41,1,1148,63,35,0
100918,10:53:06,473763569,test,2,1,52,11,30,0,1201,58,35,0
100918,10:53:06,473763569,test,2,1,54,7,20,0,1366,53,35,0
100918,10:53:06,473763569,test,2,1,56,3,21,1,1554,57,35,0
100918,10:53:06,473763569,test,2,0,58,12,24,0,688,57,33,0
100918,10:53:06,473763569,test,2,0,60,5,35,0,1872,57,31,0
100918,10:53:06,473763569,test,2,1,62,10,3,1,9154,60,31,0
100918,10:53:06,473763569,test,2,0,64,1,43,1,406,60,35,0
100918,10:53:06,473763569,test,2,1,66,1,72,0,1048,56,35,0
100918,10:53:06,473763569,test,2,1,68,4,11,0,9302,52,35,0
100918,10:53:06,473763569,test,2,1,70,6,7,1,3332,55,35,0
100918,10:53:06,473763569,test,2,1,72,12,66,1,802,57,35,0
100918,10:53:06,473763569,test,2,0,74,6,1,1,909,57,38,0
100918,10:53:06,473763569,test,2,0,76,9,16,1,412,57,42,0
100918,10:53:06,473763569,test,2,0,78,4,60,0,193,57,40,0
100918,10:53:06,473763569,test,2,1,80,2,57,0,1722,55,40,0
100918,10:53:06,473763569,test,2,1,82,3,25,1,531,57,40,0
100918,10:53:06,473763569,test,2,0,84,10,33,0,1516,57,38,0
100918,10:53:06,473763569,test,2,1,86,4,6,1,1480,59,38,0
100918,10:53:06,473763569,test,2,1,88,5,64,1,827,60,38,0
100918,10:53:06,473763569,test,2,1,90,1,15,1,1112,62,38,0
100918,10:53:06,473763569,test,2,0,92,6,42,1,2707,62,40,0
100918,10:53:06,473763569,test,2,0,94,3,45,1,454,62,43,0
100918,10:53:06,473763569,test,2,1,96,6,55,1,828,64,43,0
100918,10:53:06,473763569,test,2,0,98,12,67,1,799,64,45,0
100918,10:53:06,473763569,test,2,0,100,1,5,0,1083,64,44,0
100918,10:53:06,473763569,test,2,0,102,7,18,1,474,64,46,1
100918,10:53:06,473763569,test,2,0,104,11,27,1,285,64,48,1
100918,10:53:06,473763569,test,2,1,106,8,10,1,554,65,48,0
100918,10:53:06,473763569,test,2,0,108,5,49,1,945,65,50,0
100918,10:53:06,473763569,test,2,1,110,11,63,0,822,62,50,0
100918,10:53:06,473763569,test,2,1,112,12,69,0,1583,60,50,0
100918,10:53:06,473763569,test,2,0,114,2,9,0,774,60,48,1
100918,10:53:06,473763569,test,2,0,116,9,58,0,834,60,46,0
100918,10:53:06,473763569,test,2,0,118,8,61,0,782,60,45,0
100918,10:53:06,473763569,test,2,0,120,11,68,1,1000,60,46,0
100918,10:53:06,473763569,test,2,0,122,5,12,1,632,60,48,0
100918,10:53:06,473763569,test,2,0,124,8,56,0,741,60,47,0
100918,10:53:06,473763569,test,2,1,126,9,15,1,721,62,47,0
100918,10:53:06,473763569,test,2,1,128,10,13,1,899,63,47,0
100918,10:53:06,473763569,test,2,1,130,7,12,1,935,64,47,0
100918,10:53:06,473763569,test,2,1,132,8,57,1,1377,65,47,0
100918,10:53:06,473763569,test,2,1,134,4,41,1,887,66,47,1
100918,10:53:06,473763569,test,2,1,136,5,51,1,589,67,47,0
100918,10:53:06,473763569,test,2,0,138,6,7,1,796,67,48,0
100918,10:53:06,473763569,test,2,0,140,9,72,1,584,67,50,0
100918,10:53:06,473763569,test,2,1,142,9,1,1,1826,68,50,0
100918,10:53:06,473763569,test,2,1,144,11,36,1,1057,69,50,0
100918,14:01:19,54382068,test,2,0,2,11,44,1,775,0,100,0
100918,14:01:19,54382068,test,2,1,4,1,3,1,641,100,100,0
100918,14:01:19,54382068,test,2,0,6,5,57,0,824,100,50,0
100918,14:01:19,54382068,test,2,1,8,11,33,1,542,100,50,0
100918,14:01:19,54382068,test,2,1,10,5,38,0,807,66,50,0
100918,14:01:19,54382068,test,2,1,12,4,52,1,571,75,50,0
100918,14:01:19,54382068,test,2,0,14,9,32,1,564,75,66,0
100918,14:01:19,54382068,test,2,1,16,6,48,1,701,80,66,0
100918,14:01:19,54382068,test,2,0,18,12,39,1,789,80,75,0
100918,14:01:19,54382068,test,2,1,20,12,1,0,1131,66,75,0
100918,14:01:19,54382068,test,2,0,22,7,8,1,667,66,80,0
100918,14:01:19,54382068,test,2,1,24,3,23,1,548,71,80,0
100918,14:01:19,54382068,test,2,0,26,2,40,0,614,71,66,0
100918,14:01:19,54382068,test,2,0,28,8,25,1,562,71,71,0
100918,14:01:19,54382068,test,2,1,30,10,43,1,832,75,71,0
100918,14:01:19,54382068,test,2,1,32,5,36,1,507,77,71,0
100918,14:01:19,54382068,test,2,0,34,11,4,1,701,77,75,0
100918,14:01:19,54382068,test,2,0,36,12,35,1,1004,77,77,0
100918,14:01:19,54382068,test,2,1,38,3,61,1,829,80,77,0
100918,14:01:19,54382068,test,2,0,40,8,37,1,701,80,80,0
100918,14:01:19,54382068,test,2,0,42,1,66,0,459,80,72,0
100918,14:01:19,54382068,test,2,0,44,5,10,1,793,80,75,0
100918,14:01:19,54382068,test,2,1,46,8,14,1,561,81,75,0
100918,14:01:19,54382068,test,2,0,48,2,58,0,704,81,69,0
100918,14:01:19,54382068,test,2,0,50,9,13,0,1136,81,64,0
100918,14:01:19,54382068,test,2,1,52,11,9,0,1190,75,64,0
100918,14:01:19,54382068,test,2,1,54,7,51,1,846,76,64,0
100918,14:01:19,54382068,test,2,0,56,3,21,0,826,76,60,0
100918,14:01:19,54382068,test,2,0,58,4,29,1,585,76,62,0
100918,14:01:19,54382068,test,2,1,60,2,20,0,598,71,62,0
100918,14:01:19,54382068,test,2,1,62,6,34,1,650,73,62,0
100918,14:01:19,54382068,test,2,1,64,9,62,0,941,68,62,0
100918,14:01:19,54382068,test,2,0,66,7,70,0,723,68,58,0
100918,14:01:19,54382068,test,2,0,68,6,46,1,564,68,61,0
100918,14:01:19,54382068,test,2,1,70,12,2,0,843,64,61,0
100918,14:01:19,54382068,test,2,1,72,4,65,0,727,61,61,0
100918,14:01:19,54382068,test,2,0,74,10,72,1,825,61,63,0
100918,14:01:19,54382068,test,2,1,76,1,24,0,840,57,63,0
100918,14:01:19,54382068,test,2,1,78,8,41,1,479,60,63,0
100918,14:01:19,54382068,test,2,0,80,11,55,1,599,60,65,0
100918,14:01:19,54382068,test,2,1,82,2,53,0,582,57,65,0
100918,14:01:19,54382068,test,2,0,84,3,17,1,575,57,66,0
100918,14:01:19,54382068,test,2,0,86,9,54,1,988,57,68,0
100918,14:01:19,54382068,test,2,1,88,10,69,1,565,59,68,0
100918,14:01:19,54382068,test,2,1,90,9,47,0,633,56,68,0
100918,14:01:19,54382068,test,2,1,92,7,64,1,499,58,68,0
100918,14:01:19,54382068,test,2,0,94,2,30,1,560,58,69,0
100918,14:01:19,54382068,test,2,0,96,7,42,1,521,58,70,0
100918,14:01:19,54382068,test,2,1,98,12,7,1,517,60,70,0
100918,14:01:19,54382068,test,2,0,100,10,22,1,484,60,72,0
100918,14:01:19,54382068,test,2,1,102,4,11,0,873,57,72,0
100918,14:01:19,54382068,test,2,1,104,6,50,1,590,59,72,0
100918,14:01:19,54382068,test,2,0,106,6,49,1,480,59,73,0
100918,14:01:19,54382068,test,2,1,108,5,56,1,520,60,73,0
100918,14:01:19,54382068,test,2,0,110,8,60,1,522,60,74,0
100918,14:01:19,54382068,test,2,1,112,11,59,1,519,62,74,0
100918,14:01:19,54382068,test,2,0,114,5,63,1,533,62,75,0
100918,14:01:19,54382068,test,2,0,116,12,26,1,507,62,75,0
100918,14:01:19,54382068,test,2,0,118,1,5,0,544,62,73,0
100918,14:01:19,54382068,test,2,1,120,1,12,1,830,63,73,0
100918,14:01:19,54382068,test,2,1,122,3,45,1,516,64,73,0
100918,14:01:19,54382068,test,2,0,124,4,67,1,506,64,74,0
100918,14:01:19,54382068,test,2,1,126,10,15,1,606,65,74,0
100918,14:01:19,54382068,test,2,0,128,6,8,1,535,65,75,0
100918,14:01:19,54382068,test,2,0,130,12,65,0,552,65,72,0
100918,14:01:19,54382068,test,2,1,132,3,68,1,476,66,72,0
100918,14:01:19,54382068,test,2,1,134,7,23,1,465,67,72,0
100918,14:01:19,54382068,test,2,0,136,4,59,1,521,67,73,0
100918,14:01:19,54382068,test,2,0,138,10,40,1,517,67,74,0
100918,14:01:19,54382068,test,2,1,140,2,1,1,663,68,74,0
100918,14:01:19,54382068,test,2,1,142,8,25,1,434,69,74,0
100918,14:01:19,54382068,test,2,0,144,7,62,0,567,69,72,0
100918,14:07:05,84752084,test,2,0,2,5,36,1,1967,0,100,0
100918,14:07:05,84752084,test,2,1,4,11,7,1,1263,100,100,1
100918,14:07:05,84752084,test,2,0,6,12,72,0,820,100,50,1
100918,14:07:05,84752084,test,2,1,8,8,71,1,764,100,50,1
100918,14:07:05,84752084,test,2,1,10,7,39,1,867,100,50,1
100918,14:07:05,84752084,test,2,1,12,10,3,1,1145,100,50,1
100918,14:07:05,84752084,test,2,1,14,1,58,1,396,100,50,1
100918,14:07:05,84752084,test,2,0,16,7,23,0,573,100,33,1
100918,14:07:05,84752084,test,2,1,18,3,27,1,471,100,33,1
100918,14:07:05,84752084,test,2,1,20,5,32,1,948,100,33,1
100918,14:07:05,84752084,test,2,1,22,9,30,1,2190,100,33,0
100918,14:07:05,84752084,test,2,0,24,11,55,1,1407,100,50,1
100918,14:07:05,84752084,test,2,1,26,3,70,1,342,100,50,1
100918,14:07:05,84752084,test,2,1,28,5,50,1,906,100,50,1
100918,14:07:05,84752084,test,2,0,30,10,2,0,988,100,40,1
100918,14:07:05,84752084,test,2,1,32,6,63,1,684,100,40,1
100918,14:07:05,84752084,test,2,0,34,3,4,0,1720,100,33,1
100918,14:07:05,84752084,test,2,0,36,4,41,0,3218,100,28,1
100918,14:07:05,84752084,test,2,0,38,11,24,1,2216,100,37,0
100918,14:07:05,84752084,test,2,1,40,4,13,0,405,91,37,1
100918,14:07:05,84752084,test,2,0,42,4,61,0,1822,91,33,1
100918,14:07:05,84752084,test,2,0,44,1,43,0,389,91,30,1
100918,14:07:05,84752084,test,2,0,46,3,11,0,334,91,27,1
100918,14:07:05,84752084,test,2,0,48,8,31,0,1951,91,25,0
100918,14:07:05,84752084,test,2,0,50,12,57,0,638,91,23,1
100918,14:07:05,84752084,test,2,1,52,12,10,1,293,92,23,1
100918,14:07:05,84752084,test,2,0,54,2,64,0,427,92,21,1
100918,14:07:05,84752084,test,2,0,56,7,52,0,426,92,20,1
100918,14:07:05,84752084,test,2,0,58,6,54,0,314,92,18,1
100918,14:07:05,84752084,test,2,0,60,10,5,0,422,92,17,1
100918,14:07:05,84752084,test,2,0,62,5,21,0,781,92,16,1
100918,14:07:05,84752084,test,2,0,64,9,51,0,406,92,15,1
100918,14:07:05,84752084,test,2,0,66,10,25,0,406,92,15,1
100918,14:07:05,84752084,test,2,1,68,10,47,1,519,92,15,1
100918,14:07:05,84752084,test,2,0,70,8,48,1,1757,92,19,0
100918,14:07:05,84752084,test,2,0,72,2,62,0,1021,92,18,0
100918,14:07:05,84752084,test,2,0,74,11,65,1,988,92,21,1
100918,14:07:05,84752084,test,2,1,76,8,1,1,625,93,21,1
100918,14:07:05,84752084,test,2,1,78,1,67,1,361,93,21,1
100918,14:07:05,84752084,test,2,1,80,2,49,1,244,94,21,1
100918,14:07:05,84752084,test,2,0,82,5,17,0,775,94,20,1
100918,14:07:05,84752084,test,2,1,84,11,40,1,312,94,20,1
100918,14:07:05,84752084,test,2,1,86,7,19,1,196,94,20,1
100918,14:07:05,84752084,test,2,0,88,9,9,0,756,94,20,1
100918,14:07:05,84752084,test,2,0,90,7,34,0,886,94,19,1
100918,14:07:05,84752084,test,2,1,92,12,26,1,1485,95,19,1
100918,14:07:05,84752084,test,2,1,94,4,15,0,705,90,19,1
100918,14:07:05,84752084,test,2,1,96,10,38,0,1333,86,19,0
100918,14:07:05,84752084,test,2,1,98,1,66,1,544,86,19,1
100918,14:07:05,84752084,test,2,1,100,3,28,1,202,87,19,1
100918,14:07:05,84752084,test,2,0,102,1,56,0,859,87,18,1
100918,14:07:05,84752084,test,2,1,104,8,59,1,291,88,18,1
100918,14:07:05,84752084,test,2,1,106,5,53,1,240,88,18,1
100918,14:07:05,84752084,test,2,1,108,11,22,1,934,88,18,1
100918,14:07:05,84752084,test,2,1,110,6,14,1,2638,89,18,1
100918,14:07:05,84752084,test,2,0,112,6,12,0,780,89,17,1
100918,14:07:05,84752084,test,2,0,114,12,69,0,847,89,17,1
100918,14:07:05,84752084,test,2,1,116,9,8,0,1903,86,17,0
100918,14:07:05,84752084,test,2,0,118,4,60,0,880,86,16,1
100918,14:07:05,84752084,test,2,0,120,3,33,1,1055,86,19,0
100918,14:07:05,84752084,test,2,1,122,2,37,1,672,86,19,1
100918,14:07:05,84752084,test,2,1,124,7,16,1,795,87,19,1
100918,14:07:05,84752084,test,2,1,126,8,33,1,1162,87,19,1
100918,14:07:05,84752084,test,2,1,128,2,1,1,268,87,19,1
100918,14:07:05,84752084,test,2,0,130,11,71,1,210,87,21,1
100918,14:07:05,84752084,test,2,0,132,8,40,1,1843,87,24,0
100918,14:07:05,84752084,test,2,0,134,6,22,1,2223,87,26,0
100918,14:07:05,84752084,test,2,0,136,10,56,0,593,87,25,1
100918,14:07:05,84752084,test,2,0,138,2,19,0,657,87,25,1
100918,14:07:05,84752084,test,2,1,140,5,34,1,612,88,25,1
100918,14:07:05,84752084,test,2,1,142,9,57,1,1559,88,25,1
100918,14:07:05,84752084,test,2,1,144,10,21,1,801,88,25,1
100918,11:13:12,735354817,test,2,0,2,10,20,1,978,0,100,0
100918,11:13:12,735354817,test,2,0,4,12,63,0,841,0,50,0
100918,11:13:12,735354817,test,2,0,6,11,2,1,354,0,66,0
100918,11:13:12,735354817,test,2,1,8,1,28,0,498,0,66,0
100918,11:13:12,735354817,test,2,1,10,7,29,1,1152,50,66,0
100918,11:13:12,735354817,test,2,1,12,12,47,0,772,33,66,0
100918,11:13:12,735354817,test,2,1,14,9,16,0,783,25,66,0
100918,11:13:12,735354817,test,2,0,16,5,48,1,1011,25,75,0
