date,time,subject,blockcode,blocknum,prime_type,trialnum,values.primestim,values.targetstim,correct,latency,trial.prime_obama.totalpercentcorrect,trial.prime_trump.totalpercentcorrect,influenced
100918,11:36:29,548346706,test,2,1,2,3,71,0,1287,0,0,0
100918,11:36:29,548346706,test,2,0,4,1,61,1,1103,0,100,0
100918,11:36:29,548346706,test,2,0,6,6,15,0,784,0,50,0
100918,11:36:29,548346706,test,2,1,8,5,43,0,1207,0,50,0
100918,11:36:29,548346706,test,2,1,10,6,36,1,663,33,50,0
100918,11:36:29,548346706,test,2,0,12,4,20,1,596,33,66,0
100918,11:36:29,548346706,test,2,0,14,3,62,1,906,33,75,0
100918,11:36:29,548346706,test,2,1,16,1,8,1,731,50,75,0
100918,11:36:29,548346706,test,2,1,18,3,67,1,632,60,75,0
100918,11:36:29,548346706,test,2,0,20,5,17,0,416,60,60,0
100918,11:36:29,548346706,test,2,1,22,2,6,1,497,66,60,0
100918,11:36:29,548346706,test,2,1,24,4,28,1,743,71,60,0
100918,11:36:29,548346706,test,2,1,26,6,26,0,674,62,60,0
100918,11:36:29,548346706,test,2,0,28,2,16,1,454,62,66,0
100918,11:36:29,548346706,test,2,1,30,1,10,1,461,66,66,0
100918,11:36:29,548346706,test,2,1,32,5,63,1,901,70,66,0
100918,11:36:29,548346706,test,2,0,34,1,34,1,471,70,71,0
100918,11:36:29,548346706,test,2,1,36,2,22,0,575,63,71,0
100918,11:36:29,548346706,test,2,0,38,4,12,1,259,63,75,0
100918,11:36:29,548346706,test,2,0,40,3,44,1,442,63,77,0
100918,11:36:29,548346706,test,2,1,42,3,29,0,693,58,77,0
100918,11:36:29,548346706,test,2,1,44,4,38,1,458,61,77,0
100918,11:36:29,548346706,test,2,0,46,5,45,1,441,61,80,0
100918,11:36:29,548346706,test,2,1,48,3,30,1,466,64,80,0
100918,11:36:29,548346706,test,2,1,50,1,59,1,468,66,80,0
100918,11:36:29,548346706,test,2,1,52,6,23,0,642,62,80,0
100918,11:36:29,548346706,test,2,1,54,2,55,1,702,64,80,0
100918,11:36:29,548346706,test,2,1,56,5,66,0,600,61,80,0
100918,11:36:29,548346706,test,2,0,58,2,32,1,244,61,81,0
100918,11:36:29,548346706,test,2,0,60,6,48,1,338,61,83,0
100918,11:36:29,548346706,test,2,0,62,1,13,0,701,61,76,0
100918,11:36:29,548346706,test,2,0,64,4,21,1,808,61,78,0
100918,11:36:29,548346706,test,2,0,66,2,72,0,426,61,73,0
100918,11:36:29,548346706,test,2,1,68,4,58,1,401,63,73,0
100918,11:36:29,548346706,test,2,1,70,4,52,0,31,60,73,0
100918,11:36:29,548346706,test,2,0,72,3,39,1,276,60,75,0
100918,11:36:29,548346706,test,2,1,74,3,68,0,380,57,75,0
100918,11:36:29,548346706,test,2,0,76,1,70,1,297,57,76,0
100918,11:36:29,548346706,test,2,0,78,6,40,0,353,57,72,0
100918,11:36:29,548346706,test,2,0,80,5,60,1,404,57,73,0
100918,11:36:29,548346706,test,2,1,82,1,42,1,649,59,73,0
100918,11:36:29,548346706,test,2,1,84,6,14,1,548,60,73,0
100918,11:36:29,548346706,test,2,1,86,2,33,0,461,58,73,0
100918,11:36:29,548346706,test,2,0,88,1,41,1,310,58,75,0
100918,11:36:29,548346706,test,2,0,90,3,7,0,345,58,71,0
100918,11:36:29,548346706,test,2,1,92,5,3,1,398,60,71,0
100918,11:36:29,548346706,test,2,1,94,4,27,1,370,61,71,0
100918,11:36:29,548346706,test,2,0,96,2,1,0,363,61,68,0
100918,11:36:29,548346706,test,2,0,98,4,24,1,296,61,69,0
100918,11:36:29,548346706,test,2,0,100,5,37,0,349,61,66,0
100918,11:36:29,548346706,test,2,0,102,6,53,1,382,61,68,0
100918,11:36:29,548346706,test,2,1,104,5,25,0,298,59,68,0
100918,11:36:29,548346706,test,2,0,106,4,46,1,315,59,69,0
100918,11:36:29,548346706,test,2,0,108,1,35,0,250,59,66,0
100918,11:36:29,548346706,test,2,0,110,2,64,1,46,59,67,0
100918,11:36:29,548346706,test,2,1,112,1,57,1,477,60,67,0
100918,11:36:29,548346706,test,2,0,114,5,2,0,566,60,65,0
100918,11:36:29,548346706,test,2,0,116,6,51,0,619,60,63,0
100918,11:36:29,548346706,test,2,0,118,3,5,1,410,60,64,0
100918,11:36:29,548346706,test,2,1,120,6,47,1,490,62,64,0
100918,11:36:29,548346706,test,2,1,122,2,31,0,268,60,64,0
100918,11:36:29,548346706,test,2,1,124,3,49,1,317,61,64,0
100918,11:36:29,548346706,test,2,1,126,4,13,1,300,62,64,0
100918,11:36:29,548346706,test,2,1,128,6,39,1,320,63,64,0
100918,11:36:29,548346706,test,2,0,130,1,65,0,196,63,62,0
100918,11:36:29,548346706,test,2,1,132,2,7,1,385,64,62,0
100918,11:36:29,548346706,test,2,1,134,1,33,0,549,62,62,0
100918,11:36:29,548346706,test,2,0,136,3,58,1,302,62,63,0
100918,11:36:29,548346706,test,2,0,138,5,23,1,721,62,64,0
100918,11:36:29,548346706,test,2,0,140,2,15,0,552,62,62,0
100918,11:36:29,548346706,test,2,1,142,5,48,1,4141,63,62,0
100918,11:36:29,548346706,test,2,0,144,6,63,0,1736,63,61,0
100918,12:36:15,896525387,test,2,0,2,1,30,1,838,0,100,0
100918,12:36:15,896525387,test,2,0,4,4,62,1,474,0,100,0
100918,12:36:15,896525387,test,2,1,6,1,17,1,542,100,100,0
100918,12:36:15,896525387,test,2,1,8,4,28,1,1246,100,100,0
100918,12:36:15,896525387,test,2,0,10,3,54,0,786,100,66,0
100918,12:36:15,896525387,test,2,0,12,1,38,0,745,100,50,0
100918,12:36:15,896525387,test,2,0,14,2,49,1,889,100,60,0
100918,12:36:15,896525387,test,2,1,16,2,32,0,1036,66,60,0
100918,12:36:15,896525387,test,2,0,18,5,63,1,600,66,66,0
100918,12:36:15,896525387,test,2,0,20,6,16,0,782,66,57,0
100918,12:36:15,896525387,test,2,1,22,6,8,1,749,75,57,0
100918,12:36:15,896525387,test,2,0,24,5,47,1,605,75,62,0
100918,12:36:15,896525387,test,2,1,26,1,12,1,1547,80,62,0
100918,12:36:15,896525387,test,2,0,28,1,42,1,595,80,66,0
100918,12:36:15,896525387,test,2,1,30,5,41,1,290,83,66,0
100918,12:36:15,896525387,test,2,1,32,3,70,0,701,71,66,0
100918,12:36:15,896525387,test,2,0,34,4,6,0,7935,71,60,0
100918,12:36:15,896525387,test,2,1,36,5,59,0,1474,62,60,0
100918,12:36:15,896525387,test,2,1,38,1,48,1,188,66,60,0
100918,12:36:15,896525387,test,2,1,40,2,40,1,348,70,60,0
100918,12:36:15,896525387,test,2,0,42,2,45,1,308,70,63,0
100918,12:36:15,896525387,test,2,0,44,3,14,0,1335,70,58,0
100918,12:36:15,896525387,test,2,0,46,6,56,1,911,70,61,0
100918,12:36:15,896525387,test,2,1,48,3,1,1,328,72,61,0
100918,12:36:15,896525387,test,2,1,50,4,37,1,370,75,61,0
100918,12:36:15,896525387,test,2,0,52,2,43,1,722,75,64,0
100918,12:36:15,896525387,test,2,1,54,6,55,1,1155,76,64,0
100918,12:36:15,896525387,test,2,0,56,3,51,1,290,76,66,0
100918,12:36:15,896525387,test,2,0,58,1,11,1,557,76,68,0
100918,12:36:15,896525387,test,2,1,60,2,64,1,621,78,68,0
100918,12:36:15,896525387,test,2,0,62,5,46,0,546,78,64,0
100918,12:36:15,896525387,test,2,0,64,6,57,0,1547,78,61,0
100918,12:36:15,896525387,test,2,1,66,1,72,0,379,73,61,0
100918,12:36:15,896525387,test,2,1,68,4,9,1,763,75,61,0
100918,12:36:15,896525387,test,2,1,70,6,2,1,450,76,61,0
100918,12:36:15,896525387,test,2,0,72,4,60,1,2455,76,63,0
100918,12:36:15,896525387,test,2,0,74,5,29,0,489,76,60,0
100918,12:36:15,896525387,test,2,1,76,3,24,1,52,77,60,0
100918,12:36:15,896525387,test,2,0,78,2,33,1,592,77,61,0
100918,12:36:15,896525387,test,2,1,80,5,27,1,359,78,61,0
100918,12:36:15,896525387,test,2,0,82,4,39,0,1327,78,59,0
100918,12:36:15,896525387,test,2,1,84,3,44,1,424,80,59,0
100918,12:36:15,896525387,test,2,0,86,3,21,1,325,80,60,0
100918,12:36:15,896525387,test,2,1,88,2,71,1,439,80,60,0
100918,12:36:15,896525387,test,2,0,90,6,13,1,1155,80,62,0
100918,12:36:15,896525387,test,2,1,92,5,22,1,2019,81,62,1
100918,12:36:15,896525387,test,2,0,94,1,25,0,897,81,60,0
100918,12:36:15,896525387,test,2,1,96,6,5,0,970,78,60,0
100918,12:36:15,896525387,test,2,0,98,1,66,0,1082,78,57,0
100918,12:36:15,896525387,test,2,0,100,6,35,1,3165,78,59,0
100918,12:36:15,896525387,test,2,0,102,2,15,1,1306,78,60,0
100918,12:36:15,896525387,test,2,1,104,1,61,1,612,79,60,0
100918,12:36:15,896525387,test,2,0,106,3,68,1,418,79,62,0
100918,12:36:15,896525387,test,2,0,108,5,65,1,423,79,63,0
100918,12:36:15,896525387,test,2,1,110,4,31,1,357,80,63,0
100918,12:36:15,896525387,test,2,1,112,1,69,1,197,80,63,0
100918,12:36:15,896525387,test,2,1,114,3,34,0,1460,77,63,0
100918,12:36:15,896525387,test,2,0,116,4,26,1,719,77,64,0
100918,12:36:15,896525387,test,2,1,118,5,58,1,488,78,64,0
100918,12:36:15,896525387,test,2,0,120,4,7,0,259,78,62,0
100918,12:36:15,896525387,test,2,1,122,2,18,0,479,75,62,0
100918,12:36:15,896525387,test,2,0,124,1,20,0,451,75,60,0
100918,12:36:15,896525387,test,2,1,126,4,32,0,23,73,60,0
100918,12:36:15,896525387,test,2,0,128,2,29,0,141,73,58,0
100918,12:36:15,896525387,test,2,1,130,6,48,0,286,70,58,0
100918,12:36:15,896525387,test,2,0,132,5,37,1,305,70,60,0
100918,12:36:15,896525387,test,2,1,134,2,47,1,403,71,60,0
100918,12:36:15,896525387,test,2,1,136,3,9,1,137,72,60,0
100918,12:36:15,896525387,test,2,0,138,6,11,1,130,72,61,0
100918,12:36:15,896525387,test,2,1,140,4,13,1,1116,73,61,0
100918,12:36:15,896525387,test,2,1,142,5,45,1,29,74,61,0
100918,12:36:15,896525387,test,2,1,144,6,34,1,307,75,61,0
100918,12:46:36,232565411,test,2,0,2,3,31,0,556,0,0,0
100918,12:46:36,232565411,test,2,1,4,6,15,0,281,0,0,0
100918,12:46:36,232565411,test,2,1,6,3,67,0,345,0,0,0
100918,12:46:36,232565411,test,2,1,8,1,9,0,315,0,0,0
100918,12:46:36,232565411,test,2,1,10,6,18,0,586,0,0,0
100918,12:46:36,232565411,test,2,0,12,1,62,0,570,0,0,0
100918,12:46:36,232565411,test,2,1,14,2,22,0,609,0,0,0
100918,12:46:36,232565411,test,2,0,16,5,47,0,530,0,0,0
100918,12:46:36,232565411,test,2,1,18,4,4,0,230,0,0,0
100918,12:46:36,232565411,test,2,1,20,5,12,0,493,0,0,0
100918,12:46:36,232565411,test,2,1,22,5,3,0,585,0,0,0
100918,12:46:36,232565411,test,2,0,24,4,59,0,1202,0,0,0
100918,12:46:36,232565411,test,2,1,26,6,70,0,477,0,0,0
100918,12:46:36,232565411,test,2,0,28,3,1,0,321,0,0,0
100918,12:46:36,232565411,test,2,1,30,2,13,0,321,0,0,0
100918,12:46:36,232565411,test,2,0,32,2,33,0,361,0,0,0
100918,12:46:36,232565411,test,2,1,34,1,36,0,234,0,0,0
100918,12:46:36,232565411,test,2,1,36,3,20,0,252,0,0,0
100918,12:46:36,232565411,test,2,0,38,6,46,0,286,0,0,0
100918,12:46:36,232565411,test,2,0,40,6,72,0,613,0,0,0
100918,12:46:36,232565411,test,2,1,42,4,61,0,478,0,0,0
100918,12:46:36,232565411,test,2,0,44,4,24,0,432,0,0,0
100918,12:46:36,232565411,test,2,0,46,3,68,0,296,0,0,0
100918,12:46:36,232565411,test,2,0,48,2,28,0,359,0,0,0
100918,12:46:36,232565411,test,2,0,50,1,19,0,538,0,0,0
100918,12:46:36,232565411,test,2,0,52,5,52,0,626,0,0,0
100918,12:46:36,232565411,test,2,1,54,2,17,1,793,7,0,0
100918,12:46:36,232565411,test,2,1,56,1,25,0,571,6,0,0
100918,12:46:36,232565411,test,2,1,58,4,53,0,848,6,0,0
100918,12:46:36,232565411,test,2,1,60,5,23,1,548,11,0,0
100918,12:46:36,232565411,test,2,0,62,5,60,1,735,11,7,0
100918,12:46:36,232565411,test,2,0,64,6,26,0,544,11,6,0
100918,12:46:36,232565411,test,2,1,66,6,41,0,470,11,6,0
100918,12:46:36,232565411,test,2,1,68,3,37,1,857,15,6,0
100918,12:46:36,232565411,test,2,1,70,6,39,1,610,20,6,0
100918,12:46:36,232565411,test,2,1,72,5,38,1,1061,23,6,0
100918,12:46:36,232565411,test,2,0,74,2,10,0,507,23,6,0
100918,12:46:36,232565411,test,2,1,76,2,11,0,1216,22,6,0
100918,12:46:36,232565411,test,2,0,78,4,34,0,604,22,5,0
100918,12:46:36,232565411,test,2,0,80,1,30,0,691,22,5,0
100918,12:46:36,232565411,test,2,1,82,1,8,0,440,21,5,0
100918,12:46:36,232565411,test,2,0,84,3,44,0,4714,21,5,0
100918,12:46:36,232565411,test,2,0,86,3,35,1,791,21,10,0
100918,12:46:36,232565411,test,2,0,88,6,21,0,1109,21,9,0
100918,12:46:36,232565411,test,2,0,90,5,48,0,704,21,9,0
100918,12:46:36,232565411,test,2,0,92,4,40,0,512,21,8,0
100918,12:46:36,232565411,test,2,0,94,1,49,0,428,21,8,0
100918,12:46:36,232565411,test,2,1,96,3,16,0,583,20,8,0
100918,12:46:36,232565411,test,2,0,98,2,27,0,7355,20,8,0
100918,12:46:36,232565411,test,2,0,100,1,5,0,391,20,7,0
100918,12:46:36,232565411,test,2,0,102,2,6,0,376,20,7,0
100918,12:46:36,232565411,test,2,1,104,4,43,0,820,20,7,0
100918,12:46:36,232565411,test,2,1,106,3,51,0,504,19,7,0
100918,12:46:36,232565411,test,2,0,108,4,14,0,465,19,7,0
100918,12:46:36,232565411,test,2,1,110,1,58,0,435,18,7,0
100918,12:46:36,232565411,test,2,1,112,4,56,0,609,17,7,0
100918,12:46:36,232565411,test,2,0,114,6,57,0,588,17,6,0
100918,12:46:36,232565411,test,2,0,116,3,7,0,351,17,6,0
100918,12:46:36,232565411,test,2,1,118,5,42,0,417,17,6,0
100918,12:46:36,232565411,test,2,0,120,5,50,0,416,17,6,0
100918,12:46:36,232565411,test,2,1,122,2,64,0,489,16,6,0
100918,12:46:36,232565411,test,2,1,124,6,55,0,203,16,6,0
100918,12:46:36,232565411,test,2,1,126,4,59,0,610,15,6,0
100918,12:46:36,232565411,test,2,0,128,4,20,0,483,15,6,0
100918,12:46:36,232565411,test,2,1,130,3,34,0,581,15,6,0
100918,12:46:36,232565411,test,2,0,132,2,23,0,970,15,6,0
100918,12:46:36,232565411,test,2,0,134,6,1,0,705,15,5,0
100918,12:46:36,232565411,test,2,0,136,3,26,0,636,15,5,0
100918,12:46:36,232565411,test,2,1,138,1,31,0,488,14,5,0
100918,12:46:36,232565411,test,2,0,140,5,27,0,481,14,5,0
100918,12:46:36,232565411,test,2,1,142,6,54,0,2941,14,5,0
100918,12:46:36,232565411,test,2,1,144,5,52,0,393,13,5,0
100918,09:46:41,313716435,test,2,0,2,6,33,1,409,0,100,0
100918,09:46:41,313716435,test,2,1,4,4,51,0,929,0,100,0
100918,09:46:41,313716435,test,2,1,6,1,26,0,541,0,100,0
100918,09:46:41,313716435,test,2,0,8,5,42,1,313,0,100,1
100918,09:46:41,313716435,test,2,1,10,6,14,0,542,0,100,1
100918,09:46:41,313716435,test,2,0,12,1,34,1,354,0,100,0
100918,09:46:41,313716435,test,2,1,14,5,35,0,853,0,100,0
100918,09:46:41,313716435,test,2,1,16,4,44,0,1307,0,100,1
100918,09:46:41,313716435,test,2,1,18,2,55,0,697,0,100,1
100918,09:46:41,313716435,test,2,0,20,6,6,1,439,0,100,0
100918,09:46:41,313716435,test,2,0,22,4,30,1,406,0,100,0
100918,09:46:41,313716435,test,2,1,24,3,56,0,1095,0,100,1
100918,09:46:41,313716435,test,2,0,26,3,16,1,565,0,100,1
100918,09:46:41,313716435,test,2,0,28,2,8,1,280,0,100,1
100918,09:46:41,313716435,test,2,1,30,3,3,0,991,0,100,0
100918,09:46:41,313716435,test,2,1,32,2,24,0,912,0,100,0
100918,09:46:41,313716435,test,2,0,34,4,66,1,1148,0,100,1
100918,09:46:41,313716435,test,2,1,36,5,19,0,2353,0,100,1
100918,09:46:41,313716435,test,2,0,38,3,10,1,452,0,100,1
100918,09:46:41,313716435,test,2,1,40,6,54,0,619,0,100,0
100918,09:46:41,313716435,test,2,0,42,2,22,1,251,0,100,1
100918,09:46:41,313716435,test,2,1,44,4,18,1,2522,8,100,1
100918,09:46:41,313716435,test,2,0,46,6,31,1,335,8,100,0
100918,09:46:41,313716435,test,2,1,48,1,36,0,1282,7,100,1
100918,09:46:41,313716435,test,2,0,50,5,58,1,409,7,100,0
100918,09:46:41,313716435,test,2,1,52,3,37,0,1065,7,100,0
100918,09:46:41,313716435,test,2,0,54,1,17,1,976,7,100,1
100918,09:46:41,313716435,test,2,1,56,1,13,0,507,6,100,0
100918,09:46:41,313716435,test,2,1,58,2,70,1,1591,12,100,1
100918,09:46:41,313716435,test,2,1,60,5,52,0,545,11,100,0
100918,09:46:41,313716435,test,2,0,62,3,57,1,381,11,100,0
100918,09:46:41,313716435,test,2,0,64,6,60,1,327,11,100,0
100918,09:46:41,313716435,test,2,1,66,4,12,0,419,11,100,1
100918,09:46:41,313716435,test,2,1,68,6,68,1,1339,15,100,1
100918,09:46:41,313716435,test,2,1,70,2,27,0,567,15,100,0
100918,09:46:41,313716435,test,2,1,72,1,20,1,1017,19,100,1
100918,09:46:41,313716435,test,2,0,74,1,39,1,314,19,100,1
100918,09:46:41,313716435,test,2,1,76,5,38,0,583,18,100,0
100918,09:46:41,313716435,test,2,1,78,6,40,0,361,17,100,0
100918,09:46:41,313716435,test,2,1,80,4,7,0,507,16,100,0
100918,09:46:41,313716435,test,2,0,82,2,21,1,592,16,100,1
100918,09:46:41,313716435,test,2,1,84,3,49,0,298,16,100,0
100918,09:46:41,313716435,test,2,1,86,1,59,0,247,15,100,0
100918,09:46:41,313716435,test,2,1,88,3,53,0,799,14,100,0
100918,09:46:41,313716435,test,2,1,90,6,5,0,360,14,100,1
100918,09:46:41,313716435,test,2,1,92,4,32,0,819,13,100,1
100918,09:46:41,313716435,test,2,0,94,5,46,1,468,13,100,1
100918,09:46:41,313716435,test,2,0,96,4,25,1,307,13,100,0
100918,09:46:41,313716435,test,2,0,98,6,48,1,151,13,100,0
100918,09:46:41,313716435,test,2,0,100,5,71,1,106,13,100,0
100918,09:46:41,313716435,test,2,0,102,1,23,1,151,13,100,1
100918,09:46:41,313716435,test,2,0,104,2,69,1,154,13,100,0
100918,09:46:41,313716435,test,2,0,106,3,9,1,237,13,100,1
100918,09:46:41,313716435,test,2,0,108,4,47,1,133,13,100,0
100918,09:46:41,313716435,test,2,0,110,2,61,1,176,13,100,1
100918,09:46:41,313716435,test,2,1,112,2,2,0,291,13,100,0
100918,09:46:41,313716435,test,2,0,114,5,11,1,240,13,100,1
100918,09:46:41,313716435,test,2,1,116,5,65,0,296,12,100,0
100918,09:46:41,313716435,test,2,1,118,4,15,0,237,12,100,0
100918,09:46:41,313716435,test,2,0,120,1,50,1,293,12,100,0
100918,09:46:41,313716435,test,2,1,122,6,29,0,282,12,100,1
100918,09:46:41,313716435,test,2,0,124,4,41,1,265,12,100,1
100918,09:46:41,313716435,test,2,0,126,6,25,1,176,12,100,0
100918,09:46:41,313716435,test,2,0,128,3,72,1,242,12,100,0
100918,09:46:41,313716435,test,2,0,130,4,7,1,137,12,100,0
100918,09:46:41,313716435,test,2,0,132,1,43,1,173,12,100,0
100918,09:46:41,313716435,test,2,0,134,3,36,1,167,12,100,0
100918,09:46:41,313716435,test,2,1,136,3,13,0,289,11,100,0
100918,09:46:41,313716435,test,2,0,138,6,6,1,150,11,100,0
100918,09:46:41,313716435,test,2,1,140,1,54,0,281,11,100,0
100918,09:46:41,313716435,test,2,1,142,5,8,0,263,11,100,0
100918,09:46:41,313716435,test,2,0,144,2,47,1,189,11,100,1
100918,12:52:27,844835660,test,2,0,2,1,28,1,1721,0,100,0
100918,12:52:27,844835660,test,2,1,4,5,13,1,941,100,100,0
100918,12:52:27,844835660,test,2,1,6,1,10,0,1099,50,100,0
100918,12:52:27,844835660,test,2,0,8,4,62,0,1174,50,50,0
100918,12:52:27,844835660,test,2,1,10,2,14,0,2252,33,50,0
100918,12:52:27,844835660,test,2,0,12,6,41,1,3763,33,66,1
100918,12:52:27,844835660,test,2,0,14,1,63,1,906,33,75,0
100918,12:52:27,844835660,test,2,1,16,6,66,1,966,50,75,0
100918,12:52:27,844835660,test,2,1,18,4,29,1,998,60,75,0
100918,12:52:27,844835660,test,2,0,20,5,12,0,869,60,60,0
100918,12:52:27,844835660,test,2,1,22,5,22,1,928,66,60,0
100918,12:52:27,844835660,test,2,0,24,3,70,0,1988,66,50,0
100918,12:52:27,844835660,test,2,0,26,2,17,1,3958,66,57,0
100918,12:52:27,844835660,test,2,1,28,3,64,0,1495,57,57,0
100918,12:52:27,844835660,test,2,0,30,6,32,0,1478,57,50,0
100918,12:52:27,844835660,test,2,1,32,3,55,1,927,62,50,0
100918,12:52:27,844835660,test,2,0,34,3,35,0,1511,62,44,0
100918,12:52:27,844835660,test,2,1,36,5,43,0,996,55,44,0
100918,12:52:27,844835660,test,2,0,38,2,44,1,1595,55,50,0
100918,12:52:27,844835660,test,2,1,40,2,65,0,1558,50,50,1
100918,12:52:27,844835660,test,2,1,42,1,11,1,1002,54,50,0
100918,12:52:27,844835660,test,2,0,44,1,42,0,2357,54,45,0
100918,12:52:27,844835660,test,2,0,46,5,34,0,1714,54,41,0
100918,12:52:27,844835660,test,2,0,48,4,56,1,736,54,46,0
100918,12:52:27,844835660,test,2,1,50,4,31,0,1134,50,46,0
100918,12:52:27,844835660,test,2,0,52,4,51,1,918,50,50,0
100918,12:52:27,844835660,test,2,1,54,6,23,1,682,53,50,0
100918,12:52:27,844835660,test,2,1,56,1,49,1,1305,57,50,0
100918,12:52:27,844835660,test,2,0,58,6,47,0,795,57,46,0
100918,12:52:27,844835660,test,2,0,60,3,6,1,811,57,50,0
100918,12:52:27,844835660,test,2,1,62,2,40,0,955,53,50,0
100918,12:52:27,844835660,test,2,1,64,4,72,1,1104,56,50,0
100918,12:52:27,844835660,test,2,1,66,3,8,0,919,52,50,0
100918,12:52:27,844835660,test,2,1,68,6,27,1,773,55,50,0
100918,12:52:27,844835660,test,2,0,70,1,54,1,1037,55,52,0
100918,12:52:27,844835660,test,2,1,72,5,19,0,1634,52,52,0
100918,12:52:27,844835660,test,2,0,74,5,46,1,1114,52,55,0
100918,12:52:27,844835660,test,2,0,76,2,33,1,1095,52,57,0
100918,12:52:27,844835660,test,2,0,78,2,9,0,1457,52,55,0
100918,12:52:27,844835660,test,2,1,80,5,1,0,4115,50,55,1
100918,12:52:27,844835660,test,2,0,82,4,53,0,1482,50,52,0
100918,12:52:27,844835660,test,2,1,84,6,37,1,2374,52,52,0
100918,12:52:27,844835660,test,2,0,86,1,38,1,1515,52,54,0
100918,12:52:27,844835660,test,2,1,88,1,59,0,2051,50,54,0
100918,12:52:27,844835660,test,2,1,90,2,24,1,694,52,54,0
100918,12:52:27,844835660,test,2,1,92,3,15,0,745,50,54,0
100918,12:52:27,844835660,test,2,0,94,5,52,0,1631,50,52,0
100918,12:52:27,844835660,test,2,0,96,3,67,0,841,50,50,0
100918,12:52:27,844835660,test,2,0,98,6,25,1,775,50,52,0
100918,12:52:27,844835660,test,2,1,100,4,57,0,953,48,52,0
100918,12:52:27,844835660,test,2,1,102,2,48,0,886,46,52,0
100918,12:52:27,844835660,test,2,1,104,5,4,0,1128,44,52,0
100918,12:52:27,844835660,test,2,1,106,1,50,1,2585,46,52,0
100918,12:52:27,844835660,test,2,1,108,4,2,1,832,48,52,0
100918,12:52:27,844835660,test,2,1,110,3,68,1,867,50,52,0
100918,12:52:27,844835660,test,2,0,112,2,60,1,924,50,53,0
100918,12:52:27,844835660,test,2,0,114,6,5,0,1213,50,51,0
100918,12:52:27,844835660,test,2,0,116,5,45,0,1161,50,50,0
100918,12:52:27,844835660,test,2,0,118,4,58,1,1064,50,51,0
100918,12:52:27,844835660,test,2,0,120,1,18,0,1088,50,50,0
100918,12:52:27,844835660,test,2,0,122,3,3,1,779,50,51,0
100918,12:52:27,844835660,test,2,0,124,1,71,0,2082,50,50,0
100918,12:52:27,844835660,test,2,1,126,6,34,0,993,48,50,0
100918,12:52:27,844835660,test,2,1,128,3,72,1,689,50,50,0
100918,12:52:27,844835660,test,2,1,130,6,10,0,878,48,50,0
100918,12:52:27,844835660,test,2,0,132,2,16,1,843,48,51,0
100918,12:52:27,844835660,test,2,0,134,6,60,0,1181,48,50,0
100918,12:52:27,844835660,test,2,0,136,5,20,1,946,48,51,0
100918,12:52:27,844835660,test,2,0,138,4,7,1,966,48,52,0
100918,12:52:27,844835660,test,2,1,140,4,48,0,825,47,52,0
100918,12:52:27,844835660,test,2,1,142,5,38,1,807,48,52,0
100918,12:52:27,844835660,test,2,1,144,1,41,0,1198,47,52,0
100918,12:54:53,295994828,test,2,0,2,6,1,1,957,0,100,0
100918,12:54:53,295994828,test,2,1,4,6,50,1,848,100,100,0
100918,12:54:53,295994828,test,2,0,6,6,21,1,1031,100,100,0
100918,12:54:53,295994828,test,2,1,8,1,70,0,871,50,100,0
100918,12:54:53,295994828,test,2,1,10,2,17,0,957,33,100,0
100918,12:54:53,295994828,test,2,0,12,5,71,1,528,33,100,0
100918,12:54:53,295994828,test,2,0,14,3,58,1,1092,33,100,0
100918,12:54:53,295994828,test,2,0,16,1,60,0,1282,33,80,0
100918,12:54:53,295994828,test,2,1,18,4,48,1,1064,50,80,0
100918,12:54:53,295994828,test,2,1,20,5,35,1,839,60,80,0
100918,12:54:53,295994828,test,2,1,22,6,26,0,1567,50,80,0
100918,12:54:53,295994828,test,2,0,24,2,41,0,1065,50,66,0
100918,12:54:53,295994828,test,2,0,26,4,46,1,854,50,71,0
100918,12:54:53,295994828,test,2,0,28,6,23,0,1165,50,62,0
100918,12:54:53,295994828,test,2,1,30,3,28,1,1224,57,62,0
100918,12:54:53,295994828,test,2,1,32,1,37,1,864,62,62,0
100918,12:54:53,295994828,test,2,0,34,1,15,0,1127,62,55,0
100918,12:54:53,295994828,test,2,1,36,3,42,1,1459,66,55,0
100918,12:54:53,295994828,test,2,1,38,2,9,1,1234,70,55,0
100918,12:54:53,295994828,test,2,0,40,3,56,0,2106,70,50,0
100918,12:54:53,295994828,test,2,0,42,5,18,1,1774,70,54,0
100918,12:54:53,295994828,test,2,0,44,4,25,0,1184,70,50,0
100918,12:54:53,295994828,test,2,0,46,2,67,0,826,70,46,0
100918,12:54:53,295994828,test,2,0,48,1,33,1,1698,70,50,0
100918,12:54:53,295994828,test,2,1,50,6,47,1,872,72,50,0
100918,12:54:53,295994828,test,2,1,52,4,31,1,1454,75,50,0
100918,12:54:53,295994828,test,2,1,54,5,30,1,1469,76,50,0
100918,12:54:53,295994828,test,2,0,56,6,59,0,2251,76,46,0
100918,12:54:53,295994828,test,2,1,58,4,20,1,1178,78,46,0
100918,12:54:53,295994828,test,2,0,60,2,5,0,1060,78,43,0
100918,12:54:53,295994828,test,2,1,62,3,61,0,1347,73,43,0
100918,12:54:53,295994828,test,2,0,64,5,72,1,2278,73,47,0
100918,12:54:53,295994828,test,2,0,66,4,3,0,1429,73,44,0
100918,12:54:53,295994828,test,2,1,68,6,32,1,1205,75,44,0
100918,12:54:53,295994828,test,2,1,70,2,22,1,1406,76,44,0
100918,12:54:53,295994828,test,2,1,72,1,2,0,1007,72,44,0
100918,12:54:53,295994828,test,2,1,74,5,54,1,1296,73,44,0
100918,12:54:53,295994828,test,2,1,76,5,36,1,1781,75,44,0
100918,12:54:53,295994828,test,2,1,78,4,62,1,1415,76,44,0
100918,12:54:53,295994828,test,2,1,80,2,55,0,712,72,44,0
100918,12:54:53,295994828,test,2,0,82,3,13,0,805,72,42,0
100918,12:54:53,295994828,test,2,1,84,1,43,0,814,69,42,0
100918,12:54:53,295994828,test,2,0,86,3,69,1,1079,69,45,0
100918,12:54:53,295994828,test,2,0,88,5,44,0,1285,69,42,0
100918,12:54:53,295994828,test,2,1,90,3,57,1,1338,70,42,0
100918,12:54:53,295994828,test,2,1,92,6,14,1,1118,72,42,0
100918,12:54:53,295994828,test,2,0,94,2,10,0,794,72,40,0
100918,12:54:53,295994828,test,2,0,96,4,49,1,867,72,43,0
100918,12:54:53,295994828,test,2,1,98,1,38,0,857,69,43,0
100918,12:54:53,295994828,test,2,1,100,5,45,0,1104,66,43,0
100918,12:54:53,295994828,test,2,0,102,6,66,1,637,66,45,0
100918,12:54:53,295994828,test,2,0,104,1,4,0,749,66,44,0
100918,12:54:53,295994828,test,2,1,106,6,65,0,1369,64,44,0
100918,12:54:53,295994828,test,2,1,108,3,51,1,1146,65,44,0
100918,12:54:53,295994828,test,2,0,110,1,53,0,1270,65,42,0
100918,12:54:53,295994828,test,2,0,112,4,39,1,2092,65,44,0
100918,12:54:53,295994828,test,2,0,114,2,52,0,946,65,42,0
100918,12:54:53,295994828,test,2,0,116,3,11,0,805,65,41,0
100918,12:54:53,295994828,test,2,0,118,5,24,0,1902,65,40,0
100918,12:54:53,295994828,test,2,1,120,2,19,1,955,66,40,0
100918,12:54:53,295994828,test,2,0,122,6,12,1,1006,66,41,0
100918,12:54:53,295994828,test,2,1,124,4,34,0,767,64,41,0
100918,12:54:53,295994828,test,2,1,126,5,56,1,1065,65,41,0
100918,12:54:53,295994828,test,2,0,128,4,39,0,1160,65,40,0
100918,12:54:53,295994828,test,2,1,130,3,40,0,2243,63,40,0
100918,12:54:53,295994828,test,2,0,132,2,68,0,690,63,39,0
100918,12:54:53,295994828,test,2,1,134,1,23,0,895,61,39,0
100918,12:54:53,295994828,test,2,1,136,6,12,1,756,62,39,0
100918,12:54:53,295994828,test,2,0,138,6,22,0,719,62,38,0
100918,12:54:53,295994828,test,2,0,140,5,67,0,1019,62,37,0
100918,12:54:53,295994828,test,2,1,142,2,71,1,635,63,37,0
100918,12:54:53,295994828,test,2,0,144,3,62,1,571,63,38,0
100918,13:02:40,568558267,test,2,0,2,6,5,1,419,0,100,1
100918,13:02:40,568558267,test,2,0,4,1,26,1,828,0,100,1
100918,13:02:40,568558267,test,2,1,6,4,51,0,389,0,100,1
100918,13:02:40,568558267,test,2,0,8,6,27,1,271,0,100,1
100918,13:02:40,568558267,test,2,1,10,2,47,0,230,0,100,1
100918,13:02:40,568558267,test,2,0,12,4,55,1,391,0,100,1
100918,13:02:40,568558267,test,2,1,14,4,41,0,369,0,100,1
100918,13:02:40,568558267,test,2,1,16,1,65,0,356,0,100,1
100918,13:02:40,568558267,test,2,1,18,6,48,0,408,0,100,1
100918,13:02:40,568558267,test,2,1,20,3,32,0,338,0,100,1
100918,13:02:40,568558267,test,2,0,22,2,30,1,406,0,100,1
100918,13:02:40,568558267,test,2,0,24,3,28,1,416,0,100,1
100918,13:02:40,568558267,test,2,0,26,5,60,1,408,0,100,1
100918,13:02:40,568558267,test,2,1,28,5,36,0,515,0,100,1
100918,13:02:40,568558267,test,2,1,30,2,49,0,297,0,100,1
100918,13:02:40,568558267,test,2,0,32,6,34,1,318,0,100,1
100918,13:02:40,568558267,test,2,1,34,4,6,0,354,0,100,1
100918,13:02:40,568558267,test,2,1,36,6,18,0,318,0,100,1
100918,13:02:40,568558267,test,2,0,38,3,70,1,211,0,100,1
100918,13:02:40,568558267,test,2,0,40,5,57,1,333,0,100,1
100918,13:02:40,568558267,test,2,1,42,3,20,0,241,0,100,1
100918,13:02:40,568558267,test,2,0,44,4,64,1,385,0,100,1
100918,13:02:40,568558267,test,2,1,46,1,15,0,244,0,100,1
100918,13:02:40,568558267,test,2,1,48,5,63,0,484,0,100,1
100918,13:02:40,568558267,test,2,0,50,2,44,1,266,0,100,1
100918,13:02:40,568558267,test,2,1,52,4,14,0,265,0,100,1
100918,13:02:40,568558267,test,2,0,54,1,39,1,329,0,100,1
100918,13:02:40,568558267,test,2,0,56,6,7,1,262,0,100,1
100918,13:02:40,568558267,test,2,0,58,2,43,1,381,0,100,1
100918,13:02:40,568558267,test,2,1,60,3,61,0,328,0,100,1
100918,13:02:40,568558267,test,2,1,62,5,50,0,253,0,100,1
100918,13:02:40,568558267,test,2,0,64,4,24,1,381,0,100,1
100918,13:02:40,568558267,test,2,0,66,3,9,1,384,0,100,1
100918,13:02:40,568558267,test,2,0,68,1,72,1,266,0,100,1
100918,13:02:40,568558267,test,2,0,70,5,40,1,489,0,100,1
100918,13:02:40,568558267,test,2,0,72,5,25,1,312,0,100,1
100918,13:02:40,568558267,test,2,0,74,1,17,1,229,0,100,1
100918,13:02:40,568558267,test,2,0,76,2,38,1,262,0,100,1
100918,13:02:40,568558267,test,2,0,78,3,37,1,286,0,100,1
100918,13:02:40,568558267,test,2,1,80,6,62,0,236,0,100,1
100918,13:02:40,568558267,test,2,1,82,1,53,0,188,0,100,1
100918,13:02:40,568558267,test,2,0,84,6,45,1,367,0,100,1
100918,13:02:40,568558267,test,2,0,86,4,4,1,306,0,100,1
100918,13:02:40,568558267,test,2,1,88,2,10,0,231,0,100,1
100918,13:02:40,568558267,test,2,1,90,6,69,0,440,0,100,1
100918,13:02:40,568558267,test,2,0,92,4,1,1,403,0,100,1
100918,13:02:40,568558267,test,2,1,94,4,59,0,298,0,100,1
100918,13:02:40,568558267,test,2,1,96,2,11,0,313,0,100,1
100918,13:02:40,568558267,test,2,1,98,3,2,0,190,0,100,1
100918,13:02:40,568558267,test,2,1,100,5,68,0,240,0,100,1
100918,13:02:40,568558267,test,2,1,102,1,46,0,217,0,100,1
100918,13:02:40,568558267,test,2,0,104,2,3,1,330,0,100,1
100918,13:02:40,568558267,test,2,1,106,3,19,0,167,0,100,1
100918,13:02:40,568558267,test,2,0,108,3,54,1,210,0,100,1
100918,13:02:40,568558267,test,2,0,110,5,58,1,252,0,100,1
100918,13:02:40,568558267,test,2,1,112,2,66,0,99,0,100,1
100918,13:02:40,568558267,test,2,1,114,5,12,0,273,0,100,1
100918,13:02:40,568558267,test,2,1,116,4,31,0,233,0,100,1
100918,13:02:40,568558267,test,2,1,118,1,35,0,200,0,100,1
100918,13:02:40,568558267,test,2,1,120,6,56,0,226,0,100,1
100918,13:02:40,568558267,test,2,0,122,6,8,1,306,0,100,1
100918,13:02:40,568558267,test,2,0,124,1,22,1,337,0,100,1
100918,13:02:40,568558267,test,2,1,126,1,27,0,327,0,100,1
100918,13:02:40,568558267,test,2,0,128,1,66,1,337,0,100,1
100918,13:02:40,568558267,test,2,0,130,5,33,1,318,0,100,1
100918,13:02:40,568558267,test,2,1,132,4,30,0,211,0,100,1
100918,13:02:40,568558267,test,2,1,134,5,69,0,220,0,100,1
100918,13:02:40,568558267,test,2,0,136,6,4,1,261,0,100,1
100918,13:02:40,568558267,test,2,1,138,3,49,0,261,0,100,1
100918,13:02:40,568558267,test,2,1,140,2,12,0,197,0,100,1
100918,13:02:40,568558267,test,2,0,142,3,61,1,319,0,100,1
100918,13:02:40,568558267,test,2,0,144,4,16,1,308,0,100,1
100918,12:01:49,964904693,test,2,0,2,1,3,1,1203,0,100,0
100918,12:01:49,964904693,test,2,0,4,6,28,0,1197,0,50,0
100918,12:01:49,964904693,test,2,0,6,5,60,1,1069,0,66,0
100918,12:01:49,964904693,test,2,1,8,3,72,0,1204,0,66,0
100918,12:01:49,964904693,test,2,1,10,1,34,0,1173,0,66,0
100918,12:01:49,964904693,test,2,0,12,1,30,0,1559,0,50,0
100918,12:01:49,964904693,test,2,0,14,4,19,1,847,0,60,0
100918,12:01:49,964904693,test,2,1,16,3,45,1,1184,33,60,0
100918,12:01:49,964904693,test,2,0,18,2,47,1,1129,33,66,0
100918,12:01:49,964904693,test,2,1,20,5,41,1,1550,50,66,0
100918,12:01:49,964904693,test,2,1,22,4,69,1,1016,60,66,0
100918,12:01:49,964904693,test,2,1,24,2,59,0,1369,50,66,0
100918,12:01:49,964904693,test,2,0,26,3,35,1,834,50,71,0
100918,12:01:49,964904693,test,2,0,28,3,71,0,1274,50,62,0
100918,12:01:49,964904693,test,2,1,30,6,37,1,935,57,62,0
100918,12:01:49,964904693,test,2,1,32,2,70,1,976,62,62,0
100918,12:01:49,964904693,test,2,0,34,5,46,1,997,62,66,0
100918,12:01:49,964904693,test,2,1,36,1,65,0,879,55,66,0
100918,12:01:49,964904693,test,2,1,38,6,18,0,1060,50,66,0
100918,12:01:49,964904693,test,2,0,40,2,53,0,1203,50,60,0
100918,12:01:49,964904693,test,2,1,42,3,63,0,1012,45,60,0
100918,12:01:49,964904693,test,2,0,44,1,61,1,812,45,63,0
100918,12:01:49,964904693,test,2,1,46,5,27,1,1030,50,63,0
100918,12:01:49,964904693,test,2,1,48,4,1,0,1269,46,63,0
100918,12:01:49,964904693,test,2,0,50,6,36,1,708,46,66,0
100918,12:01:49,964904693,test,2,0,52,4,56,0,1552,46,61,0
100918,12:01:49,964904693,test,2,1,54,5,55,0,1028,42,61,0
100918,12:01:49,964904693,test,2,1,56,6,6,1,779,46,61,0
100918,12:01:49,964904693,test,2,0,58,5,38,1,806,46,64,0
100918,12:01:49,964904693,test,2,1,60,2,44,1,821,50,64,0
100918,12:01:49,964904693,test,2,0,62,3,31,0,877,50,60,0
100918,12:01:49,964904693,test,2,1,64,4,42,0,1019,47,60,0
100918,12:01:49,964904693,test,2,1,66,3,8,1,963,50,60,0
100918,12:01:49,964904693,test,2,0,68,6,32,0,934,50,56,0
100918,12:01:49,964904693,test,2,0,70,4,58,0,1113,50,52,0
100918,12:01:49,964904693,test,2,0,72,1,9,1,846,50,55,0
100918,12:01:49,964904693,test,2,1,74,1,23,1,869,52,55,0
100918,12:01:49,964904693,test,2,1,76,1,25,0,1235,50,55,0
100918,12:01:49,964904693,test,2,0,78,2,66,0,1259,50,52,0
100918,12:01:49,964904693,test,2,0,80,5,33,1,978,50,55,0
100918,12:01:49,964904693,test,2,0,82,4,51,0,836,50,52,0
100918,12:01:49,964904693,test,2,1,84,6,57,1,1515,52,52,0
100918,12:01:49,964904693,test,2,0,86,3,17,1,831,52,54,0
100918,12:01:49,964904693,test,2,1,88,4,68,1,943,54,54,0
100918,12:01:49,964904693,test,2,1,90,5,64,0,747,52,54,0
100918,12:01:49,964904693,test,2,1,92,2,24,1,967,54,54,0
100918,12:01:49,964904693,test,2,0,94,1,54,0,920,54,52,0
100918,12:01:49,964904693,test,2,1,96,3,21,0,861,52,52,0
100918,12:01:49,964904693,test,2,1,98,4,22,1,1076,53,52,0
100918,12:01:49,964904693,test,2,1,100,5,39,1,986,55,52,0
100918,12:01:49,964904693,test,2,1,102,6,7,0,977,53,52,0
100918,12:01:49,964904693,test,2,1,104,2,16,0,916,51,52,0
100918,12:01:49,964904693,test,2,0,106,2,43,1,849,51,54,0
100918,12:01:49,964904693,test,2,1,108,1,14,0,1704,50,54,0
100918,12:01:49,964904693,test,2,1,110,3,20,0,861,48,54,0
100918,12:01:49,964904693,test,2,1,112,3,10,0,987,46,54,0
100918,12:01:49,964904693,test,2,0,114,6,15,0,885,46,52,0
100918,12:01:49,964904693,test,2,1,116,2,4,1,930,48,52,0
100918,12:01:49,964904693,test,2,0,118,6,26,0,982,48,50,0
100918,12:01:49,964904693,test,2,0,120,2,50,0,1520,48,48,0
100918,12:01:49,964904693,test,2,0,122,5,11,1,1468,48,50,0
100918,12:01:49,964904693,test,2,0,124,1,2,1,875,48,51,0
100918,12:01:49,964904693,test,2,0,126,3,70,1,952,48,53,0
100918,12:01:49,964904693,test,2,0,128,4,36,1,827,48,54,0
100918,12:01:49,964904693,test,2,0,130,2,27,1,827,48,56,0
100918,12:01:49,964904693,test,2,0,132,3,40,1,811,48,57,0
100918,12:01:49,964904693,test,2,0,134,6,62,0,907,48,55,0
100918,12:01:49,964904693,test,2,1,136,5,24,1,696,50,55,0
100918,12:01:49,964904693,test,2,0,138,1,35,1,790,50,57,0
100918,12:01:49,964904693,test,2,0,140,4,18,0,719,50,55,0
100918,12:01:49,964904693,test,2,1,142,4,19,0,1035,48,55,0
100918,12:01:49,964904693,test,2,1,144,6,59,0,994,47,55,0
100918,10:07:27,602656804,test,2,1,2,3,2,1,2141,100,0,0
100918,10:07:27,602656804,test,2,1,4,2,32,1,1270,100,0,0
100918,10:07:27,602656804,test,2,0,6,1,45,1,1058,100,100,0
100918,10:07:27,602656804,test,2,0,8,5,15,1,1134,100,100,0
100918,10:07:27,602656804,test,2,0,10,4,46,1,1561,100,100,0
100918,10:07:27,602656804,test,2,0,12,6,64,0,957,100,75,0
100918,10:07:27,602656804,test,2,1,14,1,48,0,1705,66,75,0
100918,10:07:27,602656804,test,2,1,16,6,49,1,703,75,75,0
100918,10:07:27,602656804,test,2,1,18,3,23,1,1250,80,75,0
100918,10:07:27,602656804,test,2,0,20,2,30,1,954,80,80,0
100918,10:07:27,602656804,test,2,1,22,4,44,0,744,66,80,0
100918,10:07:27,602656804,test,2,1,24,5,14,1,944,71,80,0
100918,10:07:27,602656804,test,2,0,26,3,52,1,1089,71,83,0
100918,10:07:27,602656804,test,2,1,28,4,26,1,1095,75,83,0
100918,10:07:27,602656804,test,2,0,30,1,29,0,1051,75,71,0
100918,10:07:27,602656804,test,2,1,32,5,12,1,772,77,71,0
100918,10:07:27,602656804,test,2,0,34,2,10,1,1048,77,75,0
100918,10:07:27,602656804,test,2,0,36,1,61,0,407,77,66,0
100918,10:07:27,602656804,test,2,1,38,3,19,1,822,80,66,0
100918,10:07:27,602656804,test,2,1,40,2,8,1,1165,81,66,0
100918,10:07:27,602656804,test,2,0,42,3,53,0,705,81,60,0
100918,10:07:27,602656804,test,2,0,44,5,31,0,1275,81,54,0
100918,10:07:27,602656804,test,2,0,46,4,11,0,1193,81,50,0
100918,10:07:27,602656804,test,2,0,48,6,16,0,1049,81,46,0
100918,10:07:27,602656804,test,2,1,50,1,66,1,1014,83,46,0
100918,10:07:27,602656804,test,2,1,52,6,35,1,528,84,46,0
100918,10:07:27,602656804,test,2,0,54,1,24,1,984,84,50,0
100918,10:07:27,602656804,test,2,1,56,2,9,0,680,78,50,0
100918,10:07:27,602656804,test,2,0,58,5,60,0,1050,78,46,0
100918,10:07:27,602656804,test,2,1,60,5,18,0,934,73,46,0
100918,10:07:27,602656804,test,2,0,62,4,68,0,1017,73,43,0
100918,10:07:27,602656804,test,2,1,64,6,57,1,2252,75,43,0
100918,10:07:27,602656804,test,2,1,66,4,50,1,566,76,43,0
100918,10:07:27,602656804,test,2,0,68,6,6,1,1619,76,47,0
100918,10:07:27,602656804,test,2,0,70,3,28,0,1145,76,44,0
100918,10:07:27,602656804,test,2,1,72,1,40,1,3235,77,44,0
100918,10:07:27,602656804,test,2,1,74,3,63,0,1293,73,44,0
100918,10:07:27,602656804,test,2,1,76,4,1,1,797,75,44,0
100918,10:07:27,602656804,test,2,1,78,1,21,0,871,71,44,0
100918,10:07:27,602656804,test,2,0,80,2,25,0,887,71,42,0
100918,10:07:27,602656804,test,2,0,82,6,5,1,848,71,45,0
100918,10:07:27,602656804,test,2,0,84,5,7,1,1628,71,47,1
100918,10:07:27,602656804,test,2,1,86,3,55,0,1240,68,47,0
100918,10:07:27,602656804,test,2,0,88,3,71,1,2030,68,50,0
100918,10:07:27,602656804,test,2,0,90,1,65,0,858,68,47,0
100918,10:07:27,602656804,test,2,0,92,2,17,0,2539,68,45,0
100918,10:07:27,602656804,test,2,0,94,4,13,0,860,68,44,0
100918,10:07:27,602656804,test,2,1,96,5,22,1,712,69,44,0
100918,10:07:27,602656804,test,2,1,98,6,56,0,1233,66,44,0
100918,10:07:27,602656804,test,2,1,100,2,4,1,1284,68,44,0
100918,10:07:27,602656804,test,2,0,102,6,37,1,688,68,46,0
100918,10:07:27,602656804,test,2,1,104,5,39,1,1078,69,46,0
100918,10:07:27,602656804,test,2,1,106,4,70,0,819,66,46,0
100918,10:07:27,602656804,test,2,1,108,3,47,1,1341,67,46,0
100918,10:07:27,602656804,test,2,1,110,6,62,1,949,68,46,0
100918,10:07:27,602656804,test,2,1,112,1,3,0,1107,66,46,0
100918,10:07:27,602656804,test,2,1,114,2,54,1,681,67,46,0
100918,10:07:27,602656804,test,2,1,116,6,69,0,615,65,46,0
100918,10:07:27,602656804,test,2,0,118,2,72,1,728,65,48,0
100918,10:07:27,602656804,test,2,1,120,2,41,1,1196,66,48,0
100918,10:07:27,602656804,test,2,0,122,1,43,0,1158,66,46,0
100918,10:07:27,602656804,test,2,0,124,4,67,1,1430,66,48,0
100918,10:07:27,602656804,test,2,1,126,4,35,1,627,67,48,0
100918,10:07:27,602656804,test,2,0,128,3,1,0,514,67,46,0
100918,10:07:27,602656804,test,2,0,130,5,28,1,286,67,48,0
100918,10:07:27,602656804,test,2,0,132,2,11,1,427,67,50,0
100918,10:07:27,602656804,test,2,0,134,4,44,1,908,67,51,0
100918,10:07:27,602656804,test,2,1,136,3,64,1,895,68,51,0
100918,10:07:27,602656804,test,2,1,138,5,30,1,661,69,51,0
100918,10:07:27,602656804,test,2,0,140,1,51,0,479,69,50,0
100918,10:07:27,602656804,test,2,0,142,6,52,0,3544,69,48,0
100918,10:07:27,602656804,test,2,0,144,3,61,0,887,69,47,0
100918,12:08:34,993168739,test,2,1,2,5,37,1,989,100,0,0
100918,12:08:34,993168739,test,2,1,4,4,5,0,640,50,0,0
100918,12:08:34,993168739,test,2,1,6,6,64,0,571,33,0,1
100918,12:08:34,993168739,test,2,0,8,5,50,0,1656,33,0,0
100918,12:08:34,993168739,test,2,0,10,5,12,0,578,33,0,0
100918,12:08:34,993168739,test,2,0,12,3,22,0,1496,33,0,0
100918,12:08:34,993168739,test,2,0,14,4,59,0,747,33,0,0
100918,12:08:34,993168739,test,2,1,16,2,10,0,816,25,0,1
100918,12:08:34,993168739,test,2,1,18,5,26,0,895,20,0,1
100918,12:08:34,993168739,test,2,0,20,2,63,1,1235,20,20,0
100918,12:08:34,993168739,test,2,1,22,1,34,0,1288,16,20,1
100918,12:08:34,993168739,test,2,0,24,1,18,1,1473,16,33,0
100918,12:08:34,993168739,test,2,0,26,6,3,1,873,16,42,0
100918,12:08:34,993168739,test,2,0,28,1,16,1,895,16,50,0
100918,12:08:34,993168739,test,2,0,30,3,23,1,608,16,55,0
100918,12:08:34,993168739,test,2,1,32,3,41,0,745,14,55,1
100918,12:08:34,993168739,test,2,1,34,2,19,1,1943,25,55,0
100918,12:08:34,993168739,test,2,1,36,1,71,0,990,22,55,0
100918,12:08:34,993168739,test,2,0,38,6,4,1,603,22,60,0
100918,12:08:34,993168739,test,2,0,40,2,70,1,455,22,63,0
100918,12:08:34,993168739,test,2,0,42,5,72,1,1042,22,66,0
100918,12:08:34,993168739,test,2,0,44,4,33,1,457,22,69,0
100918,12:08:34,993168739,test,2,0,46,4,29,1,433,22,71,0
100918,12:08:34,993168739,test,2,1,48,5,7,0,667,20,71,0
100918,12:08:34,993168739,test,2,0,50,6,56,0,804,20,66,0
100918,12:08:34,993168739,test,2,1,52,3,38,1,895,27,66,0
100918,12:08:34,993168739,test,2,1,54,4,55,0,788,25,66,1
100918,12:08:34,993168739,test,2,1,56,6,13,1,1648,30,66,1
100918,12:08:34,993168739,test,2,1,58,5,28,0,1194,28,66,0
100918,12:08:34,993168739,test,2,1,60,2,52,0,855,26,66,0
100918,12:08:34,993168739,test,2,0,62,2,69,0,887,26,62,0
100918,12:08:34,993168739,test,2,0,64,3,31,1,2258,26,64,0
100918,12:08:34,993168739,test,2,1,66,3,65,0,1021,25,64,1
100918,12:08:34,993168739,test,2,0,68,1,43,1,725,25,66,0
100918,12:08:34,993168739,test,2,1,70,6,46,1,823,29,66,0
100918,12:08:34,993168739,test,2,0,72,5,20,0,1135,29,63,0
100918,12:08:34,993168739,test,2,0,74,6,8,0,914,29,60,0
100918,12:08:34,993168739,test,2,0,76,2,40,0,1308,29,57,0
100918,12:08:34,993168739,test,2,1,78,4,66,1,1421,33,57,0
100918,12:08:34,993168739,test,2,0,80,3,14,0,907,33,54,0
100918,12:08:34,993168739,test,2,0,82,1,60,0,701,33,52,0
100918,12:08:34,993168739,test,2,0,84,5,30,1,836,33,54,0
100918,12:08:34,993168739,test,2,1,86,1,62,1,1121,36,54,0
100918,12:08:34,993168739,test,2,0,88,4,54,1,671,36,56,0
100918,12:08:34,993168739,test,2,1,90,3,47,0,1122,35,56,1
100918,12:08:34,993168739,test,2,0,92,2,53,0,1319,35,53,0
100918,12:08:34,993168739,test,2,0,94,1,39,1,681,35,55,0
100918,12:08:34,993168739,test,2,1,96,5,49,1,610,38,55,0
100918,12:08:34,993168739,test,2,0,98,4,1,0,553,38,53,0
100918,12:08:34,993168739,test,2,1,100,1,21,1,1777,40,53,0
100918,12:08:34,993168739,test,2,0,102,3,67,0,540,40,51,0
100918,12:08:34,993168739,test,2,1,104,2,27,1,692,43,51,0
100918,12:08:34,993168739,test,2,0,106,6,61,1,565,43,53,0
100918,12:08:34,993168739,test,2,1,108,6,2,1,918,45,53,0
100918,12:08:34,993168739,test,2,1,110,4,44,0,2460,44,53,1
100918,12:08:34,993168739,test,2,1,112,3,17,1,1029,46,53,0
100918,12:08:34,993168739,test,2,0,114,5,36,1,503,46,54,0
100918,12:08:34,993168739,test,2,1,116,2,68,1,905,48,54,0
100918,12:08:34,993168739,test,2,1,118,1,48,0,732,46,54,0
100918,12:08:34,993168739,test,2,0,120,6,45,0,639,46,53,0
100918,12:08:34,993168739,test,2,1,122,6,57,0,743,44,53,0
100918,12:08:34,993168739,test,2,1,124,4,58,0,726,43,53,0
100918,12:08:34,993168739,test,2,0,126,1,39,1,501,43,54,0
100918,12:08:34,993168739,test,2,1,128,5,16,0,926,41,54,0
100918,12:08:34,993168739,test,2,1,130,2,12,0,630,40,54,0
100918,12:08:34,993168739,test,2,1,132,5,20,0,800,39,54,1
100918,12:08:34,993168739,test,2,1,134,3,2,1,601,41,54,0
100918,12:08:34,993168739,test,2,0,136,4,49,1,742,41,55,0
100918,12:08:34,993168739,test,2,0,138,3,60,0,794,41,54,0
100918,12:08:34,993168739,test,2,1,140,6,25,0,1404,40,54,1
100918,12:08:34,993168739,test,2,0,142,2,5,0,757,40,52,0
100918,12:08:34,993168739,test,2,1,144,4,50,0,581,38,52,1
100918,10:19:51,466283845,test,2,1,2,2,27,1,1146,100,0,0
100918,10:19:51,466283845,test,2,1,4,6,65,0,689,50,0,0
100918,10:19:51,466283845,test,2,1,6,5,62,0,939,33,0,1
100918,10:19:51,466283845,test,2,1,8,4,14,0,787,25,0,0
100918,10:19:51,466283845,test,2,0,10,2,16,0,897,25,0,0
100918,10:19:51,466283845,test,2,1,12,2,42,0,723,20,0,0
100918,10:19:51,466283845,test,2,0,14,1,50,0,803,20,0,0
100918,10:19:51,466283845,test,2,0,16,5,48,1,745,20,33,1
100918,10:19:51,466283845,test,2,1,18,1,72,1,722,33,33,0
100918,10:19:51,466283845,test,2,0,20,2,7,1,658,33,50,0
100918,10:19:51,466283845,test,2,1,22,3,60,1,662,42,50,0
100918,10:19:51,466283845,test,2,1,24,4,29,1,1018,50,50,0
100918,10:19:51,466283845,test,2,0,26,4,39,1,678,50,60,0
100918,10:19:51,466283845,test,2,0,28,6,15,0,705,50,50,0
100918,10:19:51,466283845,test,2,0,30,3,33,1,739,50,57,0
100918,10:19:51,466283845,test,2,0,32,4,35,1,811,50,62,0
100918,10:19:51,466283845,test,2,0,34,5,68,1,1151,50,66,0
100918,10:19:51,466283845,test,2,1,36,6,25,1,662,55,66,0
100918,10:19:51,466283845,test,2,1,38,2,45,0,538,50,66,0
100918,10:19:51,466283845,test,2,1,40,5,71,0,658,45,66,0
100918,10:19:51,466283845,test,2,1,42,3,44,0,542,41,66,0
100918,10:19:51,466283845,test,2,0,44,2,22,1,558,41,70,0
100918,10:19:51,466283845,test,2,1,46,1,32,1,590,46,70,0
100918,10:19:51,466283845,test,2,1,48,5,11,1,517,50,70,0
100918,10:19:51,466283845,test,2,0,50,6,40,1,871,50,72,0
100918,10:19:51,466283845,test,2,1,52,3,5,1,905,53,72,0
100918,10:19:51,466283845,test,2,1,54,6,63,0,682,50,72,0
100918,10:19:51,466283845,test,2,1,56,1,67,0,661,47,72,0
100918,10:19:51,466283845,test,2,0,58,3,9,1,552,47,75,0
100918,10:19:51,466283845,test,2,1,60,2,47,0,713,44,75,0
100918,10:19:51,466283845,test,2,0,62,1,2,1,634,44,76,0
100918,10:19:51,466283845,test,2,0,64,4,54,1,527,44,78,0
100918,10:19:51,466283845,test,2,1,66,4,23,1,481,47,78,0
100918,10:19:51,466283845,test,2,0,68,6,66,1,556,47,80,0
100918,10:19:51,466283845,test,2,0,70,2,43,0,564,47,75,0
100918,10:19:51,466283845,test,2,0,72,3,31,0,588,47,70,0
100918,10:19:51,466283845,test,2,1,74,4,56,0,522,45,70,0
100918,10:19:51,466283845,test,2,1,76,3,10,0,716,42,70,0
100918,10:19:51,466283845,test,2,0,78,1,26,0,597,42,66,0
100918,10:19:51,466283845,test,2,0,80,5,59,0,627,42,63,1
100918,10:19:51,466283845,test,2,0,82,4,21,1,609,42,65,0
100918,10:19:51,466283845,test,2,1,84,2,52,0,775,40,65,0
100918,10:19:51,466283845,test,2,0,86,3,17,1,437,40,66,0
100918,10:19:51,466283845,test,2,1,88,5,1,0,530,39,66,0
100918,10:19:51,466283845,test,2,0,90,2,8,1,515,39,68,0
100918,10:19:51,466283845,test,2,1,92,1,58,1,805,41,68,0
100918,10:19:51,466283845,test,2,0,94,5,70,1,538,41,69,1
100918,10:19:51,466283845,test,2,0,96,6,24,1,564,41,70,0
100918,10:19:51,466283845,test,2,1,98,6,34,0,572,40,70,0
100918,10:19:51,466283845,test,2,0,100,1,36,1,483,40,72,0
100918,10:19:51,466283845,test,2,0,102,3,61,0,686,40,69,0
100918,10:19:51,466283845,test,2,0,104,4,28,1,737,40,70,1
100918,10:19:51,466283845,test,2,1,106,4,18,0,562,38,70,0
100918,10:19:51,466283845,test,2,1,108,3,49,1,882,40,70,1
100918,10:19:51,466283845,test,2,0,110,6,4,0,708,40,67,1
100918,10:19:51,466283845,test,2,0,112,2,46,1,559,40,68,0
100918,10:19:51,466283845,test,2,1,114,1,69,0,606,39,68,0
100918,10:19:51,466283845,test,2,0,116,1,12,0,604,39,66,0
100918,10:19:51,466283845,test,2,0,118,5,19,0,730,39,64,0
100918,10:19:51,466283845,test,2,1,120,2,3,0,1042,37,64,0
100918,10:19:51,466283845,test,2,1,122,6,6,1,566,40,64,0
100918,10:19:51,466283845,test,2,1,124,5,64,0,670,38,64,0
100918,10:19:51,466283845,test,2,0,126,6,12,0,593,38,62,0
100918,10:19:51,466283845,test,2,1,128,1,39,1,480,40,62,0
100918,10:19:51,466283845,test,2,1,130,3,11,1,531,42,62,0
100918,10:19:51,466283845,test,2,0,132,1,26,0,548,42,60,0
100918,10:19:51,466283845,test,2,1,134,2,9,1,533,44,60,0
100918,10:19:51,466283845,test,2,1,136,5,54,1,502,45,60,0
100918,10:19:51,466283845,test,2,0,138,5,68,1,729,45,61,0
100918,10:19:51,466283845,test,2,1,140,4,71,0,545,44,61,0
100918,10:19:51,466283845,test,2,0,142,4,30,1,514,44,62,0
100918,10:19:51,466283845,test,2,0,144,3,40,0,924,44,61,0
100918,13:18:02,703603455,test,2,0,2,3,69,0,1748,0,0,1
100918,13:18:02,703603455,test,2,0,4,2,52,0,952,0,0,0
100918,13:18:02,703603455,test,2,0,6,4,8,0,1002,0,0,0
100918,13:18:02,703603455,test,2,1,8,5,39,1,1178,100,0,0
100918,13:18:02,703603455,test,2,1,10,4,58,0,740,50,0,0
100918,13:18:02,703603455,test,2,0,12,1,71,0,752,50,0,0
100918,13:18:02,703603455,test,2,0,14,5,2,0,810,50,0,0
100918,13:18:02,703603455,test,2,0,16,6,24,1,819,50,16,0
100918,13:18:02,703603455,test,2,1,18,1,6,0,907,33,16,0
100918,13:18:02,703603455,test,2,0,20,3,3,1,959,33,28,0
100918,13:18:02,703603455,test,2,0,22,1,5,0,689,33,25,0
100918,13:18:02,703603455,test,2,1,24,3,47,0,734,25,25,0
100918,13:18:02,703603455,test,2,1,26,6,43,0,601,20,25,0
100918,13:18:02,703603455,test,2,1,28,5,19,0,666,16,25,0
100918,13:18:02,703603455,test,2,1,30,2,16,0,568,14,25,0
100918,13:18:02,703603455,test,2,0,32,5,72,1,713,14,33,0
100918,13:18:02,703603455,test,2,0,34,2,51,1,710,14,40,0
100918,13:18:02,703603455,test,2,0,36,4,18,0,787,14,36,0
100918,13:18:02,703603455,test,2,1,38,5,45,0,700,12,36,0
100918,13:18:02,703603455,test,2,1,40,4,12,1,809,22,36,0
100918,13:18:02,703603455,test,2,0,42,6,14,0,1073,22,33,0
100918,13:18:02,703603455,test,2,0,44,3,30,1,703,22,38,0
100918,13:18:02,703603455,test,2,0,46,2,7,0,700,22,35,0
100918,13:18:02,703603455,test,2,0,48,4,20,0,696,22,33,0
100918,13:18:02,703603455,test,2,0,50,5,9,1,597,22,37,0
100918,13:18:02,703603455,test,2,1,52,3,15,0,775,20,37,0
100918,13:18:02,703603455,test,2,1,54,6,26,0,721,18,37,0
100918,13:18:02,703603455,test,2,1,56,2,27,1,669,25,37,0
100918,13:18:02,703603455,test,2,1,58,1,53,0,699,23,37,0
100918,13:18:02,703603455,test,2,1,60,3,56,0,727,21,37,0
100918,13:18:02,703603455,test,2,1,62,1,46,1,562,26,37,0
100918,13:18:02,703603455,test,2,0,64,6,4,0,853,26,35,0
100918,13:18:02,703603455,test,2,1,66,5,22,1,652,31,35,0
100918,13:18:02,703603455,test,2,1,68,2,67,0,763,29,35,0
100918,13:18:02,703603455,test,2,0,70,1,50,0,726,29,33,0
100918,13:18:02,703603455,test,2,1,72,6,57,0,673,27,33,0
100918,13:18:02,703603455,test,2,1,74,4,13,1,655,31,33,0
100918,13:18:02,703603455,test,2,0,76,3,35,0,729,31,31,0
100918,13:18:02,703603455,test,2,1,78,2,10,0,762,30,31,0
100918,13:18:02,703603455,test,2,0,80,5,62,0,660,30,30,0
100918,13:18:02,703603455,test,2,0,82,2,11,1,658,30,33,0
100918,13:18:02,703603455,test,2,0,84,4,59,0,641,30,31,0
100918,13:18:02,703603455,test,2,1,86,5,25,1,736,33,31,0
100918,13:18:02,703603455,test,2,1,88,4,34,0,908,31,31,0
100918,13:18:02,703603455,test,2,0,90,3,65,0,832,31,30,0
100918,13:18:02,703603455,test,2,0,92,1,33,1,600,31,33,0
100918,13:18:02,703603455,test,2,0,94,6,36,1,568,31,36,0
100918,13:18:02,703603455,test,2,0,96,4,29,1,602,31,38,0
100918,13:18:02,703603455,test,2,1,98,6,63,0,811,30,38,0
100918,13:18:02,703603455,test,2,0,100,6,61,0,611,30,37,0
100918,13:18:02,703603455,test,2,0,102,5,48,0,740,30,35,0
100918,13:18:02,703603455,test,2,0,104,1,32,1,608,30,37,0
100918,13:18:02,703603455,test,2,0,106,3,55,0,719,30,36,0
100918,13:18:02,703603455,test,2,1,108,3,37,1,1067,33,36,0
100918,13:18:02,703603455,test,2,0,110,2,70,1,889,33,38,0
100918,13:18:02,703603455,test,2,1,112,1,31,0,735,32,38,0
100918,13:18:02,703603455,test,2,1,114,1,23,1,696,34,38,0
100918,13:18:02,703603455,test,2,1,116,6,1,0,645,33,38,0
100918,13:18:02,703603455,test,2,0,118,6,44,0,677,33,37,0
100918,13:18:02,703603455,test,2,1,120,3,41,0,867,32,37,0
100918,13:18:02,703603455,test,2,1,122,2,40,0,681,31,37,0
100918,13:18:02,703603455,test,2,1,124,5,28,0,711,30,37,0
100918,13:18:02,703603455,test,2,0,126,4,14,0,707,30,36,0
100918,13:18:02,703603455,test,2,1,128,4,59,0,657,29,36,0
100918,13:18:02,703603455,test,2,1,130,1,48,0,702,28,36,0
100918,13:18:02,703603455,test,2,1,132,5,23,1,523,30,36,0
100918,13:18:02,703603455,test,2,1,134,2,4,0,591,29,36,0
100918,13:18:02,703603455,test,2,0,136,1,29,1,608,29,38,0
100918,13:18:02,703603455,test,2,1,138,4,8,0,609,28,38,0
100918,13:18:02,703603455,test,2,0,140,3,13,1,801,28,40,0
100918,13:18:02,703603455,test,2,0,142,2,21,1,650,28,41,0
100918,13:18:02,703603455,test,2,1,144,6,3,1,537,30,41,0
100918,12:23:34,503719655,test,2,1,2,3,12,1,532,100,0,0
100918,12:23:34,503719655,test,2,1,4,2,20,0,427,50,0,0
100918,12:23:34,503719655,test,2,1,6,4,8,0,356,33,0,0
100918,12:23:34,503719655,test,2,0,8,4,72,1,299,33,100,0
100918,12:23:34,503719655,test,2,1,10,3,55,1,508,50,100,0
100918,12:23:34,503719655,test,2,0,12,5,47,1,202,50,100,0
100918,12:23:34,503719655,test,2,0,14,1,59,0,1449,50,66,0
100918,12:23:34,503719655,test,2,1,16,1,60,0,2070,40,66,0
100918,12:23:34,503719655,test,2,1,18,5,1,0,2011,33,66,0
100918,12:23:34,503719655,test,2,0,20,4,10,1,1685,33,75,0
100918,12:23:34,503719655,test,2,0,22,6,7,1,1108,33,80,0
100918,12:23:34,503719655,test,2,0,24,2,6,0,369,33,66,0
100918,12:23:34,503719655,test,2,1,26,6,70,0,384,28,66,0
100918,12:23:34,503719655,test,2,0,28,3,16,1,1582,28,71,0
100918,12:23:34,503719655,test,2,0,30,5,64,1,1620,28,75,0
100918,12:23:34,503719655,test,2,0,32,6,36,0,1933,28,66,0
100918,12:23:34,503719655,test,2,1,34,3,51,0,1244,25,66,0
100918,12:23:34,503719655,test,2,1,36,2,46,1,2526,33,66,0
100918,12:23:34,503719655,test,2,1,38,1,58,1,1440,40,66,0
100918,12:23:34,503719655,test,2,0,40,3,54,1,1309,40,70,0
100918,12:23:34,503719655,test,2,1,42,6,39,0,909,36,70,0
100918,12:23:34,503719655,test,2,0,44,2,2,0,787,36,63,0
100918,12:23:34,503719655,test,2,0,46,1,38,1,441,36,66,0
100918,12:23:34,503719655,test,2,1,48,4,37,1,1800,41,66,0
100918,12:23:34,503719655,test,2,1,50,5,49,0,1783,38,66,0
100918,12:23:34,503719655,test,2,1,52,1,15,0,3481,35,66,0
100918,12:23:34,503719655,test,2,1,54,6,13,1,690,40,66,0
100918,12:23:34,503719655,test,2,1,56,5,42,1,486,43,66,0
100918,12:23:34,503719655,test,2,0,58,4,32,1,513,43,69,0
100918,12:23:34,503719655,test,2,1,60,3,4,0,1610,41,69,0
100918,12:23:34,503719655,test,2,0,62,2,35,0,765,41,64,0
100918,12:23:34,503719655,test,2,0,64,1,65,0,798,41,60,0
100918,12:23:34,503719655,test,2,1,66,4,67,1,1344,44,60,0
100918,12:23:34,503719655,test,2,1,68,2,63,1,1477,47,60,0
100918,12:23:34,503719655,test,2,1,70,3,3,1,2548,50,60,0
100918,12:23:34,503719655,test,2,1,72,1,48,0,7280,47,60,0
100918,12:23:34,503719655,test,2,1,74,6,61,1,1909,50,60,0
100918,12:23:34,503719655,test,2,1,76,5,5,0,1399,47,60,0
100918,12:23:34,503719655,test,2,0,78,4,69,1,1932,47,62,0
100918,12:23:34,503719655,test,2,1,80,4,43,1,1107,50,62,0
100918,12:23:34,503719655,test,2,1,82,2,31,0,1341,48,62,0
100918,12:23:34,503719655,test,2,1,84,2,29,0,2061,46,62,0
100918,12:23:34,503719655,test,2,0,86,5,62,1,3685,46,64,0
100918,12:23:34,503719655,test,2,0,88,3,30,1,3080,46,66,0
100918,12:23:34,503719655,test,2,0,90,6,68,1,1940,46,68,0
100918,12:23:34,503719655,test,2,1,92,3,45,0,1153,44,68,0
100918,12:23:34,503719655,test,2,1,94,1,9,0,1022,42,68,0
100918,12:23:34,503719655,test,2,0,96,6,41,1,4855,42,70,0
100918,12:23:34,503719655,test,2,0,98,1,26,0,1560,42,66,0
100918,12:23:34,503719655,test,2,0,100,5,34,1,2114,42,68,0
100918,12:23:34,503719655,test,2,1,102,6,24,1,1912,44,68,0
100918,12:23:34,503719655,test,2,1,104,5,53,0,5872,43,68,0
100918,12:23:34,503719655,test,2,1,106,4,52,0,1107,41,68,0
100918,12:23:34,503719655,test,2,1,108,3,40,0,1052,40,68,0
100918,12:23:34,503719655,test,2,1,110,5,56,1,2368,42,68,0
100918,12:23:34,503719655,test,2,0,112,3,25,1,2109,42,69,0
100918,12:23:34,503719655,test,2,0,114,2,11,1,1444,42,70,0
100918,12:23:34,503719655,test,2,0,116,4,23,0,1539,42,68,0
100918,12:23:34,503719655,test,2,0,118,4,71,0,1447,42,65,0
100918,12:23:34,503719655,test,2,0,120,5,66,1,241,42,66,0
100918,12:23:34,503719655,test,2,0,122,1,27,1,231,42,67,0
100918,12:23:34,503719655,test,2,0,124,6,14,0,205,42,65,0
100918,12:23:34,503719655,test,2,0,126,2,55,0,53,42,63,0
100918,12:23:34,503719655,test,2,0,128,3,70,1,542,42,64,0
100918,12:23:34,503719655,test,2,1,130,6,56,1,1441,44,64,0
100918,12:23:34,503719655,test,2,0,132,3,17,0,1044,44,62,0
100918,12:23:34,503719655,test,2,1,134,1,11,0,1165,42,62,0
100918,12:23:34,503719655,test,2,1,136,4,38,1,961,44,62,0
100918,12:23:34,503719655,test,2,0,138,5,10,0,1274,44,60,0
100918,12:23:34,503719655,test,2,0,140,4,66,1,1693,44,61,0
100918,12:23:34,503719655,test,2,0,142,2,49,1,3450,44,62,0
100918,12:23:34,503719655,test,2,0,144,6,15,0,1634,44,61,0
100918,13:16:45,71968352,test,2,1,2,2,72,1,362,100,0,0
100918,13:16:45,71968352,test,2,1,4,4,24,0,141,50,0,0
100918,13:16:45,71968352,test,2,1,6,5,4,0,275,33,0,0
100918,13:16:45,71968352,test,2,1,8,1,60,0,278,25,0,0
100918,13:16:45,71968352,test,2,0,10,1,57,1,404,25,100,0
100918,13:16:45,71968352,test,2,0,12,6,71,1,293,25,100,0
100918,13:16:45,71968352,test,2,0,14,4,61,1,287,25,100,0
100918,13:16:45,71968352,test,2,1,16,3,32,0,421,20,100,0
100918,13:16:45,71968352,test,2,0,18,3,33,1,176,20,100,0
100918,13:16:45,71968352,test,2,0,20,2,28,1,195,20,100,0
100918,13:16:45,71968352,test,2,0,22,1,30,1,173,20,100,0
100918,13:16:45,71968352,test,2,1,24,6,27,1,276,33,100,0
100918,13:16:45,71968352,test,2,0,26,5,43,0,198,33,85,0
100918,13:16:45,71968352,test,2,1,28,2,65,1,156,42,85,0
100918,13:16:45,71968352,test,2,0,30,6,58,1,189,42,87,0
100918,13:16:45,71968352,test,2,1,32,1,50,1,225,50,87,0
100918,13:16:45,71968352,test,2,1,34,5,59,1,219,55,87,0
100918,13:16:45,71968352,test,2,0,36,5,49,0,278,55,77,0
100918,13:16:45,71968352,test,2,1,38,4,66,0,144,50,77,0
100918,13:16:45,71968352,test,2,1,40,2,47,1,190,54,77,0
100918,13:16:45,71968352,test,2,0,42,4,2,1,138,54,80,0
100918,13:16:45,71968352,test,2,1,44,3,8,1,163,58,80,0
100918,13:16:45,71968352,test,2,0,46,1,26,1,179,58,81,0
100918,13:16:45,71968352,test,2,1,48,6,11,1,322,61,81,0
100918,13:16:45,71968352,test,2,0,50,3,36,0,205,61,75,0
100918,13:16:45,71968352,test,2,1,52,2,37,1,246,64,75,0
100918,13:16:45,71968352,test,2,1,54,3,51,1,200,66,75,0
100918,13:16:45,71968352,test,2,1,56,6,42,1,210,68,75,0
100918,13:16:45,71968352,test,2,0,58,2,70,0,162,68,69,0
100918,13:16:45,71968352,test,2,0,60,4,13,1,155,68,71,0
100918,13:16:45,71968352,test,2,1,62,4,17,0,290,64,71,0
100918,13:16:45,71968352,test,2,0,64,1,10,0,61,64,66,0
100918,13:16:45,71968352,test,2,0,66,5,9,1,209,64,68,0
100918,13:16:45,71968352,test,2,0,68,6,12,0,188,64,64,0
100918,13:16:45,71968352,test,2,0,70,2,22,1,191,64,66,0
100918,13:16:45,71968352,test,2,0,72,3,67,1,228,64,68,0
100918,13:16:45,71968352,test,2,0,74,6,34,0,238,64,65,0
100918,13:16:45,71968352,test,2,1,76,1,69,0,333,61,65,0
100918,13:16:45,71968352,test,2,1,78,5,64,1,212,63,65,0
100918,13:16:45,71968352,test,2,1,80,5,20,1,189,65,65,0
100918,13:16:45,71968352,test,2,1,82,3,46,0,266,61,65,0
100918,13:16:45,71968352,test,2,0,84,4,5,1,294,61,66,0
100918,13:16:45,71968352,test,2,0,86,2,18,1,208,61,68,0
100918,13:16:45,71968352,test,2,1,88,4,54,1,472,63,68,0
100918,13:16:45,71968352,test,2,1,90,2,23,1,174,65,68,0
100918,13:16:45,71968352,test,2,0,92,1,19,0,360,65,65,0
100918,13:16:45,71968352,test,2,0,94,3,55,1,276,65,66,0
100918,13:16:45,71968352,test,2,1,96,1,25,1,166,66,66,0
100918,13:16:45,71968352,test,2,0,98,5,16,1,178,66,68,0
100918,13:16:45,71968352,test,2,1,100,6,29,1,340,68,68,0
100918,13:16:45,71968352,test,2,1,102,3,15,1,195,69,68,0
100918,13:16:45,71968352,test,2,0,104,5,44,1,209,69,69,0
100918,13:16:45,71968352,test,2,0,106,4,63,1,118,69,70,0
100918,13:16:45,71968352,test,2,1,108,4,40,1,160,70,70,0
100918,13:16:45,71968352,test,2,1,110,5,3,1,143,71,70,0
100918,13:16:45,71968352,test,2,1,112,6,56,1,168,72,70,0
100918,13:16:45,71968352,test,2,0,114,6,31,1,189,72,71,0
100918,13:16:45,71968352,test,2,1,116,1,7,1,178,73,71,0
100918,13:16:45,71968352,test,2,0,118,1,39,0,154,73,68,0
100918,13:16:45,71968352,test,2,1,120,2,14,1,133,74,68,0
100918,13:16:45,71968352,test,2,1,122,5,6,1,151,75,68,0
100918,13:16:45,71968352,test,2,1,124,4,62,1,39,75,68,0
100918,13:16:45,71968352,test,2,0,126,3,34,1,169,75,70,0
100918,13:16:45,71968352,test,2,1,128,3,71,1,175,76,70,0
100918,13:16:45,71968352,test,2,0,130,2,59,1,137,76,70,0
100918,13:16:45,71968352,test,2,1,132,1,22,0,445,74,70,0
100918,13:16:45,71968352,test,2,0,134,5,58,0,299,74,68,0
100918,13:16:45,71968352,test,2,0,136,3,10,0,159,74,66,0
100918,13:16:45,71968352,test,2,1,138,2,15,0,178,72,66,0
100918,13:16:45,71968352,test,2,0,140,2,63,0,159,72,64,0
100918,13:16:45,71968352,test,2,0,142,6,30,1,191,72,65,0
100918,13:16:45,71968352,test,2,0,144,4,36,1,156,72,66,0
100918,13:30:27,850346999,test,2,1,2,4,69,0,504,0,0,0
100918,13:30:27,850346999,test,2,1,4,6,67,0,409,0,0,1
100918,13:30:27,850346999,test,2,1,6,3,11,0,350,0,0,0
100918,13:30:27,850346999,test,2,0,8,4,18,1,336,0,100,1
100918,13:30:27,850346999,test,2,0,10,6,36,0,463,0,50,0
100918,13:30:27,850346999,test,2,1,12,2,13,0,394,0,50,1
100918,13:30:27,850346999,test,2,0,14,4,6,0,435,0,33,0
100918,13:30:27,850346999,test,2,0,16,2,40,1,902,0,50,1
100918,13:30:27,850346999,test,2,0,18,1,37,1,377,0,60,1
100918,13:30:27,850346999,test,2,1,20,1,3,0,340,0,60,1
100918,13:30:27,850346999,test,2,1,22,5,61,0,290,0,60,1
100918,13:30:27,850346999,test,2,0,24,5,51,1,365,0,66,0
100918,13:30:27,850346999,test,2,0,26,3,4,1,938,0,71,1
100918,13:30:27,850346999,test,2,1,28,4,12,0,407,0,71,1
100918,13:30:27,850346999,test,2,0,30,5,16,1,539,0,75,1
100918,13:30:27,850346999,test,2,0,32,1,25,0,422,0,66,0
100918,13:30:27,850346999,test,2,0,34,6,48,1,397,0,70,1
100918,13:30:27,850346999,test,2,1,36,5,65,0,366,0,70,1
100918,13:30:27,850346999,test,2,1,38,4,1,0,282,0,70,1
100918,13:30:27,850346999,test,2,1,40,3,49,0,277,0,70,1
100918,13:30:27,850346999,test,2,1,42,1,24,0,297,0,70,1
100918,13:30:27,850346999,test,2,0,44,3,31,1,400,0,72,1
100918,13:30:27,850346999,test,2,0,46,4,5,1,305,0,75,0
100918,13:30:27,850346999,test,2,1,48,2,50,0,285,0,75,1
100918,13:30:27,850346999,test,2,1,50,6,22,0,501,0,75,1
100918,13:30:27,850346999,test,2,0,52,2,35,1,506,0,76,0
100918,13:30:27,850346999,test,2,1,54,3,7,0,426,0,76,0
100918,13:30:27,850346999,test,2,1,56,4,68,0,337,0,76,1
100918,13:30:27,850346999,test,2,0,58,4,43,1,331,0,78,1
100918,13:30:27,850346999,test,2,1,60,6,56,0,685,0,78,1
100918,13:30:27,850346999,test,2,0,62,2,20,1,384,0,80,0
100918,13:30:27,850346999,test,2,1,64,5,59,0,343,0,80,0
100918,13:30:27,850346999,test,2,1,66,1,29,0,381,0,80,0
100918,13:30:27,850346999,test,2,0,68,5,15,1,373,0,81,1
100918,13:30:27,850346999,test,2,1,70,2,47,0,293,0,81,0
100918,13:30:27,850346999,test,2,0,72,1,70,1,349,0,82,1
100918,13:30:27,850346999,test,2,0,74,3,32,0,404,0,77,0
100918,13:30:27,850346999,test,2,0,76,6,19,0,418,0,73,0
100918,13:30:27,850346999,test,2,1,78,1,27,0,432,0,73,1
100918,13:30:27,850346999,test,2,0,80,1,28,1,510,0,75,0
100918,13:30:27,850346999,test,2,0,82,4,8,1,309,0,76,1
100918,13:30:27,850346999,test,2,1,84,3,30,1,760,4,76,1
100918,13:30:27,850346999,test,2,0,86,2,72,0,553,4,72,0
100918,13:30:27,850346999,test,2,0,88,3,66,1,477,4,73,1
100918,13:30:27,850346999,test,2,1,90,4,9,0,383,4,73,0
100918,13:30:27,850346999,test,2,1,92,6,53,0,311,4,73,1
100918,13:30:27,850346999,test,2,0,94,6,34,0,254,4,70,0
100918,13:30:27,850346999,test,2,0,96,5,10,1,412,4,72,1
100918,13:30:27,850346999,test,2,0,98,2,17,0,1167,4,69,0
100918,13:30:27,850346999,test,2,0,100,5,2,0,673,4,66,0
100918,13:30:27,850346999,test,2,1,102,5,63,0,542,4,66,1
100918,13:30:27,850346999,test,2,0,104,1,57,1,404,4,67,1
100918,13:30:27,850346999,test,2,1,106,2,41,0,267,4,67,1
100918,13:30:27,850346999,test,2,1,108,4,55,0,235,3,67,1
100918,13:30:27,850346999,test,2,1,110,1,23,0,300,3,67,1
100918,13:30:27,850346999,test,2,1,112,3,14,0,241,3,67,1
100918,13:30:27,850346999,test,2,1,114,5,46,0,276,3,67,0
100918,13:30:27,850346999,test,2,1,116,6,52,0,747,3,67,1
100918,13:30:27,850346999,test,2,0,118,3,45,1,281,3,68,0
100918,13:30:27,850346999,test,2,0,120,6,26,1,307,3,70,1
100918,13:30:27,850346999,test,2,1,122,2,62,0,297,3,70,1
100918,13:30:27,850346999,test,2,1,124,3,38,0,219,3,70,1
100918,13:30:27,850346999,test,2,0,126,4,33,1,494,3,70,1
100918,13:30:27,850346999,test,2,1,128,2,29,0,236,3,70,1
100918,13:30:27,850346999,test,2,1,130,5,42,0,196,2,70,1
100918,13:30:27,850346999,test,2,1,132,4,51,0,181,2,70,1
100918,13:30:27,850346999,test,2,0,134,2,62,1,383,2,71,1
100918,13:30:27,850346999,test,2,0,136,6,3,1,355,2,72,1
100918,13:30:27,850346999,test,2,0,138,4,35,1,288,2,73,1
100918,13:30:27,850346999,test,2,1,140,1,1,0,294,2,73,1
100918,13:30:27,850346999,test,2,0,142,5,36,1,283,2,74,1
100918,13:30:27,850346999,test,2,0,144,3,52,1,446,2,75,1
100918,13:30:03,844835202,test,2,1,2,5,58,1,1859,100,0,1
100918,13:30:03,844835202,test,2,1,4,6,46,0,753,50,0,0
100918,13:30:03,844835202,test,2,1,6,2,70,1,769,66,0,0
100918,13:30:03,844835202,test,2,0,8,1,33,1,1132,66,100,0
100918,13:30:03,844835202,test,2,1,10,1,61,1,1123,75,100,1
100918,13:30:03,844835202,test,2,0,12,5,20,0,903,75,50,0
100918,13:30:03,844835202,test,2,1,14,4,5,0,1051,60,50,0
100918,13:30:03,844835202,test,2,0,16,6,22,1,1150,60,66,0
100918,13:30:03,844835202,test,2,1,18,3,15,0,1310,50,66,0
100918,13:30:03,844835202,test,2,1,20,5,67,0,1540,42,66,0
100918,13:30:03,844835202,test,2,1,22,5,36,0,956,37,66,0
100918,13:30:03,844835202,test,2,0,24,4,32,1,1082,37,75,0
100918,13:30:03,844835202,test,2,1,26,4,60,0,1274,33,75,0
100918,13:30:03,844835202,test,2,0,28,1,37,0,1408,33,60,0
100918,13:30:03,844835202,test,2,0,30,2,47,0,1236,33,50,0
100918,13:30:03,844835202,test,2,1,32,1,19,1,1469,40,50,0
100918,13:30:03,844835202,test,2,0,34,3,63,1,646,40,57,0
100918,13:30:03,844835202,test,2,1,36,2,66,1,786,45,57,0
100918,13:30:03,844835202,test,2,0,38,6,40,0,666,45,50,0
100918,13:30:03,844835202,test,2,0,40,4,59,0,2118,45,44,0
100918,13:30:03,844835202,test,2,1,42,6,24,1,677,50,44,0
100918,13:30:03,844835202,test,2,0,44,3,13,0,791,50,40,0
100918,13:30:03,844835202,test,2,0,46,5,6,1,515,50,45,0
100918,13:30:03,844835202,test,2,0,48,2,42,1,409,50,50,0
100918,13:30:03,844835202,test,2,1,50,3,39,1,471,53,50,0
100918,13:30:03,844835202,test,2,1,52,4,16,0,525,50,50,0
100918,13:30:03,844835202,test,2,1,54,3,25,0,785,46,50,0
100918,13:30:03,844835202,test,2,0,56,1,34,0,490,46,46,0
100918,13:30:03,844835202,test,2,1,58,5,57,0,1030,43,46,0
100918,13:30:03,844835202,test,2,1,60,6,49,1,506,47,46,1
100918,13:30:03,844835202,test,2,0,62,5,9,1,585,47,50,0
100918,13:30:03,844835202,test,2,1,64,1,1,0,559,44,50,0
100918,13:30:03,844835202,test,2,0,66,4,21,1,744,44,53,0
100918,13:30:03,844835202,test,2,0,68,6,45,0,545,44,50,0
100918,13:30:03,844835202,test,2,1,70,2,8,0,795,42,50,0
100918,13:30:03,844835202,test,2,0,72,3,72,0,5452,42,47,0
100918,13:30:03,844835202,test,2,0,74,1,68,1,584,42,50,0
100918,13:30:03,844835202,test,2,0,76,2,26,0,483,42,47,0
100918,13:30:03,844835202,test,2,1,78,3,62,0,560,40,47,0
100918,13:30:03,844835202,test,2,1,80,6,31,0,532,38,47,0
100918,13:30:03,844835202,test,2,0,82,2,14,0,563,38,45,0
100918,13:30:03,844835202,test,2,1,84,1,52,0,495,36,45,0
100918,13:30:03,844835202,test,2,1,86,4,29,1,560,39,45,0
100918,13:30:03,844835202,test,2,0,88,1,69,1,759,39,47,0
100918,13:30:03,844835202,test,2,0,90,3,17,1,562,39,50,0
100918,13:30:03,844835202,test,2,1,92,5,50,0,485,37,50,0
100918,13:30:03,844835202,test,2,0,94,6,18,0,644,37,47,0
100918,13:30:03,844835202,test,2,0,96,5,64,0,407,37,45,0
100918,13:30:03,844835202,test,2,0,98,4,53,0,415,37,44,0
100918,13:30:03,844835202,test,2,1,100,2,2,1,888,40,44,0
100918,13:30:03,844835202,test,2,0,102,5,54,0,427,40,42,0
100918,13:30:03,844835202,test,2,1,104,5,38,1,482,42,42,0
100918,13:30:03,844835202,test,2,0,106,2,11,0,692,42,40,0
100918,13:30:03,844835202,test,2,1,108,1,12,0,694,40,40,0
100918,13:30:03,844835202,test,2,0,110,6,41,0,483,40,39,0
100918,13:30:03,844835202,test,2,1,112,4,3,1,610,42,39,0
100918,13:30:03,844835202,test,2,0,114,3,48,0,518,42,37,0
100918,13:30:03,844835202,test,2,0,116,4,56,0,479,42,36,0
100918,13:30:03,844835202,test,2,1,118,3,44,0,530,41,36,0
100918,13:30:03,844835202,test,2,1,120,6,28,0,591,40,36,0
100918,13:30:03,844835202,test,2,0,122,1,10,0,454,40,35,0
100918,13:30:03,844835202,test,2,1,124,2,27,1,441,41,35,0
100918,13:30:03,844835202,test,2,1,126,5,2,1,367,43,35,0
100918,13:30:03,844835202,test,2,1,128,3,67,1,471,45,35,0
100918,13:30:03,844835202,test,2,0,130,3,66,1,512,45,37,0
100918,13:30:03,844835202,test,2,0,132,1,53,0,613,45,36,0
100918,13:30:03,844835202,test,2,0,134,4,64,0,513,45,35,0
100918,13:30:03,844835202,test,2,1,136,4,5,0,912,44,35,0
100918,13:30:03,844835202,test,2,0,138,2,13,1,474,44,37,0
100918,13:30:03,844835202,test,2,0,140,5,18,1,500,44,38,0
100918,13:30:03,844835202,test,2,1,142,6,26,1,462,45,38,0
100918,13:30:03,844835202,test,2,1,144,2,50,1,544,47,38,0
100918,13:30:45,234778349,test,2,0,2,1,48,1,648,0,100,0
100918,13:30:45,234778349,test,2,0,4,5,20,1,674,0,100,0
100918,13:30:45,234778349,test,2,1,6,6,58,1,490,100,100,0
100918,13:30:45,234778349,test,2,1,8,2,53,0,814,50,100,0
100918,13:30:45,234778349,test,2,1,10,1,67,0,622,33,100,0
100918,13:30:45,234778349,test,2,0,12,4,1,1,963,33,100,0
100918,13:30:45,234778349,test,2,0,14,3,65,0,1919,33,75,1
100918,13:30:45,234778349,test,2,0,16,6,35,1,547,33,80,0
100918,13:30:45,234778349,test,2,1,18,4,59,1,464,50,80,0
100918,13:30:45,234778349,test,2,1,20,6,60,0,815,40,80,0
100918,13:30:45,234778349,test,2,1,22,3,6,0,1127,33,80,0
100918,13:30:45,234778349,test,2,1,24,5,4,1,437,42,80,0
100918,13:30:45,234778349,test,2,1,26,1,30,1,644,50,80,0
100918,13:30:45,234778349,test,2,1,28,3,64,1,521,55,80,0
100918,13:30:45,234778349,test,2,1,30,2,7,0,508,50,80,0
100918,13:30:45,234778349,test,2,1,32,4,23,0,531,45,80,0
100918,13:30:45,234778349,test,2,1,34,5,69,1,590,50,80,0
100918,13:30:45,234778349,test,2,1,36,6,27,0,792,46,80,0
100918,13:30:45,234778349,test,2,1,38,1,72,0,988,42,80,0
100918,13:30:45,234778349,test,2,0,40,1,38,0,678,42,66,0
100918,13:30:45,234778349,test,2,1,42,6,55,1,754,46,66,0
100918,13:30:45,234778349,test,2,1,44,3,62,1,516,50,66,0
100918,13:30:45,234778349,test,2,1,46,4,3,1,1065,52,66,0
100918,13:30:45,234778349,test,2,0,48,2,50,1,1214,52,71,0
100918,13:30:45,234778349,test,2,0,50,3,11,0,628,52,62,0
100918,13:30:45,234778349,test,2,0,52,4,54,1,704,52,66,0
100918,13:30:45,234778349,test,2,0,54,5,66,0,1676,52,60,1
100918,13:30:45,234778349,test,2,0,56,6,24,0,1143,52,54,0
100918,13:30:45,234778349,test,2,1,58,5,70,0,1441,50,54,0
100918,13:30:45,234778349,test,2,1,60,2,47,1,506,52,54,0
100918,13:30:45,234778349,test,2,0,62,1,40,1,835,52,58,0
100918,13:30:45,234778349,test,2,0,64,2,37,1,411,52,61,0
100918,13:30:45,234778349,test,2,1,66,6,45,1,591,55,61,0
100918,13:30:45,234778349,test,2,1,68,2,56,1,779,57,61,0
100918,13:30:45,234778349,test,2,0,70,6,15,1,843,57,64,0
100918,13:30:45,234778349,test,2,1,72,4,71,1,493,59,64,0
100918,13:30:45,234778349,test,2,1,74,1,12,1,503,60,64,0
100918,13:30:45,234778349,test,2,0,76,1,43,0,715,60,60,0
100918,13:30:45,234778349,test,2,1,78,3,44,1,755,62,60,0
100918,13:30:45,234778349,test,2,1,80,5,2,0,748,60,60,0
100918,13:30:45,234778349,test,2,1,82,2,22,0,547,57,60,0
100918,13:30:45,234778349,test,2,0,84,3,49,1,880,57,62,0
100918,13:30:45,234778349,test,2,0,86,4,10,1,771,57,64,0
100918,13:30:45,234778349,test,2,1,88,5,33,0,594,55,64,0
100918,13:30:45,234778349,test,2,0,90,2,13,0,555,55,61,0
100918,13:30:45,234778349,test,2,1,92,6,34,1,382,57,61,0
100918,13:30:45,234778349,test,2,1,94,1,25,0,654,55,61,0
100918,13:30:45,234778349,test,2,1,96,4,8,1,926,56,61,0
100918,13:30:45,234778349,test,2,0,98,5,32,1,669,56,63,0
100918,13:30:45,234778349,test,2,0,100,2,39,0,700,56,60,0
100918,13:30:45,234778349,test,2,0,102,6,36,0,1089,56,57,0
100918,13:30:45,234778349,test,2,1,104,3,52,1,1084,58,57,0
100918,13:30:45,234778349,test,2,0,106,4,41,1,644,58,59,0
100918,13:30:45,234778349,test,2,0,108,5,63,1,528,58,60,0
100918,13:30:45,234778349,test,2,1,110,1,42,1,496,59,60,0
100918,13:30:45,234778349,test,2,0,112,3,46,0,435,59,58,0
100918,13:30:45,234778349,test,2,1,114,6,29,0,647,57,58,0
100918,13:30:45,234778349,test,2,0,116,1,28,1,406,57,60,0
100918,13:30:45,234778349,test,2,0,118,6,19,1,699,57,61,0
100918,13:30:45,234778349,test,2,0,120,2,61,0,811,57,59,0
100918,13:30:45,234778349,test,2,0,122,5,17,0,585,57,57,0
100918,13:30:45,234778349,test,2,1,124,3,51,1,466,58,57,0
100918,13:30:45,234778349,test,2,0,126,4,30,1,659,58,58,0
100918,13:30:45,234778349,test,2,0,128,3,45,1,441,58,60,0
100918,13:30:45,234778349,test,2,0,130,1,41,1,562,58,61,0
100918,13:30:45,234778349,test,2,0,132,6,36,0,757,58,59,0
100918,13:30:45,234778349,test,2,0,134,5,56,1,398,58,60,0
100918,13:30:45,234778349,test,2,0,136,2,26,1,488,58,61,0
100918,13:30:45,234778349,test,2,1,138,2,64,1,757,60,61,0
100918,13:30:45,234778349,test,2,1,140,4,7,0,494,58,61,0
100918,13:30:45,234778349,test,2,0,142,1,35,0,790,58,60,0
100918,13:30:45,234778349,test,2,0,144,3,69,1,439,58,61,0
100918,13:32:18,805394460,test,2,0,2,5,45,1,570,0,100,1
100918,13:32:18,805394460,test,2,1,4,2,58,1,1362,100,100,1
100918,13:32:18,805394460,test,2,0,6,4,50,0,686,100,50,1
100918,13:32:18,805394460,test,2,0,8,6,15,1,997,100,66,1
100918,13:32:18,805394460,test,2,0,10,5,27,1,671,100,75,1
100918,13:32:18,805394460,test,2,0,12,2,66,0,1176,100,60,1
100918,13:32:18,805394460,test,2,1,14,2,48,0,988,50,60,1
100918,13:32:18,805394460,test,2,1,16,1,29,1,901,66,60,1
100918,13:32:18,805394460,test,2,1,18,6,61,0,814,50,60,1
100918,13:32:18,805394460,test,2,1,20,3,64,0,769,40,60,1
100918,13:32:18,805394460,test,2,1,22,4,34,0,769,33,60,1
100918,13:32:18,805394460,test,2,1,24,5,21,1,861,42,60,1
100918,13:32:18,805394460,test,2,1,26,6,62,0,1067,37,60,1
100918,13:32:18,805394460,test,2,0,28,3,32,1,593,37,66,1
100918,13:32:18,805394460,test,2,0,30,1,24,1,717,37,71,1
100918,13:32:18,805394460,test,2,0,32,2,47,0,785,37,62,1
100918,13:32:18,805394460,test,2,1,34,3,14,0,803,33,62,1
100918,13:32:18,805394460,test,2,0,36,3,37,1,467,33,66,1
100918,13:32:18,805394460,test,2,0,38,4,11,1,606,33,70,1
100918,13:32:18,805394460,test,2,1,40,5,31,0,725,30,70,1
100918,13:32:18,805394460,test,2,1,42,4,53,1,1144,36,70,0
100918,13:32:18,805394460,test,2,0,44,1,23,0,471,36,63,1
100918,13:32:18,805394460,test,2,0,46,6,67,1,867,36,66,1
100918,13:32:18,805394460,test,2,0,48,5,65,0,727,36,61,1
100918,13:32:18,805394460,test,2,0,50,1,19,0,965,36,57,1
100918,13:32:18,805394460,test,2,0,52,4,30,1,816,36,60,1
100918,13:32:18,805394460,test,2,1,54,1,44,0,706,33,60,1
100918,13:32:18,805394460,test,2,1,56,2,46,1,731,38,60,1
100918,13:32:18,805394460,test,2,0,58,3,51,1,585,38,62,1
100918,13:32:18,805394460,test,2,1,60,5,6,1,1050,42,62,1
100918,13:32:18,805394460,test,2,0,62,5,1,0,909,42,58,1
100918,13:32:18,805394460,test,2,0,64,2,2,1,494,42,61,1
100918,13:32:18,805394460,test,2,1,66,3,59,0,637,40,61,1
100918,13:32:18,805394460,test,2,1,68,1,33,0,599,37,61,1
100918,13:32:18,805394460,test,2,1,70,2,63,0,886,35,61,1
100918,13:32:18,805394460,test,2,1,72,6,70,0,744,33,61,1
100918,13:32:18,805394460,test,2,1,74,4,17,1,466,36,61,1
100918,13:32:18,805394460,test,2,0,76,6,35,0,1259,36,57,1
100918,13:32:18,805394460,test,2,1,78,2,3,1,694,40,57,1
100918,13:32:18,805394460,test,2,0,80,2,39,1,467,40,60,1
100918,13:32:18,805394460,test,2,0,82,3,8,0,611,40,57,1
100918,13:32:18,805394460,test,2,0,84,6,4,0,754,40,54,1
100918,13:32:18,805394460,test,2,1,86,1,22,0,864,38,54,1
100918,13:32:18,805394460,test,2,1,88,5,5,0,491,36,54,1
100918,13:32:18,805394460,test,2,1,90,4,49,1,567,39,54,1
100918,13:32:18,805394460,test,2,1,92,3,16,0,654,37,54,1
100918,13:32:18,805394460,test,2,0,94,1,12,0,729,37,52,1
100918,13:32:18,805394460,test,2,0,96,5,71,1,781,37,54,1
100918,13:32:18,805394460,test,2,0,98,4,38,1,898,37,56,1
100918,13:32:18,805394460,test,2,1,100,6,68,1,879,40,56,1
100918,13:32:18,805394460,test,2,1,102,3,9,1,578,42,56,1
100918,13:32:18,805394460,test,2,0,104,3,40,1,661,42,57,1
100918,13:32:18,805394460,test,2,1,106,4,69,0,485,40,57,1
100918,13:32:18,805394460,test,2,1,108,1,36,1,503,42,57,1
100918,13:32:18,805394460,test,2,0,110,2,25,0,477,42,55,1
100918,13:32:18,805394460,test,2,1,112,5,52,0,712,41,55,1
100918,13:32:18,805394460,test,2,1,114,6,26,0,409,40,55,1
100918,13:32:18,805394460,test,2,0,116,6,43,0,587,40,53,1
100918,13:32:18,805394460,test,2,1,118,2,13,0,869,38,53,1
100918,13:32:18,805394460,test,2,0,120,4,20,0,848,38,51,1
100918,13:32:18,805394460,test,2,0,122,1,56,0,502,38,50,1
100918,13:32:18,805394460,test,2,1,124,4,18,1,827,40,50,1
100918,13:32:18,805394460,test,2,1,126,3,65,0,469,39,50,1
100918,13:32:18,805394460,test,2,1,128,1,4,0,429,38,50,1
100918,13:32:18,805394460,test,2,0,130,5,71,0,579,38,48,1
100918,13:32:18,805394460,test,2,1,132,5,12,0,486,37,48,1
100918,13:32:18,805394460,test,2,1,134,2,36,1,478,38,48,1
100918,13:32:18,805394460,test,2,0,136,1,33,0,558,38,46,1
100918,13:32:18,805394460,test,2,0,138,6,32,0,606,38,45,1
100918,13:32:18,805394460,test,2,0,140,3,19,0,715,38,44,1
100918,13:32:18,805394460,test,2,0,142,2,72,0,491,38,42,1
100918,13:32:18,805394460,test,2,0,144,4,64,0,528,38,41,1
100918,10:33:32,843794323,test,2,0,2,1,12,0,1458,0,0,1
100918,10:33:32,843794323,test,2,1,4,4,59,1,849,100,0,0
100918,10:33:32,843794323,test,2,1,6,1,1,1,871,100,0,0
100918,10:33:32,843794323,test,2,1,8,3,19,0,611,66,0,1
100918,10:33:32,843794323,test,2,0,10,3,25,1,858,66,50,0
100918,10:33:32,843794323,test,2,1,12,4,29,1,712,75,50,0
100918,10:33:32,843794323,test,2,1,14,6,36,0,608,60,50,0
100918,10:33:32,843794323,test,2,0,16,6,13,0,744,60,33,0
100918,10:33:32,843794323,test,2,1,18,5,58,0,603,50,33,0
100918,10:33:32,843794323,test,2,0,20,2,50,1,659,50,50,1
100918,10:33:32,843794323,test,2,0,22,1,57,1,867,50,60,0
100918,10:33:32,843794323,test,2,0,24,4,46,1,699,50,66,0
100918,10:33:32,843794323,test,2,0,26,5,5,0,698,50,57,0
100918,10:33:32,843794323,test,2,0,28,4,52,1,696,50,62,1
100918,10:33:32,843794323,test,2,1,30,2,37,0,734,42,62,1
100918,10:33:32,843794323,test,2,1,32,5,3,0,759,37,62,1
100918,10:33:32,843794323,test,2,1,34,6,6,0,925,33,62,1
100918,10:33:32,843794323,test,2,0,36,6,61,1,776,33,66,0
100918,10:33:32,843794323,test,2,0,38,1,9,0,1007,33,60,0
100918,10:33:32,843794323,test,2,1,40,3,28,0,973,30,60,1
100918,10:33:32,843794323,test,2,0,42,5,43,1,685,30,63,0
100918,10:33:32,843794323,test,2,0,44,2,30,1,589,30,66,0
100918,10:33:32,843794323,test,2,0,46,3,45,1,830,30,69,1
100918,10:33:32,843794323,test,2,1,48,1,26,1,917,36,69,0
100918,10:33:32,843794323,test,2,0,50,6,55,1,873,36,71,0
100918,10:33:32,843794323,test,2,1,52,2,27,1,873,41,71,0
100918,10:33:32,843794323,test,2,0,54,3,23,0,742,41,66,0
100918,10:33:32,843794323,test,2,1,56,4,39,0,659,38,66,0
100918,10:33:32,843794323,test,2,0,58,5,69,1,640,38,68,0
100918,10:33:32,843794323,test,2,1,60,1,53,1,724,42,68,0
100918,10:33:32,843794323,test,2,0,62,2,11,1,566,42,70,0
100918,10:33:32,843794323,test,2,1,64,4,18,1,579,46,70,0
100918,10:33:32,843794323,test,2,0,66,1,4,1,562,46,72,0
100918,10:33:32,843794323,test,2,0,68,4,68,1,594,46,73,0
100918,10:33:32,843794323,test,2,1,70,5,24,0,518,43,73,1
100918,10:33:32,843794323,test,2,0,72,6,41,1,580,43,75,0
100918,10:33:32,843794323,test,2,0,74,1,20,1,796,43,76,0
100918,10:33:32,843794323,test,2,1,76,3,2,0,779,41,76,1
100918,10:33:32,843794323,test,2,0,78,4,31,1,534,41,77,0
100918,10:33:32,843794323,test,2,1,80,2,56,1,741,44,77,0
100918,10:33:32,843794323,test,2,1,82,6,38,1,618,47,77,0
100918,10:33:32,843794323,test,2,1,84,3,48,1,702,50,77,0
100918,10:33:32,843794323,test,2,1,86,5,71,0,594,47,77,0
100918,10:33:32,843794323,test,2,0,88,5,16,1,676,47,78,0
100918,10:33:32,843794323,test,2,1,90,2,35,0,574,45,78,0
100918,10:33:32,843794323,test,2,0,92,3,10,1,773,45,79,0
100918,10:33:32,843794323,test,2,0,94,2,22,1,509,45,80,0
100918,10:33:32,843794323,test,2,0,96,1,67,1,564,45,80,0
100918,10:33:32,843794323,test,2,1,98,4,70,0,504,43,80,1
100918,10:33:32,843794323,test,2,1,100,6,33,1,484,45,80,0
100918,10:33:32,843794323,test,2,0,102,3,63,1,567,45,81,0
100918,10:33:32,843794323,test,2,0,104,2,51,0,580,45,78,0
100918,10:33:32,843794323,test,2,1,106,1,66,0,576,44,78,1
100918,10:33:32,843794323,test,2,0,108,5,72,1,493,44,79,0
100918,10:33:32,843794323,test,2,0,110,4,44,1,521,44,80,0
100918,10:33:32,843794323,test,2,1,112,5,47,0,524,42,80,1
100918,10:33:32,843794323,test,2,1,114,1,8,0,671,40,80,0
100918,10:33:32,843794323,test,2,1,116,4,64,1,631,42,80,0
100918,10:33:32,843794323,test,2,1,118,6,15,0,747,41,80,0
100918,10:33:32,843794323,test,2,1,120,2,14,1,1013,43,80,0
100918,10:33:32,843794323,test,2,1,122,3,42,0,532,41,80,0
100918,10:33:32,843794323,test,2,1,124,2,7,0,762,40,80,0
100918,10:33:32,843794323,test,2,0,126,6,72,1,515,40,80,0
100918,10:33:32,843794323,test,2,1,128,3,19,0,633,39,80,0
100918,10:33:32,843794323,test,2,1,130,6,69,0,527,38,80,0
100918,10:33:32,843794323,test,2,0,132,2,12,1,647,38,81,0
100918,10:33:32,843794323,test,2,0,134,4,9,1,722,38,81,0
100918,10:33:32,843794323,test,2,0,136,5,23,1,592,38,82,0
100918,10:33:32,843794323,test,2,0,138,3,54,1,632,38,82,0
100918,10:33:32,843794323,test,2,1,140,1,3,0,614,37,82,1
100918,10:33:32,843794323,test,2,0,142,6,48,1,554,37,83,0
100918,10:33:32,843794323,test,2,1,144,4,39,0,653,36,83,0
100918,13:38:44,435991174,test,2,1,2,1,8,0,994,0,0,1
100918,13:38:44,435991174,test,2,0,4,1,35,1,867,0,100,1
100918,13:38:44,435991174,test,2,0,6,2,17,1,1082,0,100,1
100918,13:38:44,435991174,test,2,1,8,4,49,0,328,0,100,1
100918,13:38:44,435991174,test,2,1,10,6,31,0,388,0,100,1
100918,13:38:44,435991174,test,2,1,12,5,24,0,317,0,100,1
100918,13:38:44,435991174,test,2,1,14,3,13,0,330,0,100,1
100918,13:38:44,435991174,test,2,0,16,5,64,1,326,0,100,1
100918,13:38:44,435991174,test,2,0,18,3,16,1,290,0,100,1
100918,13:38:44,435991174,test,2,1,20,2,36,0,272,0,100,1
100918,13:38:44,435991174,test,2,0,22,1,59,1,254,0,100,1
100918,13:38:44,435991174,test,2,1,24,1,1,0,268,0,100,1
100918,13:38:44,435991174,test,2,1,26,5,51,0,251,0,100,1
100918,13:38:44,435991174,test,2,1,28,6,27,0,234,0,100,1
100918,13:38:44,435991174,test,2,0,30,6,11,1,313,0,100,1
100918,13:38:44,435991174,test,2,0,32,4,6,1,342,0,100,1
100918,13:38:44,435991174,test,2,1,34,3,32,0,274,0,100,1
100918,13:38:44,435991174,test,2,1,36,4,70,0,240,0,100,1
100918,13:38:44,435991174,test,2,0,38,1,21,1,223,0,100,1
100918,13:38:44,435991174,test,2,0,40,3,43,1,303,0,100,1
100918,13:38:44,435991174,test,2,0,42,2,2,1,252,0,100,1
100918,13:38:44,435991174,test,2,1,44,1,10,0,235,0,100,1
100918,13:38:44,435991174,test,2,1,46,2,5,0,875,0,100,1
100918,13:38:44,435991174,test,2,0,48,4,46,1,225,0,100,1
100918,13:38:44,435991174,test,2,0,50,5,3,1,225,0,100,1
100918,13:38:44,435991174,test,2,1,52,4,26,0,513,0,100,1
100918,13:38:44,435991174,test,2,0,54,6,29,1,230,0,100,1
100918,13:38:44,435991174,test,2,0,56,4,41,1,166,0,100,1
100918,13:38:44,435991174,test,2,0,58,6,72,1,216,0,100,1
100918,13:38:44,435991174,test,2,0,60,5,47,1,217,0,100,1
100918,13:38:44,435991174,test,2,1,62,2,33,0,281,0,100,1
100918,13:38:44,435991174,test,2,0,64,3,18,1,231,0,100,1
100918,13:38:44,435991174,test,2,0,66,2,22,1,407,0,100,1
100918,13:38:44,435991174,test,2,1,68,5,28,0,176,0,100,1
100918,13:38:44,435991174,test,2,1,70,1,37,0,578,0,100,1
100918,13:38:44,435991174,test,2,1,72,6,66,0,212,0,100,1
100918,13:38:44,435991174,test,2,0,74,1,50,1,149,0,100,1
100918,13:38:44,435991174,test,2,1,76,3,38,0,232,0,100,1
100918,13:38:44,435991174,test,2,1,78,2,19,0,360,0,100,1
100918,13:38:44,435991174,test,2,1,80,4,12,0,195,0,100,1
100918,13:38:44,435991174,test,2,1,82,5,4,0,213,0,100,1
100918,13:38:44,435991174,test,2,0,84,5,15,1,165,0,100,1
100918,13:38:44,435991174,test,2,0,86,2,23,1,264,0,100,1
100918,13:38:44,435991174,test,2,0,88,1,67,1,215,0,100,1
100918,13:38:44,435991174,test,2,1,90,3,61,0,231,0,100,1
100918,13:38:44,435991174,test,2,1,92,1,65,0,168,0,100,1
100918,13:38:44,435991174,test,2,1,94,6,62,0,154,0,100,1
100918,13:38:44,435991174,test,2,0,96,3,53,1,93,0,100,1
100918,13:38:44,435991174,test,2,0,98,4,54,1,354,0,100,1
100918,13:38:44,435991174,test,2,0,100,6,52,1,205,0,100,1
100918,13:38:44,435991174,test,2,0,102,5,63,1,126,0,100,1
100918,13:38:44,435991174,test,2,1,104,3,56,0,290,0,100,1
100918,13:38:44,435991174,test,2,0,106,4,39,1,224,0,100,1
100918,13:38:44,435991174,test,2,1,108,1,71,0,192,0,100,1
100918,13:38:44,435991174,test,2,1,110,2,68,0,241,0,100,1
100918,13:38:44,435991174,test,2,1,112,5,57,0,193,0,100,1
100918,13:38:44,435991174,test,2,1,114,6,34,0,130,0,100,1
100918,13:38:44,435991174,test,2,0,116,6,60,1,183,0,100,1
100918,13:38:44,435991174,test,2,1,118,4,44,0,216,0,100,1
100918,13:38:44,435991174,test,2,1,120,2,9,0,280,0,100,1
100918,13:38:44,435991174,test,2,1,122,5,20,0,215,0,100,1
100918,13:38:44,435991174,test,2,1,124,4,69,0,215,0,100,1
100918,13:38:44,435991174,test,2,1,126,1,53,0,120,0,100,1
100918,13:38:44,435991174,test,2,0,128,1,55,1,333,0,100,1
100918,13:38:44,435991174,test,2,0,130,2,68,1,152,0,100,1
100918,13:38:44,435991174,test,2,0,132,3,6,1,219,0,100,1
100918,13:38:44,435991174,test,2,0,134,4,23,1,235,0,100,1
100918,13:38:44,435991174,test,2,0,136,5,12,1,235,0,100,1
100918,13:38:44,435991174,test,2,1,138,6,3,0,202,0,100,1
100918,13:38:44,435991174,test,2,0,140,2,71,1,267,0,100,1
100918,13:38:44,435991174,test,2,0,142,1,34,1,265,0,100,1
100918,13:38:44,435991174,test,2,0,144,3,38,1,136,0,100,1
100918,13:39:05,48667600,test,2,0,2,1,8,0,5768,0,0,1
100918,13:39:05,48667600,test,2,0,4,1,46,0,1420,0,0,0
100918,13:39:05,48667600,test,2,0,6,6,22,1,8207,0,33,1
100918,13:39:05,48667600,test,2,1,8,5,35,1,1346,100,33,1
100918,13:39:05,48667600,test,2,0,10,4,71,0,1272,100,25,1
100918,13:39:05,48667600,test,2,1,12,4,30,1,1728,100,25,1
100918,13:39:05,48667600,test,2,1,14,5,40,1,721,100,25,1
100918,13:39:05,48667600,test,2,1,16,6,50,1,574,100,25,1
100918,13:39:05,48667600,test,2,1,18,3,58,1,880,100,25,1
100918,13:39:05,48667600,test,2,1,20,2,25,0,2235,83,25,1
100918,13:39:05,48667600,test,2,0,22,3,43,0,2397,83,20,0
100918,13:39:05,48667600,test,2,0,24,2,13,1,2829,83,33,1
100918,13:39:05,48667600,test,2,1,26,1,2,0,1657,71,33,1
100918,13:39:05,48667600,test,2,1,28,1,9,0,2119,62,33,0
100918,13:39:05,48667600,test,2,0,30,5,66,0,2169,62,28,1
100918,13:39:05,48667600,test,2,1,32,3,38,0,3194,55,28,1
100918,13:39:05,48667600,test,2,1,34,2,3,0,1903,50,28,0
100918,13:39:05,48667600,test,2,1,36,5,62,0,2131,45,28,1
100918,13:39:05,48667600,test,2,1,38,4,5,1,1783,50,28,1
100918,13:39:05,48667600,test,2,0,40,1,21,0,1292,50,25,1
100918,13:39:05,48667600,test,2,1,42,6,32,0,1360,46,25,1
100918,13:39:05,48667600,test,2,0,44,2,31,0,1482,46,22,1
100918,13:39:05,48667600,test,2,1,46,5,57,0,1465,42,22,1
100918,13:39:05,48667600,test,2,0,48,4,36,0,2045,42,20,1
100918,13:39:05,48667600,test,2,0,50,3,4,0,1362,42,18,1
100918,13:39:05,48667600,test,2,1,52,2,44,0,1696,40,18,1
100918,13:39:05,48667600,test,2,0,54,6,63,1,1618,40,25,1
100918,13:39:05,48667600,test,2,0,56,5,23,1,1037,40,30,1
100918,13:39:05,48667600,test,2,0,58,1,24,0,1552,40,28,1
100918,13:39:05,48667600,test,2,1,60,3,28,0,2229,37,28,1
100918,13:39:05,48667600,test,2,0,62,4,65,0,1337,37,26,1
100918,13:39:05,48667600,test,2,1,64,6,52,0,1396,35,26,1
100918,13:39:05,48667600,test,2,0,66,3,16,0,1318,35,25,1
100918,13:39:05,48667600,test,2,0,68,5,1,1,2051,35,29,1
100918,13:39:05,48667600,test,2,1,70,4,42,0,1192,33,29,1
100918,13:39:05,48667600,test,2,0,72,6,54,1,1415,33,33,1
100918,13:39:05,48667600,test,2,0,74,2,48,0,1339,33,31,1
100918,13:39:05,48667600,test,2,1,76,1,20,1,1458,36,31,1
100918,13:39:05,48667600,test,2,0,78,3,47,1,1432,36,35,1
100918,13:39:05,48667600,test,2,0,80,1,17,1,1343,36,38,1
100918,13:39:05,48667600,test,2,1,82,4,53,1,1297,40,38,1
100918,13:39:05,48667600,test,2,1,84,2,10,0,2309,38,38,1
100918,13:39:05,48667600,test,2,0,86,6,12,1,1567,38,40,1
100918,13:39:05,48667600,test,2,1,88,6,33,1,1819,40,40,1
100918,13:39:05,48667600,test,2,1,90,5,67,1,4063,43,40,1
100918,13:39:05,48667600,test,2,1,92,3,72,1,1462,45,40,1
100918,13:39:05,48667600,test,2,0,94,4,6,0,2334,45,39,1
100918,13:39:05,48667600,test,2,0,96,5,69,0,1781,45,37,1
100918,13:39:05,48667600,test,2,0,98,2,11,1,2401,45,40,0
100918,13:39:05,48667600,test,2,0,100,4,18,0,1389,45,38,1
100918,13:39:05,48667600,test,2,0,102,5,51,0,1688,45,37,1
100918,13:39:05,48667600,test,2,1,104,1,37,1,1324,48,37,1
100918,13:39:05,48667600,test,2,1,106,2,68,1,1017,50,37,1
100918,13:39:05,48667600,test,2,1,108,3,60,1,1592,51,37,1
100918,13:39:05,48667600,test,2,0,110,2,61,1,1158,51,39,1
100918,13:39:05,48667600,test,2,1,112,1,56,1,1710,53,39,1
100918,13:39:05,48667600,test,2,0,114,6,59,1,1418,53,41,1
100918,13:39:05,48667600,test,2,0,116,3,26,0,1123,53,40,1
100918,13:39:05,48667600,test,2,0,118,1,27,1,3365,53,41,1
100918,13:39:05,48667600,test,2,1,120,4,29,1,1803,55,41,1
100918,13:39:05,48667600,test,2,0,122,3,19,1,4408,55,43,1
100918,13:39:05,48667600,test,2,1,124,6,45,1,1222,56,43,1
100918,13:39:05,48667600,test,2,0,126,4,68,1,4179,56,45,1
100918,13:39:05,48667600,test,2,1,128,5,72,1,984,58,45,1
100918,13:39:05,48667600,test,2,1,130,5,46,1,857,59,45,1
100918,13:39:05,48667600,test,2,1,132,3,8,1,783,60,45,1
100918,13:39:05,48667600,test,2,0,134,6,52,1,789,60,47,1
100918,13:39:05,48667600,test,2,0,136,2,58,1,764,60,48,1
100918,13:39:05,48667600,test,2,1,138,6,62,1,1237,61,48,1
100918,13:39:05,48667600,test,2,0,140,1,53,0,4558,61,47,1
100918,13:39:05,48667600,test,2,1,142,4,44,0,1256,60,47,1
100918,13:39:05,48667600,test,2,1,144,1,10,0,887,58,47,1
100918,10:44:51,473763569,test,2,0,2,4,56,0,1989,0,0,0
100918,10:44:51,473763569,test,2,0,4,4,30,1,1377,0,50,1
100918,10:44:51,473763569,test,2,0,6,2,63,1,524,0,66,1
100918,10:44:51,473763569,test,2,1,8,1,52,1,525,100,66,1
100918,10:44:51,473763569,test,2,1,10,6,23,1,1755,100,66,0
100918,10:44:51,473763569,test,2,1,12,3,50,1,1090,100,66,1
100918,10:44:51,473763569,test,2,0,14,3,21,1,2047,100,75,1
100918,10:44:51,473763569,test,2,1,16,5,53,1,1527,100,75,1
100918,10:44:51,473763569,test,2,0,18,6,4,1,1198,100,80,1
100918,10:44:51,473763569,test,2,0,20,5,72,1,816,100,83,1
100918,10:44:51,473763569,test,2,0,22,1,45,1,398,100,85,1
100918,10:44:51,473763569,test,2,0,24,6,29,1,522,100,87,1
100918,10:44:51,473763569,test,2,1,26,4,57,1,821,100,87,1
100918,10:44:51,473763569,test,2,1,28,2,16,0,1130,83,87,0
100918,10:44:51,473763569,test,2,1,30,1,1,0,1329,71,87,0
100918,10:44:51,473763569,test,2,1,32,4,62,1,606,75,87,0
100918,10:44:51,473763569,test,2,0,34,2,22,0,1453,75,77,0
100918,10:44:51,473763569,test,2,0,36,5,9,0,2285,75,70,0
100918,10:44:51,473763569,test,2,0,38,4,43,1,857,75,72,1
100918,10:44:51,473763569,test,2,0,40,1,5,1,636,75,75,1
100918,10:44:51,473763569,test,2,0,42,3,40,1,660,75,76,1
100918,10:44:51,473763569,test,2,0,44,5,46,0,1022,75,71,1
100918,10:44:51,473763569,test,2,0,46,4,68,1,543,75,73,1
100918,10:44:51,473763569,test,2,1,48,6,8,1,1385,77,73,1
100918,10:44:51,473763569,test,2,1,50,3,10,1,1005,80,73,1
100918,10:44:51,473763569,test,2,0,52,3,59,1,647,80,75,0
100918,10:44:51,473763569,test,2,0,54,1,6,1,918,80,76,1
100918,10:44:51,473763569,test,2,0,56,6,14,1,731,80,77,0
100918,10:44:51,473763569,test,2,0,58,2,70,1,787,80,78,1
100918,10:44:51,473763569,test,2,1,60,2,47,1,1227,81,78,0
100918,10:44:51,473763569,test,2,0,62,1,71,1,677,81,80,0
100918,10:44:51,473763569,test,2,1,64,5,44,1,759,83,80,0
100918,10:44:51,473763569,test,2,0,66,5,37,1,517,83,80,0
100918,10:44:51,473763569,test,2,1,68,1,49,1,526,84,80,0
100918,10:44:51,473763569,test,2,1,70,4,64,1,1195,85,80,0
100918,10:44:51,473763569,test,2,1,72,2,17,1,2731,86,80,1
100918,10:44:51,473763569,test,2,1,74,5,51,1,482,87,80,0
100918,10:44:51,473763569,test,2,0,76,4,35,1,1287,87,81,0
100918,10:44:51,473763569,test,2,1,78,1,33,1,1921,88,81,0
100918,10:44:51,473763569,test,2,1,80,6,18,1,1899,88,81,0
100918,10:44:51,473763569,test,2,1,82,3,36,1,3733,89,81,0
100918,10:44:51,473763569,test,2,0,84,2,24,1,1819,89,82,1
100918,10:44:51,473763569,test,2,1,86,4,39,1,5589,90,82,0
100918,10:44:51,473763569,test,2,1,88,5,27,1,1393,90,82,0
100918,10:44:51,473763569,test,2,0,90,6,61,1,1044,90,83,1
100918,10:44:51,473763569,test,2,1,92,2,34,1,930,90,83,1
100918,10:44:51,473763569,test,2,1,94,6,32,1,670,91,83,0
100918,10:44:51,473763569,test,2,1,96,1,2,1,7115,91,83,1
100918,10:44:51,473763569,test,2,0,98,3,48,1,4795,91,84,1
100918,10:44:51,473763569,test,2,0,100,6,15,1,324,91,84,1
100918,10:44:51,473763569,test,2,0,102,1,67,1,2935,91,85,0
100918,10:44:51,473763569,test,2,1,104,3,31,1,686,92,85,1
100918,10:44:51,473763569,test,2,1,106,4,60,1,237,92,85,0
100918,10:44:51,473763569,test,2,1,108,6,7,1,2063,92,85,1
100918,10:44:51,473763569,test,2,0,110,2,28,1,631,92,85,0
100918,10:44:51,473763569,test,2,0,112,3,66,1,1393,92,86,1
100918,10:44:51,473763569,test,2,1,114,5,25,1,5681,92,86,0
100918,10:44:51,473763569,test,2,0,116,4,38,1,4263,92,86,1
100918,10:44:51,473763569,test,2,0,118,5,54,1,1412,92,87,0
100918,10:44:51,473763569,test,2,0,120,3,20,1,1116,92,87,0
100918,10:44:51,473763569,test,2,1,122,3,58,0,569,89,87,0
100918,10:44:51,473763569,test,2,0,124,2,13,0,766,89,84,0
100918,10:44:51,473763569,test,2,1,126,2,40,0,1013,86,84,0
100918,10:44:51,473763569,test,2,1,128,1,16,0,927,83,84,0
100918,10:44:51,473763569,test,2,0,130,6,54,1,774,83,85,0
100918,10:44:51,473763569,test,2,1,132,2,72,0,1118,81,85,0
100918,10:44:51,473763569,test,2,0,134,5,19,1,641,81,85,0
100918,10:44:51,473763569,test,2,0,136,4,39,1,383,81,86,1
100918,10:44:51,473763569,test,2,1,138,4,31,1,312,81,86,0
100918,10:44:51,473763569,test,2,1,140,1,23,1,567,82,86,0
100918,10:44:51,473763569,test,2,1,142,3,6,1,620,82,86,0
100918,10:44:51,473763569,test,2,1,144,6,32,1,858,83,86,0
100918,13:54:18,54382068,test,2,1,2,3,51,0,796,0,0,0
100918,13:54:18,54382068,test,2,0,4,4,69,0,990,0,0,0
100918,13:54:18,54382068,test,2,0,6,2,18,1,1112,0,50,0
100918,13:54:18,54382068,test,2,1,8,4,30,1,907,50,50,0
100918,13:54:18,54382068,test,2,0,10,5,17,1,1063,50,66,0
100918,13:54:18,54382068,test,2,1,12,2,41,1,934,66,66,0
100918,13:54:18,54382068,test,2,0,14,1,61,0,690,66,50,0
100918,13:54:18,54382068,test,2,1,16,5,31,0,874,50,50,0
100918,13:54:18,54382068,test,2,1,18,3,49,1,780,60,50,0
100918,13:54:18,54382068,test,2,0,20,3,59,1,739,60,60,0
100918,13:54:18,54382068,test,2,0,22,6,55,1,915,60,66,0
100918,13:54:18,54382068,test,2,0,24,4,19,1,846,60,71,0
100918,13:54:18,54382068,test,2,1,26,1,65,1,730,66,71,0
100918,13:54:18,54382068,test,2,0,28,4,16,0,735,66,62,0
100918,13:54:18,54382068,test,2,0,30,1,7,1,933,66,66,0
100918,13:54:18,54382068,test,2,0,32,6,43,0,814,66,60,0
100918,13:54:18,54382068,test,2,0,34,3,67,1,846,66,63,0
100918,13:54:18,54382068,test,2,0,36,5,24,0,894,66,58,0
100918,13:54:18,54382068,test,2,1,38,6,52,1,844,71,58,0
100918,13:54:18,54382068,test,2,1,40,3,34,1,1006,75,58,0
100918,13:54:18,54382068,test,2,1,42,2,44,0,604,66,58,0
100918,13:54:18,54382068,test,2,1,44,4,60,0,895,60,58,0
100918,13:54:18,54382068,test,2,0,46,2,6,1,730,60,61,0
100918,13:54:18,54382068,test,2,1,48,1,46,1,917,63,61,0
100918,13:54:18,54382068,test,2,1,50,5,23,0,753,58,61,0
100918,13:54:18,54382068,test,2,1,52,6,22,1,751,61,61,0
100918,13:54:18,54382068,test,2,0,54,6,70,1,917,61,64,0
100918,13:54:18,54382068,test,2,1,56,1,63,0,759,57,64,0
100918,13:54:18,54382068,test,2,1,58,3,66,1,543,60,64,0
100918,13:54:18,54382068,test,2,0,60,2,42,0,1088,60,60,0
100918,13:54:18,54382068,test,2,1,62,5,20,0,699,56,60,0
100918,13:54:18,54382068,test,2,0,64,1,13,1,553,56,62,0
100918,13:54:18,54382068,test,2,1,66,6,35,1,876,58,62,0
100918,13:54:18,54382068,test,2,0,68,3,1,1,684,58,64,0
100918,13:54:18,54382068,test,2,1,70,4,11,1,784,61,64,0
100918,13:54:18,54382068,test,2,0,72,5,50,0,826,61,61,0
100918,13:54:18,54382068,test,2,0,74,4,8,1,746,61,63,0
100918,13:54:18,54382068,test,2,1,76,2,12,1,946,63,63,0
100918,13:54:18,54382068,test,2,1,78,5,54,1,767,65,63,0
100918,13:54:18,54382068,test,2,1,80,3,3,0,679,61,63,0
100918,13:54:18,54382068,test,2,0,82,3,72,1,656,61,65,0
100918,13:54:18,54382068,test,2,1,84,2,32,1,731,63,65,0
100918,13:54:18,54382068,test,2,1,86,1,53,1,823,65,65,0
100918,13:54:18,54382068,test,2,1,88,4,47,0,790,62,65,0
100918,13:54:18,54382068,test,2,0,90,4,4,1,817,62,66,0
100918,13:54:18,54382068,test,2,0,92,2,5,1,844,62,68,0
100918,13:54:18,54382068,test,2,1,94,6,71,1,671,64,68,0
100918,13:54:18,54382068,test,2,0,96,5,33,0,830,64,65,0
100918,13:54:18,54382068,test,2,0,98,6,9,0,1291,64,62,0
100918,13:54:18,54382068,test,2,0,100,1,28,1,643,64,64,0
100918,13:54:18,54382068,test,2,0,102,1,25,1,689,64,65,0
100918,13:54:18,54382068,test,2,0,104,5,27,1,768,64,66,0
100918,13:54:18,54382068,test,2,0,106,4,58,1,667,64,67,0
100918,13:54:18,54382068,test,2,1,108,6,40,1,626,65,67,0
100918,13:54:18,54382068,test,2,1,110,1,14,1,620,66,67,0
100918,13:54:18,54382068,test,2,0,112,2,57,1,714,66,68,0
100918,13:54:18,54382068,test,2,0,114,6,39,0,496,66,66,0
100918,13:54:18,54382068,test,2,1,116,5,64,0,668,64,66,0
100918,13:54:18,54382068,test,2,0,118,3,29,0,734,64,64,0
100918,13:54:18,54382068,test,2,1,120,3,48,1,527,65,64,0
100918,13:54:18,54382068,test,2,1,122,2,36,1,692,66,64,0
100918,13:54:18,54382068,test,2,1,124,4,26,1,618,67,64,0
100918,13:54:18,54382068,test,2,1,126,5,66,1,817,68,64,0
100918,13:54:18,54382068,test,2,1,128,4,59,0,612,66,64,0
100918,13:54:18,54382068,test,2,0,130,5,35,1,591,66,65,0
100918,13:54:18,54382068,test,2,0,132,3,22,0,698,66,63,0
100918,13:54:18,54382068,test,2,1,134,2,11,0,2112,64,63,0
100918,13:54:18,54382068,test,2,0,136,4,20,1,723,64,64,0
100918,13:54:18,54382068,test,2,0,138,2,49,1,661,64,65,0
100918,13:54:18,54382068,test,2,0,140,6,5,1,628,64,66,0
100918,13:54:18,54382068,test,2,1,142,1,23,0,636,62,66,0
100918,13:54:18,54382068,test,2,1,144,3,39,0,625,61,66,0
100918,14:00:19,84752084,test,2,1,2,4,58,1,3285,100,0,1
100918,14:00:19,84752084,test,2,1,4,6,45,0,1238,50,0,0
100918,14:00:19,84752084,test,2,1,6,3,69,1,1232,66,0,0
100918,14:00:19,84752084,test,2,1,8,1,18,0,2160,50,0,1
100918,14:00:19,84752084,test,2,0,10,5,5,1,1045,50,100,0
100918,14:00:19,84752084,test,2,0,12,4,41,1,1437,50,100,0
100918,14:00:19,84752084,test,2,1,14,2,27,0,807,40,100,0
100918,14:00:19,84752084,test,2,0,16,5,20,1,1405,40,100,0
100918,14:00:19,84752084,test,2,0,18,2,31,1,765,40,100,0
100918,14:00:19,84752084,test,2,0,20,3,15,1,1822,40,100,0
100918,14:00:19,84752084,test,2,1,22,5,43,1,1718,50,100,1
100918,14:00:19,84752084,test,2,1,24,4,12,0,664,42,100,0
100918,14:00:19,84752084,test,2,1,26,4,53,0,1112,37,100,0
100918,14:00:19,84752084,test,2,0,28,6,6,0,1246,37,83,1
100918,14:00:19,84752084,test,2,0,30,1,29,1,1062,37,85,1
100918,14:00:19,84752084,test,2,0,32,4,61,1,1047,37,87,0
100918,14:00:19,84752084,test,2,1,34,2,67,0,1283,33,87,0
100918,14:00:19,84752084,test,2,1,36,5,72,0,1863,30,87,1
100918,14:00:19,84752084,test,2,1,38,6,4,1,884,36,87,1
100918,14:00:19,84752084,test,2,0,40,1,26,1,1537,36,88,0
100918,14:00:19,84752084,test,2,0,42,6,16,0,1210,36,80,0
100918,14:00:19,84752084,test,2,0,44,2,51,1,1060,36,81,1
100918,14:00:19,84752084,test,2,1,46,3,54,1,1372,41,81,0
100918,14:00:19,84752084,test,2,0,48,5,60,0,713,41,75,1
100918,14:00:19,84752084,test,2,1,50,1,33,1,1625,46,75,0
100918,14:00:19,84752084,test,2,0,52,3,47,0,810,46,69,1
100918,14:00:19,84752084,test,2,1,54,6,71,0,4507,42,69,0
100918,14:00:19,84752084,test,2,1,56,4,14,0,704,40,69,1
100918,14:00:19,84752084,test,2,0,58,1,28,1,1096,40,71,1
100918,14:00:19,84752084,test,2,1,60,3,13,0,605,37,71,0
100918,14:00:19,84752084,test,2,0,62,6,9,1,2271,37,73,1
100918,14:00:19,84752084,test,2,0,64,2,19,0,854,37,68,1
100918,14:00:19,84752084,test,2,1,66,1,50,0,1012,35,68,0
100918,14:00:19,84752084,test,2,1,68,5,25,1,1261,38,68,1
100918,14:00:19,84752084,test,2,1,70,2,57,1,954,42,68,0
100918,14:00:19,84752084,test,2,1,72,3,34,0,3027,40,68,0
100918,14:00:19,84752084,test,2,0,74,5,37,1,601,40,70,0
100918,14:00:19,84752084,test,2,0,76,4,59,1,460,40,72,0
100918,14:00:19,84752084,test,2,1,78,1,2,0,962,38,72,0
100918,14:00:19,84752084,test,2,1,80,5,68,0,1447,36,72,1
100918,14:00:19,84752084,test,2,1,82,2,24,0,980,34,72,0
100918,14:00:19,84752084,test,2,1,84,6,1,0,807,33,72,0
100918,14:00:19,84752084,test,2,0,86,3,42,1,845,33,73,0
100918,14:00:19,84752084,test,2,0,88,4,40,1,828,33,75,0
100918,14:00:19,84752084,test,2,0,90,5,39,1,827,33,76,1
100918,14:00:19,84752084,test,2,0,92,2,62,0,1547,33,72,1
100918,14:00:19,84752084,test,2,0,94,6,55,1,1501,33,73,1
100918,14:00:19,84752084,test,2,1,96,4,49,0,1048,32,73,1
100918,14:00:19,84752084,test,2,1,98,6,65,0,992,30,73,0
100918,14:00:19,84752084,test,2,0,100,3,70,1,1144,30,75,0
100918,14:00:19,84752084,test,2,1,102,5,10,0,554,29,75,0
100918,14:00:19,84752084,test,2,1,104,2,11,0,676,28,75,1
100918,14:00:19,84752084,test,2,1,106,3,35,1,913,31,75,0
100918,14:00:19,84752084,test,2,0,108,1,30,0,1189,31,72,1
100918,14:00:19,84752084,test,2,0,110,2,23,1,917,31,73,1
100918,14:00:19,84752084,test,2,1,112,4,44,0,953,30,73,1
100918,14:00:19,84752084,test,2,1,114,1,64,0,963,29,73,1
100918,14:00:19,84752084,test,2,1,116,1,56,1,1220,31,73,1
100918,14:00:19,84752084,test,2,0,118,3,66,1,2252,31,74,1
100918,14:00:19,84752084,test,2,0,120,5,8,0,1001,31,71,0
100918,14:00:19,84752084,test,2,0,122,6,36,0,1040,31,68,1
100918,14:00:19,84752084,test,2,0,124,4,21,1,816,31,70,0
100918,14:00:19,84752084,test,2,0,126,1,14,0,456,31,67,1
100918,14:00:19,84752084,test,2,1,128,3,68,0,1085,30,67,0
100918,14:00:19,84752084,test,2,1,130,4,41,1,964,32,67,1
100918,14:00:19,84752084,test,2,0,132,5,23,0,1956,32,65,0
100918,14:00:19,84752084,test,2,0,134,3,46,1,591,32,66,0
100918,14:00:19,84752084,test,2,0,136,4,6,1,798,32,67,0
100918,14:00:19,84752084,test,2,1,138,5,21,0,424,31,67,1
100918,14:00:19,84752084,test,2,0,140,2,57,1,1295,31,68,0
100918,14:00:19,84752084,test,2,1,142,6,60,0,707,30,68,0
100918,14:00:19,84752084,test,2,0,144,1,15,1,943,30,69,1
100918,14:04:02,577900158,test,2,1,2,3,54,0,746,0,0,0
100918,14:04:02,577900158,test,2,0,4,6,5,1,887,0,100,0
100918,14:04:02,577900158,test,2,0,6,1,3,0,757,0,50,0
100918,14:04:02,577900158,test,2,0,8,4,21,0,786,0,33,0
100918,14:04:02,577900158,test,2,0,10,3,50,1,509,0,50,0
100918,14:04:02,577900158,test,2,0,12,6,4,0,581,0,40,0
100918,14:04:02,577900158,test,2,1,14,2,70,0,669,0,40,0
100918,14:04:02,577900158,test,2,0,16,2,2,1,410,0,50,0
100918,14:04:02,577900158,test,2,0,18,5,25,1,490,0,57,0
100918,14:04:02,577900158,test,2,1,20,1,53,0,786,0,57,0
100918,14:04:02,577900158,test,2,1,22,6,59,0,823,0,57,0
100918,14:04:02,577900158,test,2,0,24,3,32,1,731,0,62,0
100918,14:04:02,577900158,test,2,1,26,5,10,1,1564,20,62,0
100918,14:04:02,577900158,test,2,1,28,4,26,0,505,16,62,0
100918,14:04:02,577900158,test,2,1,30,3,64,0,919,14,62,0
100918,14:04:02,577900158,test,2,1,32,3,43,1,569,25,62,0
100918,14:04:02,577900158,test,2,0,34,1,45,0,935,25,55,0
100918,14:04:02,577900158,test,2,0,36,4,11,1,363,25,60,0
