date,time,subject,blockcode,blocknum,prime_type,trialnum,values.primestim,values.targetstim,correct,latency,trial.prime_obama.totalpercentcorrect,trial.prime_trump.totalpercentcorrect,influenced,trump_prime,obama_prime,pol_amp_effect,negative_prime,positive_prime,normed_amp_effect,awareness,demand_pn,demand_to,influence_general_pn,influence_general_to,intentionality_pn,intentionality_to,politics,self_exclusion_1,self_exclusion_1other,unintentionality_pn,unintentionality_to,influence_rate_pol,influence_rate_norm,party
100918,11:36:29,548346706,test,2,1,2,3,71,0,1287,0,0,0,0.6111111111111112,0.6388888888888888,0.02777777777777768,0.5277777777777778,0.7777777777777778,0.25,more than half,My responses were genuinely based on whether I was influenced or not,My responses were genuinely based on whether I was influenced or not,less than half,I don't know,none,none,very republican,"Yes, use my data",,about half,about half,0,0.18055555555555555,0
100918,11:36:29,548346706,test,2,0,4,1,61,1,1103,0,100,0,0.6111111111111112,0.6388888888888888,0.02777777777777768,0.5277777777777778,0.7777777777777778,0.25,more than half,My responses were genuinely based on whether I was influenced or not,My responses were genuinely based on whether I was influenced or not,less than half,I don't know,none,none,very republican,"Yes, use my data",,about half,about half,0,0.18055555555555555,0
100918,11:36:29,548346706,test,2,0,6,6,15,0,784,0,50,0,0.6111111111111112,0.6388888888888888,0.02777777777777768,0.5277777777777778,0.7777777777777778,0.25,more than half,My responses were genuinely based on whether I was influenced or not,My responses were genuinely based on whether I was influenced or not,less than half,I don't know,none,none,very republican,"Yes, use my data",,about half,about half,0,0.18055555555555555,0
100918,11:36:29,548346706,test,2,1,8,5,43,0,1207,0,50,0,0.6111111111111112,0.6388888888888888,0.02777777777777768,0.5277777777777778,0.7777777777777778,0.25,more than half,My responses were genuinely based on whether I was influenced or not,My responses were genuinely based on whether I was influenced or not,less than half,I don't know,none,none,very republican,"Yes, use my data",,about half,about half,0,0.18055555555555555,0
100918,11:36:29,548346706,test,2,1,10,6,36,1,663,33,50,0,0.6111111111111112,0.6388888888888888,0.02777777777777768,0.5277777777777778,0.7777777777777778,0.25,more than half,My responses were genuinely based on whether I was influenced or not,My responses were genuinely based on whether I was influenced or not,less than half,I don't know,none,none,very republican,"Yes, use my data",,about half,about half,0,0.18055555555555555,0
100918,11:36:29,548346706,test,2,0,12,4,20,1,596,33,66,0,0.6111111111111112,0.6388888888888888,0.02777777777777768,0.5277777777777778,0.7777777777777778,0.25,more than half,My responses were genuinely based on whether I was influenced or not,My responses were genuinely based on whether I was influenced or not,less than half,I don't know,none,none,very republican,"Yes, use my data",,about half,about half,0,0.18055555555555555,0
100918,11:36:29,548346706,test,2,0,14,3,62,1,906,33,75,0,0.6111111111111112,0.6388888888888888,0.02777777777777768,0.5277777777777778,0.7777777777777778,0.25,more than half,My responses were genuinely based on whether I was influenced or not,My responses were genuinely based on whether I was influenced or not,less than half,I don't know,none,none,very republican,"Yes, use my data",,about half,about half,0,0.18055555555555555,0
100918,11:36:29,548346706,test,2,1,16,1,8,1,731,50,75,0,0.6111111111111112,0.6388888888888888,0.02777777777777768,0.5277777777777778,0.7777777777777778,0.25,more than half,My responses were genuinely based on whether I was influenced or not,My responses were genuinely based on whether I was influenced or not,less than half,I don't know,none,none,very republican,"Yes, use my data",,about half,about half,0,0.18055555555555555,0
100918,11:36:29,548346706,test,2,1,18,3,67,1,632,60,75,0,0.6111111111111112,0.6388888888888888,0.02777777777777768,0.5277777777777778,0.7777777777777778,0.25,more than half,My responses were genuinely based on whether I was influenced or not,My responses were genuinely based on whether I was influenced or not,less than half,I don't know,none,none,very republican,"Yes, use my data",,about half,about half,0,0.18055555555555555,0
100918,11:36:29,548346706,test,2,0,20,5,17,0,416,60,60,0,0.6111111111111112,0.6388888888888888,0.02777777777777768,0.5277777777777778,0.7777777777777778,0.25,more than half,My responses were genuinely based on whether I was influenced or not,My responses were genuinely based on whether I was influenced or not,less than half,I don't know,none,none,very republican,"Yes, use my data",,about half,about half,0,0.18055555555555555,0
100918,11:36:29,548346706,test,2,1,22,2,6,1,497,66,60,0,0.6111111111111112,0.6388888888888888,0.02777777777777768,0.5277777777777778,0.7777777777777778,0.25,more than half,My responses were genuinely based on whether I was influenced or not,My responses were genuinely based on whether I was influenced or not,less than half,I don't know,none,none,very republican,"Yes, use my data",,about half,about half,0,0.18055555555555555,0
100918,11:36:29,548346706,test,2,1,24,4,28,1,743,71,60,0,0.6111111111111112,0.6388888888888888,0.02777777777777768,0.5277777777777778,0.7777777777777778,0.25,more than half,My responses were genuinely based on whether I was influenced or not,My responses were genuinely based on whether I was influenced or not,less than half,I don't know,none,none,very republican,"Yes, use my data",,about half,about half,0,0.18055555555555555,0
100918,11:36:29,548346706,test,2,1,26,6,26,0,674,62,60,0,0.6111111111111112,0.6388888888888888,0.02777777777777768,0.5277777777777778,0.7777777777777778,0.25,more than half,My responses were genuinely based on whether I was influenced or not,My responses were genuinely based on whether I was influenced or not,less than half,I don't know,none,none,very republican,"Yes, use my data",,about half,about half,0,0.18055555555555555,0
100918,11:36:29,548346706,test,2,0,28,2,16,1,454,62,66,0,0.6111111111111112,0.6388888888888888,0.02777777777777768,0.5277777777777778,0.7777777777777778,0.25,more than half,My responses were genuinely based on whether I was influenced or not,My responses were genuinely based on whether I was influenced or not,less than half,I don't know,none,none,very republican,"Yes, use my data",,about half,about half,0,0.18055555555555555,0
100918,11:36:29,548346706,test,2,1,30,1,10,1,461,66,66,0,0.6111111111111112,0.6388888888888888,0.02777777777777768,0.5277777777777778,0.7777777777777778,0.25,more than half,My responses were genuinely based on whether I was influenced or not,My responses were genuinely based on whether I was influenced or not,less than half,I don't know,none,none,very republican,"Yes, use my data",,about half,about half,0,0.18055555555555555,0
100918,11:36:29,548346706,test,2,1,32,5,63,1,901,70,66,0,0.6111111111111112,0.6388888888888888,0.02777777777777768,0.5277777777777778,0.7777777777777778,0.25,more than half,My responses were genuinely based on whether I was influenced or not,My responses were genuinely based on whether I was influenced or not,less than half,I don't know,none,none,very republican,"Yes, use my data",,about half,about half,0,0.18055555555555555,0
100918,11:36:29,548346706,test,2,0,34,1,34,1,471,70,71,0,0.6111111111111112,0.6388888888888888,0.02777777777777768,0.5277777777777778,0.7777777777777778,0.25,more than half,My responses were genuinely based on whether I was influenced or not,My responses were genuinely based on whether I was influenced or not,less than half,I don't know,none,none,very republican,"Yes, use my data",,about half,about half,0,0.18055555555555555,0
100918,11:36:29,548346706,test,2,1,36,2,22,0,575,63,71,0,0.6111111111111112,0.6388888888888888,0.02777777777777768,0.5277777777777778,0.7777777777777778,0.25,more than half,My responses were genuinely based on whether I was influenced or not,My responses were genuinely based on whether I was influenced or not,less than half,I don't know,none,none,very republican,"Yes, use my data",,about half,about half,0,0.18055555555555555,0
100918,11:36:29,548346706,test,2,0,38,4,12,1,259,63,75,0,0.6111111111111112,0.6388888888888888,0.02777777777777768,0.5277777777777778,0.7777777777777778,0.25,more than half,My responses were genuinely based on whether I was influenced or not,My responses were genuinely based on whether I was influenced or not,less than half,I don't know,none,none,very republican,"Yes, use my data",,about half,about half,0,0.18055555555555555,0
100918,11:36:29,548346706,test,2,0,40,3,44,1,442,63,77,0,0.6111111111111112,0.6388888888888888,0.02777777777777768,0.5277777777777778,0.7777777777777778,0.25,more than half,My responses were genuinely based on whether I was influenced or not,My responses were genuinely based on whether I was influenced or not,less than half,I don't know,none,none,very republican,"Yes, use my data",,about half,about half,0,0.18055555555555555,0
100918,11:36:29,548346706,test,2,1,42,3,29,0,693,58,77,0,0.6111111111111112,0.6388888888888888,0.02777777777777768,0.5277777777777778,0.7777777777777778,0.25,more than half,My responses were genuinely based on whether I was influenced or not,My responses were genuinely based on whether I was influenced or not,less than half,I don't know,none,none,very republican,"Yes, use my data",,about half,about half,0,0.18055555555555555,0
100918,11:36:29,548346706,test,2,1,44,4,38,1,458,61,77,0,0.6111111111111112,0.6388888888888888,0.02777777777777768,0.5277777777777778,0.7777777777777778,0.25,more than half,My responses were genuinely based on whether I was influenced or not,My responses were genuinely based on whether I was influenced or not,less than half,I don't know,none,none,very republican,"Yes, use my data",,about half,about half,0,0.18055555555555555,0
100918,11:36:29,548346706,test,2,0,46,5,45,1,441,61,80,0,0.6111111111111112,0.6388888888888888,0.02777777777777768,0.5277777777777778,0.7777777777777778,0.25,more than half,My responses were genuinely based on whether I was influenced or not,My responses were genuinely based on whether I was influenced or not,less than half,I don't know,none,none,very republican,"Yes, use my data",,about half,about half,0,0.18055555555555555,0
100918,11:36:29,548346706,test,2,1,48,3,30,1,466,64,80,0,0.6111111111111112,0.6388888888888888,0.02777777777777768,0.5277777777777778,0.7777777777777778,0.25,more than half,My responses were genuinely based on whether I was influenced or not,My responses were genuinely based on whether I was influenced or not,less than half,I don't know,none,none,very republican,"Yes, use my data",,about half,about half,0,0.18055555555555555,0
100918,11:36:29,548346706,test,2,1,50,1,59,1,468,66,80,0,0.6111111111111112,0.6388888888888888,0.02777777777777768,0.5277777777777778,0.7777777777777778,0.25,more than half,My responses were genuinely based on whether I was influenced or not,My responses were genuinely based on whether I was influenced or not,less than half,I don't know,none,none,very republican,"Yes, use my data",,about half,about half,0,0.18055555555555555,0
100918,11:36:29,548346706,test,2,1,52,6,23,0,642,62,80,0,0.6111111111111112,0.6388888888888888,0.02777777777777768,0.5277777777777778,0.7777777777777778,0.25,more than half,My responses were genuinely based on whether I was influenced or not,My responses were genuinely based on whether I was influenced or not,less than half,I don't know,none,none,very republican,"Yes, use my data",,about half,about half,0,0.18055555555555555,0
100918,11:36:29,548346706,test,2,1,54,2,55,1,702,64,80,0,0.6111111111111112,0.6388888888888888,0.02777777777777768,0.5277777777777778,0.7777777777777778,0.25,more than half,My responses were genuinely based on whether I was influenced or not,My responses were genuinely based on whether I was influenced or not,less than half,I don't know,none,none,very republican,"Yes, use my data",,about half,about half,0,0.18055555555555555,0
100918,11:36:29,548346706,test,2,1,56,5,66,0,600,61,80,0,0.6111111111111112,0.6388888888888888,0.02777777777777768,0.5277777777777778,0.7777777777777778,0.25,more than half,My responses were genuinely based on whether I was influenced or not,My responses were genuinely based on whether I was influenced or not,less than half,I don't know,none,none,very republican,"Yes, use my data",,about half,about half,0,0.18055555555555555,0
100918,11:36:29,548346706,test,2,0,58,2,32,1,244,61,81,0,0.6111111111111112,0.6388888888888888,0.02777777777777768,0.5277777777777778,0.7777777777777778,0.25,more than half,My responses were genuinely based on whether I was influenced or not,My responses were genuinely based on whether I was influenced or not,less than half,I don't know,none,none,very republican,"Yes, use my data",,about half,about half,0,0.18055555555555555,0
100918,11:36:29,548346706,test,2,0,60,6,48,1,338,61,83,0,0.6111111111111112,0.6388888888888888,0.02777777777777768,0.5277777777777778,0.7777777777777778,0.25,more than half,My responses were genuinely based on whether I was influenced or not,My responses were genuinely based on whether I was influenced or not,less than half,I don't know,none,none,very republican,"Yes, use my data",,about half,about half,0,0.18055555555555555,0
100918,11:36:29,548346706,test,2,0,62,1,13,0,701,61,76,0,0.6111111111111112,0.6388888888888888,0.02777777777777768,0.5277777777777778,0.7777777777777778,0.25,more than half,My responses were genuinely based on whether I was influenced or not,My responses were genuinely based on whether I was influenced or not,less than half,I don't know,none,none,very republican,"Yes, use my data",,about half,about half,0,0.18055555555555555,0
100918,11:36:29,548346706,test,2,0,64,4,21,1,808,61,78,0,0.6111111111111112,0.6388888888888888,0.02777777777777768,0.5277777777777778,0.7777777777777778,0.25,more than half,My responses were genuinely based on whether I was influenced or not,My responses were genuinely based on whether I was influenced or not,less than half,I don't know,none,none,very republican,"Yes, use my data",,about half,about half,0,0.18055555555555555,0
100918,11:36:29,548346706,test,2,0,66,2,72,0,426,61,73,0,0.6111111111111112,0.6388888888888888,0.02777777777777768,0.5277777777777778,0.7777777777777778,0.25,more than half,My responses were genuinely based on whether I was influenced or not,My responses were genuinely based on whether I was influenced or not,less than half,I don't know,none,none,very republican,"Yes, use my data",,about half,about half,0,0.18055555555555555,0
100918,11:36:29,548346706,test,2,1,68,4,58,1,401,63,73,0,0.6111111111111112,0.6388888888888888,0.02777777777777768,0.5277777777777778,0.7777777777777778,0.25,more than half,My responses were genuinely based on whether I was influenced or not,My responses were genuinely based on whether I was influenced or not,less than half,I don't know,none,none,very republican,"Yes, use my data",,about half,about half,0,0.18055555555555555,0
100918,11:36:29,548346706,test,2,1,70,4,52,0,31,60,73,0,0.6111111111111112,0.6388888888888888,0.02777777777777768,0.5277777777777778,0.7777777777777778,0.25,more than half,My responses were genuinely based on whether I was influenced or not,My responses were genuinely based on whether I was influenced or not,less than half,I don't know,none,none,very republican,"Yes, use my data",,about half,about half,0,0.18055555555555555,0
100918,11:36:29,548346706,test,2,0,72,3,39,1,276,60,75,0,0.6111111111111112,0.6388888888888888,0.02777777777777768,0.5277777777777778,0.7777777777777778,0.25,more than half,My responses were genuinely based on whether I was influenced or not,My responses were genuinely based on whether I was influenced or not,less than half,I don't know,none,none,very republican,"Yes, use my data",,about half,about half,0,0.18055555555555555,0
100918,11:36:29,548346706,test,2,1,74,3,68,0,380,57,75,0,0.6111111111111112,0.6388888888888888,0.02777777777777768,0.5277777777777778,0.7777777777777778,0.25,more than half,My responses were genuinely based on whether I was influenced or not,My responses were genuinely based on whether I was influenced or not,less than half,I don't know,none,none,very republican,"Yes, use my data",,about half,about half,0,0.18055555555555555,0
100918,11:36:29,548346706,test,2,0,76,1,70,1,297,57,76,0,0.6111111111111112,0.6388888888888888,0.02777777777777768,0.5277777777777778,0.7777777777777778,0.25,more than half,My responses were genuinely based on whether I was influenced or not,My responses were genuinely based on whether I was influenced or not,less than half,I don't know,none,none,very republican,"Yes, use my data",,about half,about half,0,0.18055555555555555,0
100918,11:36:29,548346706,test,2,0,78,6,40,0,353,57,72,0,0.6111111111111112,0.6388888888888888,0.02777777777777768,0.5277777777777778,0.7777777777777778,0.25,more than half,My responses were genuinely based on whether I was influenced or not,My responses were genuinely based on whether I was influenced or not,less than half,I don't know,none,none,very republican,"Yes, use my data",,about half,about half,0,0.18055555555555555,0
100918,11:36:29,548346706,test,2,0,80,5,60,1,404,57,73,0,0.6111111111111112,0.6388888888888888,0.02777777777777768,0.5277777777777778,0.7777777777777778,0.25,more than half,My responses were genuinely based on whether I was influenced or not,My responses were genuinely based on whether I was influenced or not,less than half,I don't know,none,none,very republican,"Yes, use my data",,about half,about half,0,0.18055555555555555,0
100918,11:36:29,548346706,test,2,1,82,1,42,1,649,59,73,0,0.6111111111111112,0.6388888888888888,0.02777777777777768,0.5277777777777778,0.7777777777777778,0.25,more than half,My responses were genuinely based on whether I was influenced or not,My responses were genuinely based on whether I was influenced or not,less than half,I don't know,none,none,very republican,"Yes, use my data",,about half,about half,0,0.18055555555555555,0
100918,11:36:29,548346706,test,2,1,84,6,14,1,548,60,73,0,0.6111111111111112,0.6388888888888888,0.02777777777777768,0.5277777777777778,0.7777777777777778,0.25,more than half,My responses were genuinely based on whether I was influenced or not,My responses were genuinely based on whether I was influenced or not,less than half,I don't know,none,none,very republican,"Yes, use my data",,about half,about half,0,0.18055555555555555,0
100918,11:36:29,548346706,test,2,1,86,2,33,0,461,58,73,0,0.6111111111111112,0.6388888888888888,0.02777777777777768,0.5277777777777778,0.7777777777777778,0.25,more than half,My responses were genuinely based on whether I was influenced or not,My responses were genuinely based on whether I was influenced or not,less than half,I don't know,none,none,very republican,"Yes, use my data",,about half,about half,0,0.18055555555555555,0
100918,11:36:29,548346706,test,2,0,88,1,41,1,310,58,75,0,0.6111111111111112,0.6388888888888888,0.02777777777777768,0.5277777777777778,0.7777777777777778,0.25,more than half,My responses were genuinely based on whether I was influenced or not,My responses were genuinely based on whether I was influenced or not,less than half,I don't know,none,none,very republican,"Yes, use my data",,about half,about half,0,0.18055555555555555,0
100918,11:36:29,548346706,test,2,0,90,3,7,0,345,58,71,0,0.6111111111111112,0.6388888888888888,0.02777777777777768,0.5277777777777778,0.7777777777777778,0.25,more than half,My responses were genuinely based on whether I was influenced or not,My responses were genuinely based on whether I was influenced or not,less than half,I don't know,none,none,very republican,"Yes, use my data",,about half,about half,0,0.18055555555555555,0
100918,11:36:29,548346706,test,2,1,92,5,3,1,398,60,71,0,0.6111111111111112,0.6388888888888888,0.02777777777777768,0.5277777777777778,0.7777777777777778,0.25,more than half,My responses were genuinely based on whether I was influenced or not,My responses were genuinely based on whether I was influenced or not,less than half,I don't know,none,none,very republican,"Yes, use my data",,about half,about half,0,0.18055555555555555,0
100918,11:36:29,548346706,test,2,1,94,4,27,1,370,61,71,0,0.6111111111111112,0.6388888888888888,0.02777777777777768,0.5277777777777778,0.7777777777777778,0.25,more than half,My responses were genuinely based on whether I was influenced or not,My responses were genuinely based on whether I was influenced or not,less than half,I don't know,none,none,very republican,"Yes, use my data",,about half,about half,0,0.18055555555555555,0
100918,11:36:29,548346706,test,2,0,96,2,1,0,363,61,68,0,0.6111111111111112,0.6388888888888888,0.02777777777777768,0.5277777777777778,0.7777777777777778,0.25,more than half,My responses were genuinely based on whether I was influenced or not,My responses were genuinely based on whether I was influenced or not,less than half,I don't know,none,none,very republican,"Yes, use my data",,about half,about half,0,0.18055555555555555,0
100918,11:36:29,548346706,test,2,0,98,4,24,1,296,61,69,0,0.6111111111111112,0.6388888888888888,0.02777777777777768,0.5277777777777778,0.7777777777777778,0.25,more than half,My responses were genuinely based on whether I was influenced or not,My responses were genuinely based on whether I was influenced or not,less than half,I don't know,none,none,very republican,"Yes, use my data",,about half,about half,0,0.18055555555555555,0
100918,11:36:29,548346706,test,2,0,100,5,37,0,349,61,66,0,0.6111111111111112,0.6388888888888888,0.02777777777777768,0.5277777777777778,0.7777777777777778,0.25,more than half,My responses were genuinely based on whether I was influenced or not,My responses were genuinely based on whether I was influenced or not,less than half,I don't know,none,none,very republican,"Yes, use my data",,about half,about half,0,0.18055555555555555,0
100918,11:36:29,548346706,test,2,0,102,6,53,1,382,61,68,0,0.6111111111111112,0.6388888888888888,0.02777777777777768,0.5277777777777778,0.7777777777777778,0.25,more than half,My responses were genuinely based on whether I was influenced or not,My responses were genuinely based on whether I was influenced or not,less than half,I don't know,none,none,very republican,"Yes, use my data",,about half,about half,0,0.18055555555555555,0
100918,11:36:29,548346706,test,2,1,104,5,25,0,298,59,68,0,0.6111111111111112,0.6388888888888888,0.02777777777777768,0.5277777777777778,0.7777777777777778,0.25,more than half,My responses were genuinely based on whether I was influenced or not,My responses were genuinely based on whether I was influenced or not,less than half,I don't know,none,none,very republican,"Yes, use my data",,about half,about half,0,0.18055555555555555,0
100918,11:36:29,548346706,test,2,0,106,4,46,1,315,59,69,0,0.6111111111111112,0.6388888888888888,0.02777777777777768,0.5277777777777778,0.7777777777777778,0.25,more than half,My responses were genuinely based on whether I was influenced or not,My responses were genuinely based on whether I was influenced or not,less than half,I don't know,none,none,very republican,"Yes, use my data",,about half,about half,0,0.18055555555555555,0
100918,11:36:29,548346706,test,2,0,108,1,35,0,250,59,66,0,0.6111111111111112,0.6388888888888888,0.02777777777777768,0.5277777777777778,0.7777777777777778,0.25,more than half,My responses were genuinely based on whether I was influenced or not,My responses were genuinely based on whether I was influenced or not,less than half,I don't know,none,none,very republican,"Yes, use my data",,about half,about half,0,0.18055555555555555,0
100918,11:36:29,548346706,test,2,0,110,2,64,1,46,59,67,0,0.6111111111111112,0.6388888888888888,0.02777777777777768,0.5277777777777778,0.7777777777777778,0.25,more than half,My responses were genuinely based on whether I was influenced or not,My responses were genuinely based on whether I was influenced or not,less than half,I don't know,none,none,very republican,"Yes, use my data",,about half,about half,0,0.18055555555555555,0
100918,11:36:29,548346706,test,2,1,112,1,57,1,477,60,67,0,0.6111111111111112,0.6388888888888888,0.02777777777777768,0.5277777777777778,0.7777777777777778,0.25,more than half,My responses were genuinely based on whether I was influenced or not,My responses were genuinely based on whether I was influenced or not,less than half,I don't know,none,none,very republican,"Yes, use my data",,about half,about half,0,0.18055555555555555,0
100918,11:36:29,548346706,test,2,0,114,5,2,0,566,60,65,0,0.6111111111111112,0.6388888888888888,0.02777777777777768,0.5277777777777778,0.7777777777777778,0.25,more than half,My responses were genuinely based on whether I was influenced or not,My responses were genuinely based on whether I was influenced or not,less than half,I don't know,none,none,very republican,"Yes, use my data",,about half,about half,0,0.18055555555555555,0
100918,11:36:29,548346706,test,2,0,116,6,51,0,619,60,63,0,0.6111111111111112,0.6388888888888888,0.02777777777777768,0.5277777777777778,0.7777777777777778,0.25,more than half,My responses were genuinely based on whether I was influenced or not,My responses were genuinely based on whether I was influenced or not,less than half,I don't know,none,none,very republican,"Yes, use my data",,about half,about half,0,0.18055555555555555,0
100918,11:36:29,548346706,test,2,0,118,3,5,1,410,60,64,0,0.6111111111111112,0.6388888888888888,0.02777777777777768,0.5277777777777778,0.7777777777777778,0.25,more than half,My responses were genuinely based on whether I was influenced or not,My responses were genuinely based on whether I was influenced or not,less than half,I don't know,none,none,very republican,"Yes, use my data",,about half,about half,0,0.18055555555555555,0
100918,11:36:29,548346706,test,2,1,120,6,47,1,490,62,64,0,0.6111111111111112,0.6388888888888888,0.02777777777777768,0.5277777777777778,0.7777777777777778,0.25,more than half,My responses were genuinely based on whether I was influenced or not,My responses were genuinely based on whether I was influenced or not,less than half,I don't know,none,none,very republican,"Yes, use my data",,about half,about half,0,0.18055555555555555,0
100918,11:36:29,548346706,test,2,1,122,2,31,0,268,60,64,0,0.6111111111111112,0.6388888888888888,0.02777777777777768,0.5277777777777778,0.7777777777777778,0.25,more than half,My responses were genuinely based on whether I was influenced or not,My responses were genuinely based on whether I was influenced or not,less than half,I don't know,none,none,very republican,"Yes, use my data",,about half,about half,0,0.18055555555555555,0
100918,11:36:29,548346706,test,2,1,124,3,49,1,317,61,64,0,0.6111111111111112,0.6388888888888888,0.02777777777777768,0.5277777777777778,0.7777777777777778,0.25,more than half,My responses were genuinely based on whether I was influenced or not,My responses were genuinely based on whether I was influenced or not,less than half,I don't know,none,none,very republican,"Yes, use my data",,about half,about half,0,0.18055555555555555,0
100918,11:36:29,548346706,test,2,1,126,4,13,1,300,62,64,0,0.6111111111111112,0.6388888888888888,0.02777777777777768,0.5277777777777778,0.7777777777777778,0.25,more than half,My responses were genuinely based on whether I was influenced or not,My responses were genuinely based on whether I was influenced or not,less than half,I don't know,none,none,very republican,"Yes, use my data",,about half,about half,0,0.18055555555555555,0
100918,11:36:29,548346706,test,2,1,128,6,39,1,320,63,64,0,0.6111111111111112,0.6388888888888888,0.02777777777777768,0.5277777777777778,0.7777777777777778,0.25,more than half,My responses were genuinely based on whether I was influenced or not,My responses were genuinely based on whether I was influenced or not,less than half,I don't know,none,none,very republican,"Yes, use my data",,about half,about half,0,0.18055555555555555,0
100918,11:36:29,548346706,test,2,0,130,1,65,0,196,63,62,0,0.6111111111111112,0.6388888888888888,0.02777777777777768,0.5277777777777778,0.7777777777777778,0.25,more than half,My responses were genuinely based on whether I was influenced or not,My responses were genuinely based on whether I was influenced or not,less than half,I don't know,none,none,very republican,"Yes, use my data",,about half,about half,0,0.18055555555555555,0
100918,11:36:29,548346706,test,2,1,132,2,7,1,385,64,62,0,0.6111111111111112,0.6388888888888888,0.02777777777777768,0.5277777777777778,0.7777777777777778,0.25,more than half,My responses were genuinely based on whether I was influenced or not,My responses were genuinely based on whether I was influenced or not,less than half,I don't know,none,none,very republican,"Yes, use my data",,about half,about half,0,0.18055555555555555,0
100918,11:36:29,548346706,test,2,1,134,1,33,0,549,62,62,0,0.6111111111111112,0.6388888888888888,0.02777777777777768,0.5277777777777778,0.7777777777777778,0.25,more than half,My responses were genuinely based on whether I was influenced or not,My responses were genuinely based on whether I was influenced or not,less than half,I don't know,none,none,very republican,"Yes, use my data",,about half,about half,0,0.18055555555555555,0
100918,11:36:29,548346706,test,2,0,136,3,58,1,302,62,63,0,0.6111111111111112,0.6388888888888888,0.02777777777777768,0.5277777777777778,0.7777777777777778,0.25,more than half,My responses were genuinely based on whether I was influenced or not,My responses were genuinely based on whether I was influenced or not,less than half,I don't know,none,none,very republican,"Yes, use my data",,about half,about half,0,0.18055555555555555,0
100918,11:36:29,548346706,test,2,0,138,5,23,1,721,62,64,0,0.6111111111111112,0.6388888888888888,0.02777777777777768,0.5277777777777778,0.7777777777777778,0.25,more than half,My responses were genuinely based on whether I was influenced or not,My responses were genuinely based on whether I was influenced or not,less than half,I don't know,none,none,very republican,"Yes, use my data",,about half,about half,0,0.18055555555555555,0
100918,11:36:29,548346706,test,2,0,140,2,15,0,552,62,62,0,0.6111111111111112,0.6388888888888888,0.02777777777777768,0.5277777777777778,0.7777777777777778,0.25,more than half,My responses were genuinely based on whether I was influenced or not,My responses were genuinely based on whether I was influenced or not,less than half,I don't know,none,none,very republican,"Yes, use my data",,about half,about half,0,0.18055555555555555,0
100918,11:36:29,548346706,test,2,1,142,5,48,1,4141,63,62,0,0.6111111111111112,0.6388888888888888,0.02777777777777768,0.5277777777777778,0.7777777777777778,0.25,more than half,My responses were genuinely based on whether I was influenced or not,My responses were genuinely based on whether I was influenced or not,less than half,I don't know,none,none,very republican,"Yes, use my data",,about half,about half,0,0.18055555555555555,0
100918,11:36:29,548346706,test,2,0,144,6,63,0,1736,63,61,0,0.6111111111111112,0.6388888888888888,0.02777777777777768,0.5277777777777778,0.7777777777777778,0.25,more than half,My responses were genuinely based on whether I was influenced or not,My responses were genuinely based on whether I was influenced or not,less than half,I don't know,none,none,very republican,"Yes, use my data",,about half,about half,0,0.18055555555555555,0
100918,12:36:15,896525387,test,2,0,2,1,30,1,838,0,100,0,0.6111111111111112,0.75,0.13888888888888884,0.6111111111111112,0.6944444444444444,0.08333333333333326,all,My responses were genuinely based on whether I was influenced or not,My responses were genuinely based on whether I was influenced or not,a few,a few,a few,a few,a little republican,"Yes, use my data",,a few,a few,0.013888888888888888,0.05555555555555555,0
100918,12:36:15,896525387,test,2,0,4,4,62,1,474,0,100,0,0.6111111111111112,0.75,0.13888888888888884,0.6111111111111112,0.6944444444444444,0.08333333333333326,all,My responses were genuinely based on whether I was influenced or not,My responses were genuinely based on whether I was influenced or not,a few,a few,a few,a few,a little republican,"Yes, use my data",,a few,a few,0.013888888888888888,0.05555555555555555,0
100918,12:36:15,896525387,test,2,1,6,1,17,1,542,100,100,0,0.6111111111111112,0.75,0.13888888888888884,0.6111111111111112,0.6944444444444444,0.08333333333333326,all,My responses were genuinely based on whether I was influenced or not,My responses were genuinely based on whether I was influenced or not,a few,a few,a few,a few,a little republican,"Yes, use my data",,a few,a few,0.013888888888888888,0.05555555555555555,0
100918,12:36:15,896525387,test,2,1,8,4,28,1,1246,100,100,0,0.6111111111111112,0.75,0.13888888888888884,0.6111111111111112,0.6944444444444444,0.08333333333333326,all,My responses were genuinely based on whether I was influenced or not,My responses were genuinely based on whether I was influenced or not,a few,a few,a few,a few,a little republican,"Yes, use my data",,a few,a few,0.013888888888888888,0.05555555555555555,0
100918,12:36:15,896525387,test,2,0,10,3,54,0,786,100,66,0,0.6111111111111112,0.75,0.13888888888888884,0.6111111111111112,0.6944444444444444,0.08333333333333326,all,My responses were genuinely based on whether I was influenced or not,My responses were genuinely based on whether I was influenced or not,a few,a few,a few,a few,a little republican,"Yes, use my data",,a few,a few,0.013888888888888888,0.05555555555555555,0
100918,12:36:15,896525387,test,2,0,12,1,38,0,745,100,50,0,0.6111111111111112,0.75,0.13888888888888884,0.6111111111111112,0.6944444444444444,0.08333333333333326,all,My responses were genuinely based on whether I was influenced or not,My responses were genuinely based on whether I was influenced or not,a few,a few,a few,a few,a little republican,"Yes, use my data",,a few,a few,0.013888888888888888,0.05555555555555555,0
100918,12:36:15,896525387,test,2,0,14,2,49,1,889,100,60,0,0.6111111111111112,0.75,0.13888888888888884,0.6111111111111112,0.6944444444444444,0.08333333333333326,all,My responses were genuinely based on whether I was influenced or not,My responses were genuinely based on whether I was influenced or not,a few,a few,a few,a few,a little republican,"Yes, use my data",,a few,a few,0.013888888888888888,0.05555555555555555,0
100918,12:36:15,896525387,test,2,1,16,2,32,0,1036,66,60,0,0.6111111111111112,0.75,0.13888888888888884,0.6111111111111112,0.6944444444444444,0.08333333333333326,all,My responses were genuinely based on whether I was influenced or not,My responses were genuinely based on whether I was influenced or not,a few,a few,a few,a few,a little republican,"Yes, use my data",,a few,a few,0.013888888888888888,0.05555555555555555,0
100918,12:36:15,896525387,test,2,0,18,5,63,1,600,66,66,0,0.6111111111111112,0.75,0.13888888888888884,0.6111111111111112,0.6944444444444444,0.08333333333333326,all,My responses were genuinely based on whether I was influenced or not,My responses were genuinely based on whether I was influenced or not,a few,a few,a few,a few,a little republican,"Yes, use my data",,a few,a few,0.013888888888888888,0.05555555555555555,0
100918,12:36:15,896525387,test,2,0,20,6,16,0,782,66,57,0,0.6111111111111112,0.75,0.13888888888888884,0.6111111111111112,0.6944444444444444,0.08333333333333326,all,My responses were genuinely based on whether I was influenced or not,My responses were genuinely based on whether I was influenced or not,a few,a few,a few,a few,a little republican,"Yes, use my data",,a few,a few,0.013888888888888888,0.05555555555555555,0
100918,12:36:15,896525387,test,2,1,22,6,8,1,749,75,57,0,0.6111111111111112,0.75,0.13888888888888884,0.6111111111111112,0.6944444444444444,0.08333333333333326,all,My responses were genuinely based on whether I was influenced or not,My responses were genuinely based on whether I was influenced or not,a few,a few,a few,a few,a little republican,"Yes, use my data",,a few,a few,0.013888888888888888,0.05555555555555555,0
100918,12:36:15,896525387,test,2,0,24,5,47,1,605,75,62,0,0.6111111111111112,0.75,0.13888888888888884,0.6111111111111112,0.6944444444444444,0.08333333333333326,all,My responses were genuinely based on whether I was influenced or not,My responses were genuinely based on whether I was influenced or not,a few,a few,a few,a few,a little republican,"Yes, use my data",,a few,a few,0.013888888888888888,0.05555555555555555,0
100918,12:36:15,896525387,test,2,1,26,1,12,1,1547,80,62,0,0.6111111111111112,0.75,0.13888888888888884,0.6111111111111112,0.6944444444444444,0.08333333333333326,all,My responses were genuinely based on whether I was influenced or not,My responses were genuinely based on whether I was influenced or not,a few,a few,a few,a few,a little republican,"Yes, use my data",,a few,a few,0.013888888888888888,0.05555555555555555,0
100918,12:36:15,896525387,test,2,0,28,1,42,1,595,80,66,0,0.6111111111111112,0.75,0.13888888888888884,0.6111111111111112,0.6944444444444444,0.08333333333333326,all,My responses were genuinely based on whether I was influenced or not,My responses were genuinely based on whether I was influenced or not,a few,a few,a few,a few,a little republican,"Yes, use my data",,a few,a few,0.013888888888888888,0.05555555555555555,0
100918,12:36:15,896525387,test,2,1,30,5,41,1,290,83,66,0,0.6111111111111112,0.75,0.13888888888888884,0.6111111111111112,0.6944444444444444,0.08333333333333326,all,My responses were genuinely based on whether I was influenced or not,My responses were genuinely based on whether I was influenced or not,a few,a few,a few,a few,a little republican,"Yes, use my data",,a few,a few,0.013888888888888888,0.05555555555555555,0
100918,12:36:15,896525387,test,2,1,32,3,70,0,701,71,66,0,0.6111111111111112,0.75,0.13888888888888884,0.6111111111111112,0.6944444444444444,0.08333333333333326,all,My responses were genuinely based on whether I was influenced or not,My responses were genuinely based on whether I was influenced or not,a few,a few,a few,a few,a little republican,"Yes, use my data",,a few,a few,0.013888888888888888,0.05555555555555555,0
100918,12:36:15,896525387,test,2,0,34,4,6,0,7935,71,60,0,0.6111111111111112,0.75,0.13888888888888884,0.6111111111111112,0.6944444444444444,0.08333333333333326,all,My responses were genuinely based on whether I was influenced or not,My responses were genuinely based on whether I was influenced or not,a few,a few,a few,a few,a little republican,"Yes, use my data",,a few,a few,0.013888888888888888,0.05555555555555555,0
100918,12:36:15,896525387,test,2,1,36,5,59,0,1474,62,60,0,0.6111111111111112,0.75,0.13888888888888884,0.6111111111111112,0.6944444444444444,0.08333333333333326,all,My responses were genuinely based on whether I was influenced or not,My responses were genuinely based on whether I was influenced or not,a few,a few,a few,a few,a little republican,"Yes, use my data",,a few,a few,0.013888888888888888,0.05555555555555555,0
100918,12:36:15,896525387,test,2,1,38,1,48,1,188,66,60,0,0.6111111111111112,0.75,0.13888888888888884,0.6111111111111112,0.6944444444444444,0.08333333333333326,all,My responses were genuinely based on whether I was influenced or not,My responses were genuinely based on whether I was influenced or not,a few,a few,a few,a few,a little republican,"Yes, use my data",,a few,a few,0.013888888888888888,0.05555555555555555,0
100918,12:36:15,896525387,test,2,1,40,2,40,1,348,70,60,0,0.6111111111111112,0.75,0.13888888888888884,0.6111111111111112,0.6944444444444444,0.08333333333333326,all,My responses were genuinely based on whether I was influenced or not,My responses were genuinely based on whether I was influenced or not,a few,a few,a few,a few,a little republican,"Yes, use my data",,a few,a few,0.013888888888888888,0.05555555555555555,0
100918,12:36:15,896525387,test,2,0,42,2,45,1,308,70,63,0,0.6111111111111112,0.75,0.13888888888888884,0.6111111111111112,0.6944444444444444,0.08333333333333326,all,My responses were genuinely based on whether I was influenced or not,My responses were genuinely based on whether I was influenced or not,a few,a few,a few,a few,a little republican,"Yes, use my data",,a few,a few,0.013888888888888888,0.05555555555555555,0
100918,12:36:15,896525387,test,2,0,44,3,14,0,1335,70,58,0,0.6111111111111112,0.75,0.13888888888888884,0.6111111111111112,0.6944444444444444,0.08333333333333326,all,My responses were genuinely based on whether I was influenced or not,My responses were genuinely based on whether I was influenced or not,a few,a few,a few,a few,a little republican,"Yes, use my data",,a few,a few,0.013888888888888888,0.05555555555555555,0
100918,12:36:15,896525387,test,2,0,46,6,56,1,911,70,61,0,0.6111111111111112,0.75,0.13888888888888884,0.6111111111111112,0.6944444444444444,0.08333333333333326,all,My responses were genuinely based on whether I was influenced or not,My responses were genuinely based on whether I was influenced or not,a few,a few,a few,a few,a little republican,"Yes, use my data",,a few,a few,0.013888888888888888,0.05555555555555555,0
100918,12:36:15,896525387,test,2,1,48,3,1,1,328,72,61,0,0.6111111111111112,0.75,0.13888888888888884,0.6111111111111112,0.6944444444444444,0.08333333333333326,all,My responses were genuinely based on whether I was influenced or not,My responses were genuinely based on whether I was influenced or not,a few,a few,a few,a few,a little republican,"Yes, use my data",,a few,a few,0.013888888888888888,0.05555555555555555,0
100918,12:36:15,896525387,test,2,1,50,4,37,1,370,75,61,0,0.6111111111111112,0.75,0.13888888888888884,0.6111111111111112,0.6944444444444444,0.08333333333333326,all,My responses were genuinely based on whether I was influenced or not,My responses were genuinely based on whether I was influenced or not,a few,a few,a few,a few,a little republican,"Yes, use my data",,a few,a few,0.013888888888888888,0.05555555555555555,0
100918,12:36:15,896525387,test,2,0,52,2,43,1,722,75,64,0,0.6111111111111112,0.75,0.13888888888888884,0.6111111111111112,0.6944444444444444,0.08333333333333326,all,My responses were genuinely based on whether I was influenced or not,My responses were genuinely based on whether I was influenced or not,a few,a few,a few,a few,a little republican,"Yes, use my data",,a few,a few,0.013888888888888888,0.05555555555555555,0
100918,12:36:15,896525387,test,2,1,54,6,55,1,1155,76,64,0,0.6111111111111112,0.75,0.13888888888888884,0.6111111111111112,0.6944444444444444,0.08333333333333326,all,My responses were genuinely based on whether I was influenced or not,My responses were genuinely based on whether I was influenced or not,a few,a few,a few,a few,a little republican,"Yes, use my data",,a few,a few,0.013888888888888888,0.05555555555555555,0
100918,12:36:15,896525387,test,2,0,56,3,51,1,290,76,66,0,0.6111111111111112,0.75,0.13888888888888884,0.6111111111111112,0.6944444444444444,0.08333333333333326,all,My responses were genuinely based on whether I was influenced or not,My responses were genuinely based on whether I was influenced or not,a few,a few,a few,a few,a little republican,"Yes, use my data",,a few,a few,0.013888888888888888,0.05555555555555555,0
100918,12:36:15,896525387,test,2,0,58,1,11,1,557,76,68,0,0.6111111111111112,0.75,0.13888888888888884,0.6111111111111112,0.6944444444444444,0.08333333333333326,all,My responses were genuinely based on whether I was influenced or not,My responses were genuinely based on whether I was influenced or not,a few,a few,a few,a few,a little republican,"Yes, use my data",,a few,a few,0.013888888888888888,0.05555555555555555,0
100918,12:36:15,896525387,test,2,1,60,2,64,1,621,78,68,0,0.6111111111111112,0.75,0.13888888888888884,0.6111111111111112,0.6944444444444444,0.08333333333333326,all,My responses were genuinely based on whether I was influenced or not,My responses were genuinely based on whether I was influenced or not,a few,a few,a few,a few,a little republican,"Yes, use my data",,a few,a few,0.013888888888888888,0.05555555555555555,0
100918,12:36:15,896525387,test,2,0,62,5,46,0,546,78,64,0,0.6111111111111112,0.75,0.13888888888888884,0.6111111111111112,0.6944444444444444,0.08333333333333326,all,My responses were genuinely based on whether I was influenced or not,My responses were genuinely based on whether I was influenced or not,a few,a few,a few,a few,a little republican,"Yes, use my data",,a few,a few,0.013888888888888888,0.05555555555555555,0
100918,12:36:15,896525387,test,2,0,64,6,57,0,1547,78,61,0,0.6111111111111112,0.75,0.13888888888888884,0.6111111111111112,0.6944444444444444,0.08333333333333326,all,My responses were genuinely based on whether I was influenced or not,My responses were genuinely based on whether I was influenced or not,a few,a few,a few,a few,a little republican,"Yes, use my data",,a few,a few,0.013888888888888888,0.05555555555555555,0
100918,12:36:15,896525387,test,2,1,66,1,72,0,379,73,61,0,0.6111111111111112,0.75,0.13888888888888884,0.6111111111111112,0.6944444444444444,0.08333333333333326,all,My responses were genuinely based on whether I was influenced or not,My responses were genuinely based on whether I was influenced or not,a few,a few,a few,a few,a little republican,"Yes, use my data",,a few,a few,0.013888888888888888,0.05555555555555555,0
100918,12:36:15,896525387,test,2,1,68,4,9,1,763,75,61,0,0.6111111111111112,0.75,0.13888888888888884,0.6111111111111112,0.6944444444444444,0.08333333333333326,all,My responses were genuinely based on whether I was influenced or not,My responses were genuinely based on whether I was influenced or not,a few,a few,a few,a few,a little republican,"Yes, use my data",,a few,a few,0.013888888888888888,0.05555555555555555,0
100918,12:36:15,896525387,test,2,1,70,6,2,1,450,76,61,0,0.6111111111111112,0.75,0.13888888888888884,0.6111111111111112,0.6944444444444444,0.08333333333333326,all,My responses were genuinely based on whether I was influenced or not,My responses were genuinely based on whether I was influenced or not,a few,a few,a few,a few,a little republican,"Yes, use my data",,a few,a few,0.013888888888888888,0.05555555555555555,0
100918,12:36:15,896525387,test,2,0,72,4,60,1,2455,76,63,0,0.6111111111111112,0.75,0.13888888888888884,0.6111111111111112,0.6944444444444444,0.08333333333333326,all,My responses were genuinely based on whether I was influenced or not,My responses were genuinely based on whether I was influenced or not,a few,a few,a few,a few,a little republican,"Yes, use my data",,a few,a few,0.013888888888888888,0.05555555555555555,0
100918,12:36:15,896525387,test,2,0,74,5,29,0,489,76,60,0,0.6111111111111112,0.75,0.13888888888888884,0.6111111111111112,0.6944444444444444,0.08333333333333326,all,My responses were genuinely based on whether I was influenced or not,My responses were genuinely based on whether I was influenced or not,a few,a few,a few,a few,a little republican,"Yes, use my data",,a few,a few,0.013888888888888888,0.05555555555555555,0
100918,12:36:15,896525387,test,2,1,76,3,24,1,52,77,60,0,0.6111111111111112,0.75,0.13888888888888884,0.6111111111111112,0.6944444444444444,0.08333333333333326,all,My responses were genuinely based on whether I was influenced or not,My responses were genuinely based on whether I was influenced or not,a few,a few,a few,a few,a little republican,"Yes, use my data",,a few,a few,0.013888888888888888,0.05555555555555555,0
100918,12:36:15,896525387,test,2,0,78,2,33,1,592,77,61,0,0.6111111111111112,0.75,0.13888888888888884,0.6111111111111112,0.6944444444444444,0.08333333333333326,all,My responses were genuinely based on whether I was influenced or not,My responses were genuinely based on whether I was influenced or not,a few,a few,a few,a few,a little republican,"Yes, use my data",,a few,a few,0.013888888888888888,0.05555555555555555,0
100918,12:36:15,896525387,test,2,1,80,5,27,1,359,78,61,0,0.6111111111111112,0.75,0.13888888888888884,0.6111111111111112,0.6944444444444444,0.08333333333333326,all,My responses were genuinely based on whether I was influenced or not,My responses were genuinely based on whether I was influenced or not,a few,a few,a few,a few,a little republican,"Yes, use my data",,a few,a few,0.013888888888888888,0.05555555555555555,0
100918,12:36:15,896525387,test,2,0,82,4,39,0,1327,78,59,0,0.6111111111111112,0.75,0.13888888888888884,0.6111111111111112,0.6944444444444444,0.08333333333333326,all,My responses were genuinely based on whether I was influenced or not,My responses were genuinely based on whether I was influenced or not,a few,a few,a few,a few,a little republican,"Yes, use my data",,a few,a few,0.013888888888888888,0.05555555555555555,0
100918,12:36:15,896525387,test,2,1,84,3,44,1,424,80,59,0,0.6111111111111112,0.75,0.13888888888888884,0.6111111111111112,0.6944444444444444,0.08333333333333326,all,My responses were genuinely based on whether I was influenced or not,My responses were genuinely based on whether I was influenced or not,a few,a few,a few,a few,a little republican,"Yes, use my data",,a few,a few,0.013888888888888888,0.05555555555555555,0
100918,12:36:15,896525387,test,2,0,86,3,21,1,325,80,60,0,0.6111111111111112,0.75,0.13888888888888884,0.6111111111111112,0.6944444444444444,0.08333333333333326,all,My responses were genuinely based on whether I was influenced or not,My responses were genuinely based on whether I was influenced or not,a few,a few,a few,a few,a little republican,"Yes, use my data",,a few,a few,0.013888888888888888,0.05555555555555555,0
100918,12:36:15,896525387,test,2,1,88,2,71,1,439,80,60,0,0.6111111111111112,0.75,0.13888888888888884,0.6111111111111112,0.6944444444444444,0.08333333333333326,all,My responses were genuinely based on whether I was influenced or not,My responses were genuinely based on whether I was influenced or not,a few,a few,a few,a few,a little republican,"Yes, use my data",,a few,a few,0.013888888888888888,0.05555555555555555,0
100918,12:36:15,896525387,test,2,0,90,6,13,1,1155,80,62,0,0.6111111111111112,0.75,0.13888888888888884,0.6111111111111112,0.6944444444444444,0.08333333333333326,all,My responses were genuinely based on whether I was influenced or not,My responses were genuinely based on whether I was influenced or not,a few,a few,a few,a few,a little republican,"Yes, use my data",,a few,a few,0.013888888888888888,0.05555555555555555,0
100918,12:36:15,896525387,test,2,1,92,5,22,1,2019,81,62,1,0.6111111111111112,0.75,0.13888888888888884,0.6111111111111112,0.6944444444444444,0.08333333333333326,all,My responses were genuinely based on whether I was influenced or not,My responses were genuinely based on whether I was influenced or not,a few,a few,a few,a few,a little republican,"Yes, use my data",,a few,a few,0.013888888888888888,0.05555555555555555,0
100918,12:36:15,896525387,test,2,0,94,1,25,0,897,81,60,0,0.6111111111111112,0.75,0.13888888888888884,0.6111111111111112,0.6944444444444444,0.08333333333333326,all,My responses were genuinely based on whether I was influenced or not,My responses were genuinely based on whether I was influenced or not,a few,a few,a few,a few,a little republican,"Yes, use my data",,a few,a few,0.013888888888888888,0.05555555555555555,0
100918,12:36:15,896525387,test,2,1,96,6,5,0,970,78,60,0,0.6111111111111112,0.75,0.13888888888888884,0.6111111111111112,0.6944444444444444,0.08333333333333326,all,My responses were genuinely based on whether I was influenced or not,My responses were genuinely based on whether I was influenced or not,a few,a few,a few,a few,a little republican,"Yes, use my data",,a few,a few,0.013888888888888888,0.05555555555555555,0
100918,12:36:15,896525387,test,2,0,98,1,66,0,1082,78,57,0,0.6111111111111112,0.75,0.13888888888888884,0.6111111111111112,0.6944444444444444,0.08333333333333326,all,My responses were genuinely based on whether I was influenced or not,My responses were genuinely based on whether I was influenced or not,a few,a few,a few,a few,a little republican,"Yes, use my data",,a few,a few,0.013888888888888888,0.05555555555555555,0
100918,12:36:15,896525387,test,2,0,100,6,35,1,3165,78,59,0,0.6111111111111112,0.75,0.13888888888888884,0.6111111111111112,0.6944444444444444,0.08333333333333326,all,My responses were genuinely based on whether I was influenced or not,My responses were genuinely based on whether I was influenced or not,a few,a few,a few,a few,a little republican,"Yes, use my data",,a few,a few,0.013888888888888888,0.05555555555555555,0
100918,12:36:15,896525387,test,2,0,102,2,15,1,1306,78,60,0,0.6111111111111112,0.75,0.13888888888888884,0.6111111111111112,0.6944444444444444,0.08333333333333326,all,My responses were genuinely based on whether I was influenced or not,My responses were genuinely based on whether I was influenced or not,a few,a few,a few,a few,a little republican,"Yes, use my data",,a few,a few,0.013888888888888888,0.05555555555555555,0
100918,12:36:15,896525387,test,2,1,104,1,61,1,612,79,60,0,0.6111111111111112,0.75,0.13888888888888884,0.6111111111111112,0.6944444444444444,0.08333333333333326,all,My responses were genuinely based on whether I was influenced or not,My responses were genuinely based on whether I was influenced or not,a few,a few,a few,a few,a little republican,"Yes, use my data",,a few,a few,0.013888888888888888,0.05555555555555555,0
100918,12:36:15,896525387,test,2,0,106,3,68,1,418,79,62,0,0.6111111111111112,0.75,0.13888888888888884,0.6111111111111112,0.6944444444444444,0.08333333333333326,all,My responses were genuinely based on whether I was influenced or not,My responses were genuinely based on whether I was influenced or not,a few,a few,a few,a few,a little republican,"Yes, use my data",,a few,a few,0.013888888888888888,0.05555555555555555,0
100918,12:36:15,896525387,test,2,0,108,5,65,1,423,79,63,0,0.6111111111111112,0.75,0.13888888888888884,0.6111111111111112,0.6944444444444444,0.08333333333333326,all,My responses were genuinely based on whether I was influenced or not,My responses were genuinely based on whether I was influenced or not,a few,a few,a few,a few,a little republican,"Yes, use my data",,a few,a few,0.013888888888888888,0.05555555555555555,0
100918,12:36:15,896525387,test,2,1,110,4,31,1,357,80,63,0,0.6111111111111112,0.75,0.13888888888888884,0.6111111111111112,0.6944444444444444,0.08333333333333326,all,My responses were genuinely based on whether I was influenced or not,My responses were genuinely based on whether I was influenced or not,a few,a few,a few,a few,a little republican,"Yes, use my data",,a few,a few,0.013888888888888888,0.05555555555555555,0
100918,12:36:15,896525387,test,2,1,112,1,69,1,197,80,63,0,0.6111111111111112,0.75,0.13888888888888884,0.6111111111111112,0.6944444444444444,0.08333333333333326,all,My responses were genuinely based on whether I was influenced or not,My responses were genuinely based on whether I was influenced or not,a few,a few,a few,a few,a little republican,"Yes, use my data",,a few,a few,0.013888888888888888,0.05555555555555555,0
100918,12:36:15,896525387,test,2,1,114,3,34,0,1460,77,63,0,0.6111111111111112,0.75,0.13888888888888884,0.6111111111111112,0.6944444444444444,0.08333333333333326,all,My responses were genuinely based on whether I was influenced or not,My responses were genuinely based on whether I was influenced or not,a few,a few,a few,a few,a little republican,"Yes, use my data",,a few,a few,0.013888888888888888,0.05555555555555555,0
100918,12:36:15,896525387,test,2,0,116,4,26,1,719,77,64,0,0.6111111111111112,0.75,0.13888888888888884,0.6111111111111112,0.6944444444444444,0.08333333333333326,all,My responses were genuinely based on whether I was influenced or not,My responses were genuinely based on whether I was influenced or not,a few,a few,a few,a few,a little republican,"Yes, use my data",,a few,a few,0.013888888888888888,0.05555555555555555,0
100918,12:36:15,896525387,test,2,1,118,5,58,1,488,78,64,0,0.6111111111111112,0.75,0.13888888888888884,0.6111111111111112,0.6944444444444444,0.08333333333333326,all,My responses were genuinely based on whether I was influenced or not,My responses were genuinely based on whether I was influenced or not,a few,a few,a few,a few,a little republican,"Yes, use my data",,a few,a few,0.013888888888888888,0.05555555555555555,0
100918,12:36:15,896525387,test,2,0,120,4,7,0,259,78,62,0,0.6111111111111112,0.75,0.13888888888888884,0.6111111111111112,0.6944444444444444,0.08333333333333326,all,My responses were genuinely based on whether I was influenced or not,My responses were genuinely based on whether I was influenced or not,a few,a few,a few,a few,a little republican,"Yes, use my data",,a few,a few,0.013888888888888888,0.05555555555555555,0
100918,12:36:15,896525387,test,2,1,122,2,18,0,479,75,62,0,0.6111111111111112,0.75,0.13888888888888884,0.6111111111111112,0.6944444444444444,0.08333333333333326,all,My responses were genuinely based on whether I was influenced or not,My responses were genuinely based on whether I was influenced or not,a few,a few,a few,a few,a little republican,"Yes, use my data",,a few,a few,0.013888888888888888,0.05555555555555555,0
100918,12:36:15,896525387,test,2,0,124,1,20,0,451,75,60,0,0.6111111111111112,0.75,0.13888888888888884,0.6111111111111112,0.6944444444444444,0.08333333333333326,all,My responses were genuinely based on whether I was influenced or not,My responses were genuinely based on whether I was influenced or not,a few,a few,a few,a few,a little republican,"Yes, use my data",,a few,a few,0.013888888888888888,0.05555555555555555,0
100918,12:36:15,896525387,test,2,1,126,4,32,0,23,73,60,0,0.6111111111111112,0.75,0.13888888888888884,0.6111111111111112,0.6944444444444444,0.08333333333333326,all,My responses were genuinely based on whether I was influenced or not,My responses were genuinely based on whether I was influenced or not,a few,a few,a few,a few,a little republican,"Yes, use my data",,a few,a few,0.013888888888888888,0.05555555555555555,0
100918,12:36:15,896525387,test,2,0,128,2,29,0,141,73,58,0,0.6111111111111112,0.75,0.13888888888888884,0.6111111111111112,0.6944444444444444,0.08333333333333326,all,My responses were genuinely based on whether I was influenced or not,My responses were genuinely based on whether I was influenced or not,a few,a few,a few,a few,a little republican,"Yes, use my data",,a few,a few,0.013888888888888888,0.05555555555555555,0
100918,12:36:15,896525387,test,2,1,130,6,48,0,286,70,58,0,0.6111111111111112,0.75,0.13888888888888884,0.6111111111111112,0.6944444444444444,0.08333333333333326,all,My responses were genuinely based on whether I was influenced or not,My responses were genuinely based on whether I was influenced or not,a few,a few,a few,a few,a little republican,"Yes, use my data",,a few,a few,0.013888888888888888,0.05555555555555555,0
100918,12:36:15,896525387,test,2,0,132,5,37,1,305,70,60,0,0.6111111111111112,0.75,0.13888888888888884,0.6111111111111112,0.6944444444444444,0.08333333333333326,all,My responses were genuinely based on whether I was influenced or not,My responses were genuinely based on whether I was influenced or not,a few,a few,a few,a few,a little republican,"Yes, use my data",,a few,a few,0.013888888888888888,0.05555555555555555,0
100918,12:36:15,896525387,test,2,1,134,2,47,1,403,71,60,0,0.6111111111111112,0.75,0.13888888888888884,0.6111111111111112,0.6944444444444444,0.08333333333333326,all,My responses were genuinely based on whether I was influenced or not,My responses were genuinely based on whether I was influenced or not,a few,a few,a few,a few,a little republican,"Yes, use my data",,a few,a few,0.013888888888888888,0.05555555555555555,0
100918,12:36:15,896525387,test,2,1,136,3,9,1,137,72,60,0,0.6111111111111112,0.75,0.13888888888888884,0.6111111111111112,0.6944444444444444,0.08333333333333326,all,My responses were genuinely based on whether I was influenced or not,My responses were genuinely based on whether I was influenced or not,a few,a few,a few,a few,a little republican,"Yes, use my data",,a few,a few,0.013888888888888888,0.05555555555555555,0
100918,12:36:15,896525387,test,2,0,138,6,11,1,130,72,61,0,0.6111111111111112,0.75,0.13888888888888884,0.6111111111111112,0.6944444444444444,0.08333333333333326,all,My responses were genuinely based on whether I was influenced or not,My responses were genuinely based on whether I was influenced or not,a few,a few,a few,a few,a little republican,"Yes, use my data",,a few,a few,0.013888888888888888,0.05555555555555555,0
100918,12:36:15,896525387,test,2,1,140,4,13,1,1116,73,61,0,0.6111111111111112,0.75,0.13888888888888884,0.6111111111111112,0.6944444444444444,0.08333333333333326,all,My responses were genuinely based on whether I was influenced or not,My responses were genuinely based on whether I was influenced or not,a few,a few,a few,a few,a little republican,"Yes, use my data",,a few,a few,0.013888888888888888,0.05555555555555555,0
100918,12:36:15,896525387,test,2,1,142,5,45,1,29,74,61,0,0.6111111111111112,0.75,0.13888888888888884,0.6111111111111112,0.6944444444444444,0.08333333333333326,all,My responses were genuinely based on whether I was influenced or not,My responses were genuinely based on whether I was influenced or not,a few,a few,a few,a few,a little republican,"Yes, use my data",,a few,a few,0.013888888888888888,0.05555555555555555,0
100918,12:36:15,896525387,test,2,1,144,6,34,1,307,75,61,0,0.6111111111111112,0.75,0.13888888888888884,0.6111111111111112,0.6944444444444444,0.08333333333333326,all,My responses were genuinely based on whether I was influenced or not,My responses were genuinely based on whether I was influenced or not,a few,a few,a few,a few,a little republican,"Yes, use my data",,a few,a few,0.013888888888888888,0.05555555555555555,0
100918,12:46:36,232565411,test,2,0,2,3,31,0,556,0,0,0,0.05555555555555555,0.1388888888888889,0.08333333333333334,0.9166666666666666,1,0.08333333333333337,I don't know,My responses were genuinely based on whether I was influenced or not,My responses were genuinely based on whether I was influenced or not,none,a few,none,none,very republican,"Yes, use my data",,none,I don't know,0,0,0
100918,12:46:36,232565411,test,2,1,4,6,15,0,281,0,0,0,0.05555555555555555,0.1388888888888889,0.08333333333333334,0.9166666666666666,1,0.08333333333333337,I don't know,My responses were genuinely based on whether I was influenced or not,My responses were genuinely based on whether I was influenced or not,none,a few,none,none,very republican,"Yes, use my data",,none,I don't know,0,0,0
100918,12:46:36,232565411,test,2,1,6,3,67,0,345,0,0,0,0.05555555555555555,0.1388888888888889,0.08333333333333334,0.9166666666666666,1,0.08333333333333337,I don't know,My responses were genuinely based on whether I was influenced or not,My responses were genuinely based on whether I was influenced or not,none,a few,none,none,very republican,"Yes, use my data",,none,I don't know,0,0,0
100918,12:46:36,232565411,test,2,1,8,1,9,0,315,0,0,0,0.05555555555555555,0.1388888888888889,0.08333333333333334,0.9166666666666666,1,0.08333333333333337,I don't know,My responses were genuinely based on whether I was influenced or not,My responses were genuinely based on whether I was influenced or not,none,a few,none,none,very republican,"Yes, use my data",,none,I don't know,0,0,0
100918,12:46:36,232565411,test,2,1,10,6,18,0,586,0,0,0,0.05555555555555555,0.1388888888888889,0.08333333333333334,0.9166666666666666,1,0.08333333333333337,I don't know,My responses were genuinely based on whether I was influenced or not,My responses were genuinely based on whether I was influenced or not,none,a few,none,none,very republican,"Yes, use my data",,none,I don't know,0,0,0
100918,12:46:36,232565411,test,2,0,12,1,62,0,570,0,0,0,0.05555555555555555,0.1388888888888889,0.08333333333333334,0.9166666666666666,1,0.08333333333333337,I don't know,My responses were genuinely based on whether I was influenced or not,My responses were genuinely based on whether I was influenced or not,none,a few,none,none,very republican,"Yes, use my data",,none,I don't know,0,0,0
100918,12:46:36,232565411,test,2,1,14,2,22,0,609,0,0,0,0.05555555555555555,0.1388888888888889,0.08333333333333334,0.9166666666666666,1,0.08333333333333337,I don't know,My responses were genuinely based on whether I was influenced or not,My responses were genuinely based on whether I was influenced or not,none,a few,none,none,very republican,"Yes, use my data",,none,I don't know,0,0,0
100918,12:46:36,232565411,test,2,0,16,5,47,0,530,0,0,0,0.05555555555555555,0.1388888888888889,0.08333333333333334,0.9166666666666666,1,0.08333333333333337,I don't know,My responses were genuinely based on whether I was influenced or not,My responses were genuinely based on whether I was influenced or not,none,a few,none,none,very republican,"Yes, use my data",,none,I don't know,0,0,0
100918,12:46:36,232565411,test,2,1,18,4,4,0,230,0,0,0,0.05555555555555555,0.1388888888888889,0.08333333333333334,0.9166666666666666,1,0.08333333333333337,I don't know,My responses were genuinely based on whether I was influenced or not,My responses were genuinely based on whether I was influenced or not,none,a few,none,none,very republican,"Yes, use my data",,none,I don't know,0,0,0
100918,12:46:36,232565411,test,2,1,20,5,12,0,493,0,0,0,0.05555555555555555,0.1388888888888889,0.08333333333333334,0.9166666666666666,1,0.08333333333333337,I don't know,My responses were genuinely based on whether I was influenced or not,My responses were genuinely based on whether I was influenced or not,none,a few,none,none,very republican,"Yes, use my data",,none,I don't know,0,0,0
100918,12:46:36,232565411,test,2,1,22,5,3,0,585,0,0,0,0.05555555555555555,0.1388888888888889,0.08333333333333334,0.9166666666666666,1,0.08333333333333337,I don't know,My responses were genuinely based on whether I was influenced or not,My responses were genuinely based on whether I was influenced or not,none,a few,none,none,very republican,"Yes, use my data",,none,I don't know,0,0,0
100918,12:46:36,232565411,test,2,0,24,4,59,0,1202,0,0,0,0.05555555555555555,0.1388888888888889,0.08333333333333334,0.9166666666666666,1,0.08333333333333337,I don't know,My responses were genuinely based on whether I was influenced or not,My responses were genuinely based on whether I was influenced or not,none,a few,none,none,very republican,"Yes, use my data",,none,I don't know,0,0,0
100918,12:46:36,232565411,test,2,1,26,6,70,0,477,0,0,0,0.05555555555555555,0.1388888888888889,0.08333333333333334,0.9166666666666666,1,0.08333333333333337,I don't know,My responses were genuinely based on whether I was influenced or not,My responses were genuinely based on whether I was influenced or not,none,a few,none,none,very republican,"Yes, use my data",,none,I don't know,0,0,0
100918,12:46:36,232565411,test,2,0,28,3,1,0,321,0,0,0,0.05555555555555555,0.1388888888888889,0.08333333333333334,0.9166666666666666,1,0.08333333333333337,I don't know,My responses were genuinely based on whether I was influenced or not,My responses were genuinely based on whether I was influenced or not,none,a few,none,none,very republican,"Yes, use my data",,none,I don't know,0,0,0
100918,12:46:36,232565411,test,2,1,30,2,13,0,321,0,0,0,0.05555555555555555,0.1388888888888889,0.08333333333333334,0.9166666666666666,1,0.08333333333333337,I don't know,My responses were genuinely based on whether I was influenced or not,My responses were genuinely based on whether I was influenced or not,none,a few,none,none,very republican,"Yes, use my data",,none,I don't know,0,0,0
100918,12:46:36,232565411,test,2,0,32,2,33,0,361,0,0,0,0.05555555555555555,0.1388888888888889,0.08333333333333334,0.9166666666666666,1,0.08333333333333337,I don't know,My responses were genuinely based on whether I was influenced or not,My responses were genuinely based on whether I was influenced or not,none,a few,none,none,very republican,"Yes, use my data",,none,I don't know,0,0,0
100918,12:46:36,232565411,test,2,1,34,1,36,0,234,0,0,0,0.05555555555555555,0.1388888888888889,0.08333333333333334,0.9166666666666666,1,0.08333333333333337,I don't know,My responses were genuinely based on whether I was influenced or not,My responses were genuinely based on whether I was influenced or not,none,a few,none,none,very republican,"Yes, use my data",,none,I don't know,0,0,0
100918,12:46:36,232565411,test,2,1,36,3,20,0,252,0,0,0,0.05555555555555555,0.1388888888888889,0.08333333333333334,0.9166666666666666,1,0.08333333333333337,I don't know,My responses were genuinely based on whether I was influenced or not,My responses were genuinely based on whether I was influenced or not,none,a few,none,none,very republican,"Yes, use my data",,none,I don't know,0,0,0
100918,12:46:36,232565411,test,2,0,38,6,46,0,286,0,0,0,0.05555555555555555,0.1388888888888889,0.08333333333333334,0.9166666666666666,1,0.08333333333333337,I don't know,My responses were genuinely based on whether I was influenced or not,My responses were genuinely based on whether I was influenced or not,none,a few,none,none,very republican,"Yes, use my data",,none,I don't know,0,0,0
100918,12:46:36,232565411,test,2,0,40,6,72,0,613,0,0,0,0.05555555555555555,0.1388888888888889,0.08333333333333334,0.9166666666666666,1,0.08333333333333337,I don't know,My responses were genuinely based on whether I was influenced or not,My responses were genuinely based on whether I was influenced or not,none,a few,none,none,very republican,"Yes, use my data",,none,I don't know,0,0,0
100918,12:46:36,232565411,test,2,1,42,4,61,0,478,0,0,0,0.05555555555555555,0.1388888888888889,0.08333333333333334,0.9166666666666666,1,0.08333333333333337,I don't know,My responses were genuinely based on whether I was influenced or not,My responses were genuinely based on whether I was influenced or not,none,a few,none,none,very republican,"Yes, use my data",,none,I don't know,0,0,0
100918,12:46:36,232565411,test,2,0,44,4,24,0,432,0,0,0,0.05555555555555555,0.1388888888888889,0.08333333333333334,0.9166666666666666,1,0.08333333333333337,I don't know,My responses were genuinely based on whether I was influenced or not,My responses were genuinely based on whether I was influenced or not,none,a few,none,none,very republican,"Yes, use my data",,none,I don't know,0,0,0
100918,12:46:36,232565411,test,2,0,46,3,68,0,296,0,0,0,0.05555555555555555,0.1388888888888889,0.08333333333333334,0.9166666666666666,1,0.08333333333333337,I don't know,My responses were genuinely based on whether I was influenced or not,My responses were genuinely based on whether I was influenced or not,none,a few,none,none,very republican,"Yes, use my data",,none,I don't know,0,0,0
100918,12:46:36,232565411,test,2,0,48,2,28,0,359,0,0,0,0.05555555555555555,0.1388888888888889,0.08333333333333334,0.9166666666666666,1,0.08333333333333337,I don't know,My responses were genuinely based on whether I was influenced or not,My responses were genuinely based on whether I was influenced or not,none,a few,none,none,very republican,"Yes, use my data",,none,I don't know,0,0,0
100918,12:46:36,232565411,test,2,0,50,1,19,0,538,0,0,0,0.05555555555555555,0.1388888888888889,0.08333333333333334,0.9166666666666666,1,0.08333333333333337,I don't know,My responses were genuinely based on whether I was influenced or not,My responses were genuinely based on whether I was influenced or not,none,a few,none,none,very republican,"Yes, use my data",,none,I don't know,0,0,0
100918,12:46:36,232565411,test,2,0,52,5,52,0,626,0,0,0,0.05555555555555555,0.1388888888888889,0.08333333333333334,0.9166666666666666,1,0.08333333333333337,I don't know,My responses were genuinely based on whether I was influenced or not,My responses were genuinely based on whether I was influenced or not,none,a few,none,none,very republican,"Yes, use my data",,none,I don't know,0,0,0
100918,12:46:36,232565411,test,2,1,54,2,17,1,793,7,0,0,0.05555555555555555,0.1388888888888889,0.08333333333333334,0.9166666666666666,1,0.08333333333333337,I don't know,My responses were genuinely based on whether I was influenced or not,My responses were genuinely based on whether I was influenced or not,none,a few,none,none,very republican,"Yes, use my data",,none,I don't know,0,0,0
100918,12:46:36,232565411,test,2,1,56,1,25,0,571,6,0,0,0.05555555555555555,0.1388888888888889,0.08333333333333334,0.9166666666666666,1,0.08333333333333337,I don't know,My responses were genuinely based on whether I was influenced or not,My responses were genuinely based on whether I was influenced or not,none,a few,none,none,very republican,"Yes, use my data",,none,I don't know,0,0,0
100918,12:46:36,232565411,test,2,1,58,4,53,0,848,6,0,0,0.05555555555555555,0.1388888888888889,0.08333333333333334,0.9166666666666666,1,0.08333333333333337,I don't know,My responses were genuinely based on whether I was influenced or not,My responses were genuinely based on whether I was influenced or not,none,a few,none,none,very republican,"Yes, use my data",,none,I don't know,0,0,0
100918,12:46:36,232565411,test,2,1,60,5,23,1,548,11,0,0,0.05555555555555555,0.1388888888888889,0.08333333333333334,0.9166666666666666,1,0.08333333333333337,I don't know,My responses were genuinely based on whether I was influenced or not,My responses were genuinely based on whether I was influenced or not,none,a few,none,none,very republican,"Yes, use my data",,none,I don't know,0,0,0
100918,12:46:36,232565411,test,2,0,62,5,60,1,735,11,7,0,0.05555555555555555,0.1388888888888889,0.08333333333333334,0.9166666666666666,1,0.08333333333333337,I don't know,My responses were genuinely based on whether I was influenced or not,My responses were genuinely based on whether I was influenced or not,none,a few,none,none,very republican,"Yes, use my data",,none,I don't know,0,0,0
100918,12:46:36,232565411,test,2,0,64,6,26,0,544,11,6,0,0.05555555555555555,0.1388888888888889,0.08333333333333334,0.9166666666666666,1,0.08333333333333337,I don't know,My responses were genuinely based on whether I was influenced or not,My responses were genuinely based on whether I was influenced or not,none,a few,none,none,very republican,"Yes, use my data",,none,I don't know,0,0,0
100918,12:46:36,232565411,test,2,1,66,6,41,0,470,11,6,0,0.05555555555555555,0.1388888888888889,0.08333333333333334,0.9166666666666666,1,0.08333333333333337,I don't know,My responses were genuinely based on whether I was influenced or not,My responses were genuinely based on whether I was influenced or not,none,a few,none,none,very republican,"Yes, use my data",,none,I don't know,0,0,0
100918,12:46:36,232565411,test,2,1,68,3,37,1,857,15,6,0,0.05555555555555555,0.1388888888888889,0.08333333333333334,0.9166666666666666,1,0.08333333333333337,I don't know,My responses were genuinely based on whether I was influenced or not,My responses were genuinely based on whether I was influenced or not,none,a few,none,none,very republican,"Yes, use my data",,none,I don't know,0,0,0
100918,12:46:36,232565411,test,2,1,70,6,39,1,610,20,6,0,0.05555555555555555,0.1388888888888889,0.08333333333333334,0.9166666666666666,1,0.08333333333333337,I don't know,My responses were genuinely based on whether I was influenced or not,My responses were genuinely based on whether I was influenced or not,none,a few,none,none,very republican,"Yes, use my data",,none,I don't know,0,0,0
100918,12:46:36,232565411,test,2,1,72,5,38,1,1061,23,6,0,0.05555555555555555,0.1388888888888889,0.08333333333333334,0.9166666666666666,1,0.08333333333333337,I don't know,My responses were genuinely based on whether I was influenced or not,My responses were genuinely based on whether I was influenced or not,none,a few,none,none,very republican,"Yes, use my data",,none,I don't know,0,0,0
100918,12:46:36,232565411,test,2,0,74,2,10,0,507,23,6,0,0.05555555555555555,0.1388888888888889,0.08333333333333334,0.9166666666666666,1,0.08333333333333337,I don't know,My responses were genuinely based on whether I was influenced or not,My responses were genuinely based on whether I was influenced or not,none,a few,none,none,very republican,"Yes, use my data",,none,I don't know,0,0,0
100918,12:46:36,232565411,test,2,1,76,2,11,0,1216,22,6,0,0.05555555555555555,0.1388888888888889,0.08333333333333334,0.9166666666666666,1,0.08333333333333337,I don't know,My responses were genuinely based on whether I was influenced or not,My responses were genuinely based on whether I was influenced or not,none,a few,none,none,very republican,"Yes, use my data",,none,I don't know,0,0,0
100918,12:46:36,232565411,test,2,0,78,4,34,0,604,22,5,0,0.05555555555555555,0.1388888888888889,0.08333333333333334,0.9166666666666666,1,0.08333333333333337,I don't know,My responses were genuinely based on whether I was influenced or not,My responses were genuinely based on whether I was influenced or not,none,a few,none,none,very republican,"Yes, use my data",,none,I don't know,0,0,0
100918,12:46:36,232565411,test,2,0,80,1,30,0,691,22,5,0,0.05555555555555555,0.1388888888888889,0.08333333333333334,0.9166666666666666,1,0.08333333333333337,I don't know,My responses were genuinely based on whether I was influenced or not,My responses were genuinely based on whether I was influenced or not,none,a few,none,none,very republican,"Yes, use my data",,none,I don't know,0,0,0
100918,12:46:36,232565411,test,2,1,82,1,8,0,440,21,5,0,0.05555555555555555,0.1388888888888889,0.08333333333333334,0.9166666666666666,1,0.08333333333333337,I don't know,My responses were genuinely based on whether I was influenced or not,My responses were genuinely based on whether I was influenced or not,none,a few,none,none,very republican,"Yes, use my data",,none,I don't know,0,0,0
100918,12:46:36,232565411,test,2,0,84,3,44,0,4714,21,5,0,0.05555555555555555,0.1388888888888889,0.08333333333333334,0.9166666666666666,1,0.08333333333333337,I don't know,My responses were genuinely based on whether I was influenced or not,My responses were genuinely based on whether I was influenced or not,none,a few,none,none,very republican,"Yes, use my data",,none,I don't know,0,0,0
100918,12:46:36,232565411,test,2,0,86,3,35,1,791,21,10,0,0.05555555555555555,0.1388888888888889,0.08333333333333334,0.9166666666666666,1,0.08333333333333337,I don't know,My responses were genuinely based on whether I was influenced or not,My responses were genuinely based on whether I was influenced or not,none,a few,none,none,very republican,"Yes, use my data",,none,I don't know,0,0,0
100918,12:46:36,232565411,test,2,0,88,6,21,0,1109,21,9,0,0.05555555555555555,0.1388888888888889,0.08333333333333334,0.9166666666666666,1,0.08333333333333337,I don't know,My responses were genuinely based on whether I was influenced or not,My responses were genuinely based on whether I was influenced or not,none,a few,none,none,very republican,"Yes, use my data",,none,I don't know,0,0,0
100918,12:46:36,232565411,test,2,0,90,5,48,0,704,21,9,0,0.05555555555555555,0.1388888888888889,0.08333333333333334,0.9166666666666666,1,0.08333333333333337,I don't know,My responses were genuinely based on whether I was influenced or not,My responses were genuinely based on whether I was influenced or not,none,a few,none,none,very republican,"Yes, use my data",,none,I don't know,0,0,0
100918,12:46:36,232565411,test,2,0,92,4,40,0,512,21,8,0,0.05555555555555555,0.1388888888888889,0.08333333333333334,0.9166666666666666,1,0.08333333333333337,I don't know,My responses were genuinely based on whether I was influenced or not,My responses were genuinely based on whether I was influenced or not,none,a few,none,none,very republican,"Yes, use my data",,none,I don't know,0,0,0
100918,12:46:36,232565411,test,2,0,94,1,49,0,428,21,8,0,0.05555555555555555,0.1388888888888889,0.08333333333333334,0.9166666666666666,1,0.08333333333333337,I don't know,My responses were genuinely based on whether I was influenced or not,My responses were genuinely based on whether I was influenced or not,none,a few,none,none,very republican,"Yes, use my data",,none,I don't know,0,0,0
100918,12:46:36,232565411,test,2,1,96,3,16,0,583,20,8,0,0.05555555555555555,0.1388888888888889,0.08333333333333334,0.9166666666666666,1,0.08333333333333337,I don't know,My responses were genuinely based on whether I was influenced or not,My responses were genuinely based on whether I was influenced or not,none,a few,none,none,very republican,"Yes, use my data",,none,I don't know,0,0,0
100918,12:46:36,232565411,test,2,0,98,2,27,0,7355,20,8,0,0.05555555555555555,0.1388888888888889,0.08333333333333334,0.9166666666666666,1,0.08333333333333337,I don't know,My responses were genuinely based on whether I was influenced or not,My responses were genuinely based on whether I was influenced or not,none,a few,none,none,very republican,"Yes, use my data",,none,I don't know,0,0,0
100918,12:46:36,232565411,test,2,0,100,1,5,0,391,20,7,0,0.05555555555555555,0.1388888888888889,0.08333333333333334,0.9166666666666666,1,0.08333333333333337,I don't know,My responses were genuinely based on whether I was influenced or not,My responses were genuinely based on whether I was influenced or not,none,a few,none,none,very republican,"Yes, use my data",,none,I don't know,0,0,0
100918,12:46:36,232565411,test,2,0,102,2,6,0,376,20,7,0,0.05555555555555555,0.1388888888888889,0.08333333333333334,0.9166666666666666,1,0.08333333333333337,I don't know,My responses were genuinely based on whether I was influenced or not,My responses were genuinely based on whether I was influenced or not,none,a few,none,none,very republican,"Yes, use my data",,none,I don't know,0,0,0
100918,12:46:36,232565411,test,2,1,104,4,43,0,820,20,7,0,0.05555555555555555,0.1388888888888889,0.08333333333333334,0.9166666666666666,1,0.08333333333333337,I don't know,My responses were genuinely based on whether I was influenced or not,My responses were genuinely based on whether I was influenced or not,none,a few,none,none,very republican,"Yes, use my data",,none,I don't know,0,0,0
100918,12:46:36,232565411,test,2,1,106,3,51,0,504,19,7,0,0.05555555555555555,0.1388888888888889,0.08333333333333334,0.9166666666666666,1,0.08333333333333337,I don't know,My responses were genuinely based on whether I was influenced or not,My responses were genuinely based on whether I was influenced or not,none,a few,none,none,very republican,"Yes, use my data",,none,I don't know,0,0,0
100918,12:46:36,232565411,test,2,0,108,4,14,0,465,19,7,0,0.05555555555555555,0.1388888888888889,0.08333333333333334,0.9166666666666666,1,0.08333333333333337,I don't know,My responses were genuinely based on whether I was influenced or not,My responses were genuinely based on whether I was influenced or not,none,a few,none,none,very republican,"Yes, use my data",,none,I don't know,0,0,0
100918,12:46:36,232565411,test,2,1,110,1,58,0,435,18,7,0,0.05555555555555555,0.1388888888888889,0.08333333333333334,0.9166666666666666,1,0.08333333333333337,I don't know,My responses were genuinely based on whether I was influenced or not,My responses were genuinely based on whether I was influenced or not,none,a few,none,none,very republican,"Yes, use my data",,none,I don't know,0,0,0
100918,12:46:36,232565411,test,2,1,112,4,56,0,609,17,7,0,0.05555555555555555,0.1388888888888889,0.08333333333333334,0.9166666666666666,1,0.08333333333333337,I don't know,My responses were genuinely based on whether I was influenced or not,My responses were genuinely based on whether I was influenced or not,none,a few,none,none,very republican,"Yes, use my data",,none,I don't know,0,0,0
100918,12:46:36,232565411,test,2,0,114,6,57,0,588,17,6,0,0.05555555555555555,0.1388888888888889,0.08333333333333334,0.9166666666666666,1,0.08333333333333337,I don't know,My responses were genuinely based on whether I was influenced or not,My responses were genuinely based on whether I was influenced or not,none,a few,none,none,very republican,"Yes, use my data",,none,I don't know,0,0,0
100918,12:46:36,232565411,test,2,0,116,3,7,0,351,17,6,0,0.05555555555555555,0.1388888888888889,0.08333333333333334,0.9166666666666666,1,0.08333333333333337,I don't know,My responses were genuinely based on whether I was influenced or not,My responses were genuinely based on whether I was influenced or not,none,a few,none,none,very republican,"Yes, use my data",,none,I don't know,0,0,0
100918,12:46:36,232565411,test,2,1,118,5,42,0,417,17,6,0,0.05555555555555555,0.1388888888888889,0.08333333333333334,0.9166666666666666,1,0.08333333333333337,I don't know,My responses were genuinely based on whether I was influenced or not,My responses were genuinely based on whether I was influenced or not,none,a few,none,none,very republican,"Yes, use my data",,none,I don't know,0,0,0
100918,12:46:36,232565411,test,2,0,120,5,50,0,416,17,6,0,0.05555555555555555,0.1388888888888889,0.08333333333333334,0.9166666666666666,1,0.08333333333333337,I don't know,My responses were genuinely based on whether I was influenced or not,My responses were genuinely based on whether I was influenced or not,none,a few,none,none,very republican,"Yes, use my data",,none,I don't know,0,0,0
100918,12:46:36,232565411,test,2,1,122,2,64,0,489,16,6,0,0.05555555555555555,0.1388888888888889,0.08333333333333334,0.9166666666666666,1,0.08333333333333337,I don't know,My responses were genuinely based on whether I was influenced or not,My responses were genuinely based on whether I was influenced or not,none,a few,none,none,very republican,"Yes, use my data",,none,I don't know,0,0,0
100918,12:46:36,232565411,test,2,1,124,6,55,0,203,16,6,0,0.05555555555555555,0.1388888888888889,0.08333333333333334,0.9166666666666666,1,0.08333333333333337,I don't know,My responses were genuinely based on whether I was influenced or not,My responses were genuinely based on whether I was influenced or not,none,a few,none,none,very republican,"Yes, use my data",,none,I don't know,0,0,0
100918,12:46:36,232565411,test,2,1,126,4,59,0,610,15,6,0,0.05555555555555555,0.1388888888888889,0.08333333333333334,0.9166666666666666,1,0.08333333333333337,I don't know,My responses were genuinely based on whether I was influenced or not,My responses were genuinely based on whether I was influenced or not,none,a few,none,none,very republican,"Yes, use my data",,none,I don't know,0,0,0
100918,12:46:36,232565411,test,2,0,128,4,20,0,483,15,6,0,0.05555555555555555,0.1388888888888889,0.08333333333333334,0.9166666666666666,1,0.08333333333333337,I don't know,My responses were genuinely based on whether I was influenced or not,My responses were genuinely based on whether I was influenced or not,none,a few,none,none,very republican,"Yes, use my data",,none,I don't know,0,0,0
100918,12:46:36,232565411,test,2,1,130,3,34,0,581,15,6,0,0.05555555555555555,0.1388888888888889,0.08333333333333334,0.9166666666666666,1,0.08333333333333337,I don't know,My responses were genuinely based on whether I was influenced or not,My responses were genuinely based on whether I was influenced or not,none,a few,none,none,very republican,"Yes, use my data",,none,I don't know,0,0,0
100918,12:46:36,232565411,test,2,0,132,2,23,0,970,15,6,0,0.05555555555555555,0.1388888888888889,0.08333333333333334,0.9166666666666666,1,0.08333333333333337,I don't know,My responses were genuinely based on whether I was influenced or not,My responses were genuinely based on whether I was influenced or not,none,a few,none,none,very republican,"Yes, use my data",,none,I don't know,0,0,0
100918,12:46:36,232565411,test,2,0,134,6,1,0,705,15,5,0,0.05555555555555555,0.1388888888888889,0.08333333333333334,0.9166666666666666,1,0.08333333333333337,I don't know,My responses were genuinely based on whether I was influenced or not,My responses were genuinely based on whether I was influenced or not,none,a few,none,none,very republican,"Yes, use my data",,none,I don't know,0,0,0
100918,12:46:36,232565411,test,2,0,136,3,26,0,636,15,5,0,0.05555555555555555,0.1388888888888889,0.08333333333333334,0.9166666666666666,1,0.08333333333333337,I don't know,My responses were genuinely based on whether I was influenced or not,My responses were genuinely based on whether I was influenced or not,none,a few,none,none,very republican,"Yes, use my data",,none,I don't know,0,0,0
100918,12:46:36,232565411,test,2,1,138,1,31,0,488,14,5,0,0.05555555555555555,0.1388888888888889,0.08333333333333334,0.9166666666666666,1,0.08333333333333337,I don't know,My responses were genuinely based on whether I was influenced or not,My responses were genuinely based on whether I was influenced or not,none,a few,none,none,very republican,"Yes, use my data",,none,I don't know,0,0,0
100918,12:46:36,232565411,test,2,0,140,5,27,0,481,14,5,0,0.05555555555555555,0.1388888888888889,0.08333333333333334,0.9166666666666666,1,0.08333333333333337,I don't know,My responses were genuinely based on whether I was influenced or not,My responses were genuinely based on whether I was influenced or not,none,a few,none,none,very republican,"Yes, use my data",,none,I don't know,0,0,0
100918,12:46:36,232565411,test,2,1,142,6,54,0,2941,14,5,0,0.05555555555555555,0.1388888888888889,0.08333333333333334,0.9166666666666666,1,0.08333333333333337,I don't know,My responses were genuinely based on whether I was influenced or not,My responses were genuinely based on whether I was influenced or not,none,a few,none,none,very republican,"Yes, use my data",,none,I don't know,0,0,0
100918,12:46:36,232565411,test,2,1,144,5,52,0,393,13,5,0,0.05555555555555555,0.1388888888888889,0.08333333333333334,0.9166666666666666,1,0.08333333333333337,I don't know,My responses were genuinely based on whether I was influenced or not,My responses were genuinely based on whether I was influenced or not,none,a few,none,none,very republican,"Yes, use my data",,none,I don't know,0,0,0
100918,09:46:41,313716435,test,2,0,2,6,33,1,409,0,100,0,1,0.1111111111111111,-0.8888888888888888,0.4444444444444444,0.8611111111111112,0.41666666666666674,a few,My responses were genuinely based on whether I was influenced or not,My responses were genuinely based on whether I was influenced or not,most,about half,more than half,less than half,very republican,"Yes, use my data",,a few,a few,0.4166666666666667,0.5694444444444444,0
100918,09:46:41,313716435,test,2,1,4,4,51,0,929,0,100,0,1,0.1111111111111111,-0.8888888888888888,0.4444444444444444,0.8611111111111112,0.41666666666666674,a few,My responses were genuinely based on whether I was influenced or not,My responses were genuinely based on whether I was influenced or not,most,about half,more than half,less than half,very republican,"Yes, use my data",,a few,a few,0.4166666666666667,0.5694444444444444,0
100918,09:46:41,313716435,test,2,1,6,1,26,0,541,0,100,0,1,0.1111111111111111,-0.8888888888888888,0.4444444444444444,0.8611111111111112,0.41666666666666674,a few,My responses were genuinely based on whether I was influenced or not,My responses were genuinely based on whether I was influenced or not,most,about half,more than half,less than half,very republican,"Yes, use my data",,a few,a few,0.4166666666666667,0.5694444444444444,0
100918,09:46:41,313716435,test,2,0,8,5,42,1,313,0,100,1,1,0.1111111111111111,-0.8888888888888888,0.4444444444444444,0.8611111111111112,0.41666666666666674,a few,My responses were genuinely based on whether I was influenced or not,My responses were genuinely based on whether I was influenced or not,most,about half,more than half,less than half,very republican,"Yes, use my data",,a few,a few,0.4166666666666667,0.5694444444444444,0
100918,09:46:41,313716435,test,2,1,10,6,14,0,542,0,100,1,1,0.1111111111111111,-0.8888888888888888,0.4444444444444444,0.8611111111111112,0.41666666666666674,a few,My responses were genuinely based on whether I was influenced or not,My responses were genuinely based on whether I was influenced or not,most,about half,more than half,less than half,very republican,"Yes, use my data",,a few,a few,0.4166666666666667,0.5694444444444444,0
100918,09:46:41,313716435,test,2,0,12,1,34,1,354,0,100,0,1,0.1111111111111111,-0.8888888888888888,0.4444444444444444,0.8611111111111112,0.41666666666666674,a few,My responses were genuinely based on whether I was influenced or not,My responses were genuinely based on whether I was influenced or not,most,about half,more than half,less than half,very republican,"Yes, use my data",,a few,a few,0.4166666666666667,0.5694444444444444,0
100918,09:46:41,313716435,test,2,1,14,5,35,0,853,0,100,0,1,0.1111111111111111,-0.8888888888888888,0.4444444444444444,0.8611111111111112,0.41666666666666674,a few,My responses were genuinely based on whether I was influenced or not,My responses were genuinely based on whether I was influenced or not,most,about half,more than half,less than half,very republican,"Yes, use my data",,a few,a few,0.4166666666666667,0.5694444444444444,0
100918,09:46:41,313716435,test,2,1,16,4,44,0,1307,0,100,1,1,0.1111111111111111,-0.8888888888888888,0.4444444444444444,0.8611111111111112,0.41666666666666674,a few,My responses were genuinely based on whether I was influenced or not,My responses were genuinely based on whether I was influenced or not,most,about half,more than half,less than half,very republican,"Yes, use my data",,a few,a few,0.4166666666666667,0.5694444444444444,0
100918,09:46:41,313716435,test,2,1,18,2,55,0,697,0,100,1,1,0.1111111111111111,-0.8888888888888888,0.4444444444444444,0.8611111111111112,0.41666666666666674,a few,My responses were genuinely based on whether I was influenced or not,My responses were genuinely based on whether I was influenced or not,most,about half,more than half,less than half,very republican,"Yes, use my data",,a few,a few,0.4166666666666667,0.5694444444444444,0
100918,09:46:41,313716435,test,2,0,20,6,6,1,439,0,100,0,1,0.1111111111111111,-0.8888888888888888,0.4444444444444444,0.8611111111111112,0.41666666666666674,a few,My responses were genuinely based on whether I was influenced or not,My responses were genuinely based on whether I was influenced or not,most,about half,more than half,less than half,very republican,"Yes, use my data",,a few,a few,0.4166666666666667,0.5694444444444444,0
100918,09:46:41,313716435,test,2,0,22,4,30,1,406,0,100,0,1,0.1111111111111111,-0.8888888888888888,0.4444444444444444,0.8611111111111112,0.41666666666666674,a few,My responses were genuinely based on whether I was influenced or not,My responses were genuinely based on whether I was influenced or not,most,about half,more than half,less than half,very republican,"Yes, use my data",,a few,a few,0.4166666666666667,0.5694444444444444,0
100918,09:46:41,313716435,test,2,1,24,3,56,0,1095,0,100,1,1,0.1111111111111111,-0.8888888888888888,0.4444444444444444,0.8611111111111112,0.41666666666666674,a few,My responses were genuinely based on whether I was influenced or not,My responses were genuinely based on whether I was influenced or not,most,about half,more than half,less than half,very republican,"Yes, use my data",,a few,a few,0.4166666666666667,0.5694444444444444,0
100918,09:46:41,313716435,test,2,0,26,3,16,1,565,0,100,1,1,0.1111111111111111,-0.8888888888888888,0.4444444444444444,0.8611111111111112,0.41666666666666674,a few,My responses were genuinely based on whether I was influenced or not,My responses were genuinely based on whether I was influenced or not,most,about half,more than half,less than half,very republican,"Yes, use my data",,a few,a few,0.4166666666666667,0.5694444444444444,0
100918,09:46:41,313716435,test,2,0,28,2,8,1,280,0,100,1,1,0.1111111111111111,-0.8888888888888888,0.4444444444444444,0.8611111111111112,0.41666666666666674,a few,My responses were genuinely based on whether I was influenced or not,My responses were genuinely based on whether I was influenced or not,most,about half,more than half,less than half,very republican,"Yes, use my data",,a few,a few,0.4166666666666667,0.5694444444444444,0
100918,09:46:41,313716435,test,2,1,30,3,3,0,991,0,100,0,1,0.1111111111111111,-0.8888888888888888,0.4444444444444444,0.8611111111111112,0.41666666666666674,a few,My responses were genuinely based on whether I was influenced or not,My responses were genuinely based on whether I was influenced or not,most,about half,more than half,less than half,very republican,"Yes, use my data",,a few,a few,0.4166666666666667,0.5694444444444444,0
100918,09:46:41,313716435,test,2,1,32,2,24,0,912,0,100,0,1,0.1111111111111111,-0.8888888888888888,0.4444444444444444,0.8611111111111112,0.41666666666666674,a few,My responses were genuinely based on whether I was influenced or not,My responses were genuinely based on whether I was influenced or not,most,about half,more than half,less than half,very republican,"Yes, use my data",,a few,a few,0.4166666666666667,0.5694444444444444,0
100918,09:46:41,313716435,test,2,0,34,4,66,1,1148,0,100,1,1,0.1111111111111111,-0.8888888888888888,0.4444444444444444,0.8611111111111112,0.41666666666666674,a few,My responses were genuinely based on whether I was influenced or not,My responses were genuinely based on whether I was influenced or not,most,about half,more than half,less than half,very republican,"Yes, use my data",,a few,a few,0.4166666666666667,0.5694444444444444,0
100918,09:46:41,313716435,test,2,1,36,5,19,0,2353,0,100,1,1,0.1111111111111111,-0.8888888888888888,0.4444444444444444,0.8611111111111112,0.41666666666666674,a few,My responses were genuinely based on whether I was influenced or not,My responses were genuinely based on whether I was influenced or not,most,about half,more than half,less than half,very republican,"Yes, use my data",,a few,a few,0.4166666666666667,0.5694444444444444,0
100918,09:46:41,313716435,test,2,0,38,3,10,1,452,0,100,1,1,0.1111111111111111,-0.8888888888888888,0.4444444444444444,0.8611111111111112,0.41666666666666674,a few,My responses were genuinely based on whether I was influenced or not,My responses were genuinely based on whether I was influenced or not,most,about half,more than half,less than half,very republican,"Yes, use my data",,a few,a few,0.4166666666666667,0.5694444444444444,0
100918,09:46:41,313716435,test,2,1,40,6,54,0,619,0,100,0,1,0.1111111111111111,-0.8888888888888888,0.4444444444444444,0.8611111111111112,0.41666666666666674,a few,My responses were genuinely based on whether I was influenced or not,My responses were genuinely based on whether I was influenced or not,most,about half,more than half,less than half,very republican,"Yes, use my data",,a few,a few,0.4166666666666667,0.5694444444444444,0
100918,09:46:41,313716435,test,2,0,42,2,22,1,251,0,100,1,1,0.1111111111111111,-0.8888888888888888,0.4444444444444444,0.8611111111111112,0.41666666666666674,a few,My responses were genuinely based on whether I was influenced or not,My responses were genuinely based on whether I was influenced or not,most,about half,more than half,less than half,very republican,"Yes, use my data",,a few,a few,0.4166666666666667,0.5694444444444444,0
100918,09:46:41,313716435,test,2,1,44,4,18,1,2522,8,100,1,1,0.1111111111111111,-0.8888888888888888,0.4444444444444444,0.8611111111111112,0.41666666666666674,a few,My responses were genuinely based on whether I was influenced or not,My responses were genuinely based on whether I was influenced or not,most,about half,more than half,less than half,very republican,"Yes, use my data",,a few,a few,0.4166666666666667,0.5694444444444444,0
100918,09:46:41,313716435,test,2,0,46,6,31,1,335,8,100,0,1,0.1111111111111111,-0.8888888888888888,0.4444444444444444,0.8611111111111112,0.41666666666666674,a few,My responses were genuinely based on whether I was influenced or not,My responses were genuinely based on whether I was influenced or not,most,about half,more than half,less than half,very republican,"Yes, use my data",,a few,a few,0.4166666666666667,0.5694444444444444,0
