"","V1","date","time","group","subject","build","blocknum","trialnum","blockcode","trialcode","pretrialpause","posttrialpause","windowcenter","trialduration","trialtimeout","blocktimeout","response","correct","latency","inwindow"
"1",1,71218,"15:13:16",45790130,787416013,"4.0.10.0",1,2,"demographics","age",0,0,0,0,0,0,"38",1,2910,0
"2",2,71218,"15:13:16",45790130,787416013,"4.0.10.0",1,3,"demographics","gender",0,0,0,0,0,0,"Male",1,3077,0
"3",3,71218,"15:14:06",94479736,148697371,"4.0.10.0",1,2,"demographics","age",0,0,0,0,0,0,"33",1,2264,0
"4",4,71218,"15:14:06",94479736,148697371,"4.0.10.0",1,3,"demographics","gender",0,0,0,0,0,0,"Male",1,3284,0
"5",5,71218,"15:17:26",697148441,493020342,"4.0.10.0",1,2,"demographics","age",0,0,0,0,0,0,"33",1,6678,0
"6",6,71218,"15:17:26",697148441,493020342,"4.0.10.0",1,3,"demographics","gender",0,0,0,0,0,0,"female",1,4627,0
"7",7,71218,"15:18:55",761197788,424504674,"4.0.10.0",1,2,"demographics","age",0,0,0,0,0,0,"28",1,3048,0
"8",8,71218,"15:18:55",761197788,424504674,"4.0.10.0",1,3,"demographics","gender",0,0,0,0,0,0,"female",1,4042,0
"9",9,71218,"15:22:27",832467329,883659666,"4.0.10.0",1,2,"demographics","age",0,0,0,0,0,0,"30",1,2766,0
"10",10,71218,"15:22:27",832467329,883659666,"4.0.10.0",1,3,"demographics","gender",0,0,0,0,0,0,"male",1,3969,0
"11",11,71218,"15:22:52",558161958,46903798,"4.0.10.0",1,2,"demographics","age",0,0,0,0,0,0,"60",1,4278,0
"12",12,71218,"15:22:52",558161958,46903798,"4.0.10.0",1,3,"demographics","gender",0,0,0,0,0,0,"female",1,6042,0
"13",13,71218,"15:28:40",131692243,488167179,"4.0.10.0",1,2,"demographics","age",0,0,0,0,0,0,"32",1,2277,0
"14",14,71218,"15:28:40",131692243,488167179,"4.0.10.0",1,3,"demographics","gender",0,0,0,0,0,0,"female",1,3209,0
"15",15,71218,"15:29:38",750647352,28512505,"4.0.10.0",1,2,"demographics","age",0,0,0,0,0,0,"35",1,10869,0
"16",16,71218,"15:29:38",750647352,28512505,"4.0.10.0",1,3,"demographics","gender",0,0,0,0,0,0,"Female",1,5134,0
"17",17,71218,"15:31:58",590826703,74695784,"4.0.10.0",1,2,"demographics","age",0,0,0,0,0,0,"29",1,2696,0
"18",18,71218,"15:31:58",590826703,74695784,"4.0.10.0",1,3,"demographics","gender",0,0,0,0,0,0,"male",1,2307,0
"19",19,71218,"15:33:25",857942750,752504405,"4.0.10.0",1,2,"demographics","age",0,0,0,0,0,0,"39",1,2263,0
"20",20,71218,"15:33:25",857942750,752504405,"4.0.10.0",1,3,"demographics","gender",0,0,0,0,0,0,"f",1,2436,0
"21",21,71218,"15:33:28",590826703,74695784,"4.0.10.0",1,2,"demographics","age",0,0,0,0,0,0,"29",1,53950,0
"22",22,71218,"15:33:28",590826703,74695784,"4.0.10.0",1,3,"demographics","gender",0,0,0,0,0,0,"male",1,21360,0
"23",23,71218,"15:38:48",628784538,682413259,"4.0.10.0",1,2,"demographics","age",0,0,0,0,0,0,"26",1,2948,0
"24",24,71218,"15:38:48",628784538,682413259,"4.0.10.0",1,3,"demographics","gender",0,0,0,0,0,0,"female",1,3951,0
"25",25,71218,"10:39:29",117844292,606586116,"4.0.10.0",1,2,"demographics","age",0,0,0,0,0,0,"28",1,2650,0
"26",26,71218,"10:39:29",117844292,606586116,"4.0.10.0",1,3,"demographics","gender",0,0,0,0,0,0,"Female",1,2813,0
"27",27,71218,"09:42:01",130661988,560873965,"4.0.10.0",1,2,"demographics","age",0,0,0,0,0,0,"26",1,3539,0
"28",28,71218,"09:42:01",130661988,560873965,"4.0.10.0",1,3,"demographics","gender",0,0,0,0,0,0,"Female",1,3983,0
"29",29,71218,"16:48:57",196470792,938096670,"4.0.10.0",1,2,"demographics","age",0,0,0,0,0,0,"26",1,3546,0
"30",30,71218,"16:48:57",196470792,938096670,"4.0.10.0",1,3,"demographics","gender",0,0,0,0,0,0,"Male",1,4009,0
"31",31,71218,"15:50:46",852726307,496840284,"4.0.10.0",1,2,"demographics","age",0,0,0,0,0,0,"26",1,4735,0
"32",32,71218,"15:50:46",852726307,496840284,"4.0.10.0",1,3,"demographics","gender",0,0,0,0,0,0,"Female",1,6678,0
"33",33,71218,"10:51:50",90788605,423794130,"4.0.10.0",1,2,"demographics","age",0,0,0,0,0,0,"45",1,3691,0
"34",34,71218,"10:51:50",90788605,423794130,"4.0.10.0",1,3,"demographics","gender",0,0,0,0,0,0,"Female",1,6260,0
"35",35,71218,"15:53:43",307261225,407826805,"4.0.10.0",1,2,"demographics","age",0,0,0,0,0,0,"23",1,2989,0
"36",36,71218,"15:53:43",307261225,407826805,"4.0.10.0",1,3,"demographics","gender",0,0,0,0,0,0,"Male",1,3284,0
"37",37,71218,"15:54:46",307261225,407826805,"4.0.10.0",1,2,"demographics","age",0,0,0,0,0,0,"23",1,1428,0
"38",38,71218,"15:54:46",307261225,407826805,"4.0.10.0",1,3,"demographics","gender",0,0,0,0,0,0,"Male",1,2225,0
"39",39,71218,"15:56:22",435053026,489270658,"4.0.10.0",1,2,"demographics","age",0,0,0,0,0,0,"42",1,3349,0
"40",40,71218,"15:56:22",435053026,489270658,"4.0.10.0",1,3,"demographics","gender",0,0,0,0,0,0,"Female",1,5388,0
"41",41,71218,"15:57:29",783468118,377619931,"4.0.10.0",1,2,"demographics","age",0,0,0,0,0,0,"26",1,3475,0
"42",42,71218,"15:57:29",783468118,377619931,"4.0.10.0",1,3,"demographics","gender",0,0,0,0,0,0,"male",1,3528,0
"43",43,71218,"09:59:45",846694006,593781581,"4.0.10.0",1,2,"demographics","age",0,0,0,0,0,0,"24",1,6664,0
"44",44,71218,"09:59:45",846694006,593781581,"4.0.10.0",1,3,"demographics","gender",0,0,0,0,0,0,"male",1,3950,0
"45",45,71218,"16:02:16",526192182,624910305,"4.0.10.0",1,2,"demographics","age",0,0,0,0,0,0,"39",1,3955,0
"46",46,71218,"16:02:16",526192182,624910305,"4.0.10.0",1,3,"demographics","gender",0,0,0,0,0,0,"female",1,9365,0
"47",47,71218,"16:02:45",336116221,83203792,"4.0.10.0",1,2,"demographics","age",0,0,0,0,0,0,"24",1,3329,0
"48",48,71218,"16:02:45",336116221,83203792,"4.0.10.0",1,3,"demographics","gender",0,0,0,0,0,0,"male",1,4289,0
"49",49,71218,"11:06:21",627371688,64892823,"4.0.10.0",1,2,"demographics","age",0,0,0,0,0,0,"40",1,3250,0
"50",50,71218,"11:06:21",627371688,64892823,"4.0.10.0",1,3,"demographics","gender",0,0,0,0,0,0,"female",1,6509,0
"51",51,71218,"11:07:37",627371688,64892823,"4.0.10.0",1,2,"demographics","age",0,0,0,0,0,0,"40",1,2635,0
"52",52,71218,"11:07:37",627371688,64892823,"4.0.10.0",1,3,"demographics","gender",0,0,0,0,0,0,"female",1,4147,0
"53",53,71218,"16:09:20",323863338,530427812,"4.0.10.0",1,2,"demographics","age",0,0,0,0,0,0,"40",1,3602,0
"54",54,71218,"16:09:20",323863338,530427812,"4.0.10.0",1,3,"demographics","gender",0,0,0,0,0,0,"m",1,2425,0
"55",55,71318,"01:10:48",463061784,595598426,"4.0.10.0",1,2,"demographics","age",0,0,0,0,0,0,"31",1,4015,0
"56",56,71318,"01:10:48",463061784,595598426,"4.0.10.0",1,3,"demographics","gender",0,0,0,0,0,0,"Female",1,3784,0
"57",57,71218,"16:12:04",322117296,117989195,"4.0.10.0",1,2,"demographics","age",0,0,0,0,0,0,"38",1,5283,0
"58",58,71218,"16:12:04",322117296,117989195,"4.0.10.0",1,3,"demographics","gender",0,0,0,0,0,0,"Male",1,4848,0
"59",59,71218,"16:13:21",848463422,55027911,"4.0.10.0",1,2,"demographics","age",0,0,0,0,0,0,"40",1,2336,0
"60",60,71218,"16:13:21",848463422,55027911,"4.0.10.0",1,3,"demographics","gender",0,0,0,0,0,0,"m",1,1432,0
"61",61,71218,"11:13:46",214834459,35659067,"4.0.10.0",1,2,"demographics","age",0,0,0,0,0,0,"19",1,3431,0
"62",62,71218,"11:13:46",214834459,35659067,"4.0.10.0",1,3,"demographics","gender",0,0,0,0,0,0,"Female",1,4568,0
"63",63,71218,"16:14:23",354827178,838696243,"4.0.10.0",1,2,"demographics","age",0,0,0,0,0,0,"28",1,4475,0
"64",64,71218,"16:14:23",354827178,838696243,"4.0.10.0",1,3,"demographics","gender",0,0,0,0,0,0,"Female",1,5530,0
"65",65,71218,"11:15:01",128127096,921562599,"4.0.10.0",1,2,"demographics","age",0,0,0,0,0,0,"19",1,2635,0
"66",66,71218,"11:15:01",128127096,921562599,"4.0.10.0",1,3,"demographics","gender",0,0,0,0,0,0,"Female",1,3013,0
"67",67,71218,"11:16:27",128127096,921562599,"4.0.10.0",1,2,"demographics","age",0,0,0,0,0,0,"19",1,3592,0
"68",68,71218,"11:16:27",128127096,921562599,"4.0.10.0",1,3,"demographics","gender",0,0,0,0,0,0,"Female",1,3049,0
"69",69,71218,"16:17:09",515248424,183137276,"4.0.10.0",1,2,"demographics","age",0,0,0,0,0,0,"38",1,3602,0
"70",70,71218,"16:17:09",515248424,183137276,"4.0.10.0",1,3,"demographics","gender",0,0,0,0,0,0,"Female",1,4055,0
"71",71,71218,"10:16:53",574210406,242688177,"4.0.10.0",1,2,"demographics","age",0,0,0,0,0,0,"25",1,4095,0
"72",72,71218,"10:16:53",574210406,242688177,"4.0.10.0",1,3,"demographics","gender",0,0,0,0,0,0,"Male",1,5821,0
"73",73,71218,"16:17:14",703918719,293786693,"4.0.10.0",1,2,"demographics","age",0,0,0,0,0,0,"49",1,3708,0
"74",74,71218,"16:17:14",703918719,293786693,"4.0.10.0",1,3,"demographics","gender",0,0,0,0,0,0,"Female",1,4405,0
"75",75,71218,"12:47:44",202835742,386883880,"4.0.10.0",1,2,"demographics","age",0,0,0,0,0,0,"60",1,5768,0
"76",76,71218,"12:47:44",202835742,386883880,"4.0.10.0",1,3,"demographics","gender",0,0,0,0,0,0,"male",1,6240,0
"77",77,71218,"11:18:59",830440203,651264817,"4.0.10.0",1,2,"demographics","age",0,0,0,0,0,0,"39",1,2627,0
"78",78,71218,"11:18:59",830440203,651264817,"4.0.10.0",1,3,"demographics","gender",0,0,0,0,0,0,"female",1,3016,0
"79",79,71218,"16:20:37",42263210,604742078,"4.0.10.0",1,2,"demographics","age",0,0,0,0,0,0,"28",1,2848,0
"80",80,71218,"16:20:37",42263210,604742078,"4.0.10.0",1,3,"demographics","gender",0,0,0,0,0,0,"Female",1,3204,0
"81",81,71218,"16:20:49",168571909,188996986,"4.0.10.0",1,2,"demographics","age",0,0,0,0,0,0,"21",1,4653,0
"82",82,71218,"16:20:49",168571909,188996986,"4.0.10.0",1,3,"demographics","gender",0,0,0,0,0,0,"Female",1,4235,0
"83",83,71218,"16:21:17",984318860,235085710,"4.0.10.0",1,2,"demographics","age",0,0,0,0,0,0,"33",1,1901,0
"84",84,71218,"16:21:17",984318860,235085710,"4.0.10.0",1,3,"demographics","gender",0,0,0,0,0,0,"Female",1,3729,0
"85",85,71218,"16:23:54",984318860,235085710,"4.0.10.0",1,2,"demographics","age",0,0,0,0,0,0,"33",1,2144,0
"86",86,71218,"16:23:54",984318860,235085710,"4.0.10.0",1,3,"demographics","gender",0,0,0,0,0,0,"Female",1,3816,0
"87",87,71218,"11:25:21",182135475,904270315,"4.0.10.0",1,2,"demographics","age",0,0,0,0,0,0,"37",1,3158,0
"88",88,71218,"11:25:21",182135475,904270315,"4.0.10.0",1,3,"demographics","gender",0,0,0,0,0,0,"male",1,5414,0
"89",89,71218,"11:24:56",429997601,483328186,"4.0.10.0",1,2,"demographics","age",0,0,0,0,0,0,"40",1,3700,0
"90",90,71218,"11:24:56",429997601,483328186,"4.0.10.0",1,3,"demographics","gender",0,0,0,0,0,0,"male",1,3431,0
"91",91,71218,"11:25:42",63669529,964951392,"4.0.10.0",1,2,"demographics","age",0,0,0,0,0,0,"23",1,2274,0
"92",92,71218,"11:25:42",63669529,964951392,"4.0.10.0",1,3,"demographics","gender",0,0,0,0,0,0,"Female",1,3409,0
"93",93,71218,"11:54:12",988879703,168644019,"4.0.10.0",1,2,"demographics","age",0,0,0,0,0,0,"22",1,2882,0
"94",94,71218,"11:54:12",988879703,168644019,"4.0.10.0",1,3,"demographics","gender",0,0,0,0,0,0,"female",1,2892,0
"95",95,71218,"11:27:14",182135475,904270315,"4.0.10.0",1,2,"demographics","age",0,0,0,0,0,0,"37",1,2720,0
"96",96,71218,"11:27:14",182135475,904270315,"4.0.10.0",1,3,"demographics","gender",0,0,0,0,0,0,"male",1,4200,0
"97",97,71218,"11:27:27",429997601,483328186,"4.0.10.0",1,2,"demographics","age",0,0,0,0,0,0,"40",1,4057,0
"98",98,71218,"11:27:27",429997601,483328186,"4.0.10.0",1,3,"demographics","gender",0,0,0,0,0,0,"male",1,1708,0
"99",99,71218,"11:27:11",54877366,538746433,"4.0.10.0",1,2,"demographics","age",0,0,0,0,0,0,"25",1,5762,0
"100",100,71218,"11:27:11",54877366,538746433,"4.0.10.0",1,3,"demographics","gender",0,0,0,0,0,0,"Male",1,4132,0
"101",101,71218,"11:56:22",988879703,168644019,"4.0.10.0",1,2,"demographics","age",0,0,0,0,0,0,"49",1,3906,0
"102",102,71218,"11:56:22",988879703,168644019,"4.0.10.0",1,3,"demographics","gender",0,0,0,0,0,0,"female",1,1869,0
"103",103,71218,"11:27:45",687293507,640973929,"4.0.10.0",1,2,"demographics","age",0,0,0,0,0,0,"21",1,3352,0
"104",104,71218,"11:27:45",687293507,640973929,"4.0.10.0",1,3,"demographics","gender",0,0,0,0,0,0,"F",1,3060,0
"105",105,71218,"10:28:31",983755299,467624381,"4.0.10.0",1,2,"demographics","age",0,0,0,0,0,0,"26",1,4320,0
"106",106,71218,"10:28:31",983755299,467624381,"4.0.10.0",1,3,"demographics","gender",0,0,0,0,0,0,"female",1,5759,0
"107",107,71218,"16:28:49",923909836,282821167,"4.0.10.0",1,2,"demographics","age",0,0,0,0,0,0,"48",1,3409,0
"108",108,71218,"16:28:49",923909836,282821167,"4.0.10.0",1,3,"demographics","gender",0,0,0,0,0,0,"male",1,4775,0
"109",109,71218,"10:30:23",902456789,492324762,"4.0.10.0",1,2,"demographics","age",0,0,0,0,0,0,"53",1,9836,0
"110",110,71218,"10:30:23",902456789,492324762,"4.0.10.0",1,3,"demographics","gender",0,0,0,0,0,0,"female",1,6647,0
"111",111,71218,"10:33:09",983755299,467624381,"4.0.10.0",1,2,"demographics","age",0,0,0,0,0,0,"26",1,3284,0
"112",112,71218,"10:33:09",983755299,467624381,"4.0.10.0",1,3,"demographics","gender",0,0,0,0,0,0,"female",1,3263,0
"113",113,71218,"11:34:28",290971467,91716124,"4.0.10.0",1,2,"demographics","age",0,0,0,0,0,0,"34",1,2385,0
"114",114,71218,"11:34:28",290971467,91716124,"4.0.10.0",1,3,"demographics","gender",0,0,0,0,0,0,"Male",1,4047,0
"115",115,71218,"16:35:32",818384788,917102915,"4.0.10.0",1,2,"demographics","age",0,0,0,0,0,0,"35",1,6276,0
"116",116,71218,"16:35:32",818384788,917102915,"4.0.10.0",1,3,"demographics","gender",0,0,0,0,0,0,"male",1,3605,0
"117",117,71218,"16:34:40",387456815,572093872,"4.0.10.0",1,2,"demographics","age",0,0,0,0,0,0,"53",1,6291,0
"118",118,71218,"16:34:40",387456815,572093872,"4.0.10.0",1,3,"demographics","gender",0,0,0,0,0,0,"female",1,12363,0
"119",119,71218,"11:36:00",835828023,550951876,"4.0.10.0",1,2,"demographics","age",0,0,0,0,0,0,"21",1,3696,0
"120",120,71218,"11:36:00",835828023,550951876,"4.0.10.0",1,3,"demographics","gender",0,0,0,0,0,0,"Female",1,4339,0
"121",121,71218,"16:36:44",847952058,727604649,"4.0.10.0",1,2,"demographics","age",0,0,0,0,0,0,"54",1,4745,0
"122",122,71218,"16:36:44",847952058,727604649,"4.0.10.0",1,3,"demographics","gender",0,0,0,0,0,0,"Female",1,6698,0
"123",123,71218,"16:36:52",891811249,169676400,"4.0.10.0",1,2,"demographics","age",0,0,0,0,0,0,"57",1,5225,0
"124",124,71218,"16:36:52",891811249,169676400,"4.0.10.0",1,3,"demographics","gender",0,0,0,0,0,0,"man",1,4769,0
"125",125,71218,"11:39:22",335078861,672062759,"4.0.10.0",1,2,"demographics","age",0,0,0,0,0,0,"59",1,3648,0
"126",126,71218,"11:39:22",335078861,672062759,"4.0.10.0",1,3,"demographics","gender",0,0,0,0,0,0,"female",1,5352,0
"127",127,71218,"10:39:56",16788438,117942941,"4.0.10.0",1,2,"demographics","age",0,0,0,0,0,0,"19",1,2378,0
"128",128,71218,"10:39:56",16788438,117942941,"4.0.10.0",1,3,"demographics","gender",0,0,0,0,0,0,"Male",1,4166,0
"129",129,71218,"16:40:38",820466223,105051600,"4.0.10.0",1,2,"demographics","age",0,0,0,0,0,0,"29",1,3131,0
"130",130,71218,"16:40:38",820466223,105051600,"4.0.10.0",1,3,"demographics","gender",0,0,0,0,0,0,"female",1,5091,0
"131",131,71218,"11:40:52",335078861,672062759,"4.0.10.0",1,2,"demographics","age",0,0,0,0,0,0,"59",1,3125,0
"132",132,71218,"11:40:52",335078861,672062759,"4.0.10.0",1,3,"demographics","gender",0,0,0,0,0,0,"female",1,6209,0
"133",133,71218,"16:40:49",824528212,109411715,"4.0.10.0",1,2,"demographics","age",0,0,0,0,0,0,"63",1,3581,0
"134",134,71218,"16:40:49",824528212,109411715,"4.0.10.0",1,3,"demographics","gender",0,0,0,0,0,0,"female",1,4802,0
"135",135,71218,"11:42:14",278972691,153454388,"4.0.10.0",1,2,"demographics","age",0,0,0,0,0,0,"28",1,2467,0
"136",136,71218,"11:42:14",278972691,153454388,"4.0.10.0",1,3,"demographics","gender",0,0,0,0,0,0,"male",1,3750,0
"137",137,71218,"16:42:27",492231266,519369227,"4.0.10.0",1,2,"demographics","age",0,0,0,0,0,0,"47",1,4547,0
"138",138,71218,"16:42:27",492231266,519369227,"4.0.10.0",1,3,"demographics","gender",0,0,0,0,0,0,"female",1,4583,0
"139",139,71218,"11:42:48",754969752,39555132,"4.0.10.0",1,2,"demographics","age",0,0,0,0,0,0,"29",1,2723,0
"140",140,71218,"11:42:48",754969752,39555132,"4.0.10.0",1,3,"demographics","gender",0,0,0,0,0,0,"Male",1,3450,0
"141",141,71218,"18:42:34",745953226,878191753,"4.0.10.0",1,2,"demographics","age",0,0,0,0,0,0,"34",1,3870,0
"142",142,71218,"18:42:34",745953226,878191753,"4.0.10.0",1,3,"demographics","gender",0,0,0,0,0,0,"male",1,2960,0
"143",143,71218,"16:44:53",912764514,403942731,"4.0.10.0",1,2,"demographics","age",0,0,0,0,0,0,"43",1,4808,0
"144",144,71218,"16:44:53",912764514,403942731,"4.0.10.0",1,3,"demographics","gender",0,0,0,0,0,0,"male",1,4902,0
"145",145,71218,"11:44:39",421127885,217588699,"4.0.10.0",1,2,"demographics","age",0,0,0,0,0,0,"30",1,3641,0
"146",146,71218,"11:44:39",421127885,217588699,"4.0.10.0",1,3,"demographics","gender",0,0,0,0,0,0,"male",1,3474,0
"147",147,71218,"18:45:40",745953226,878191753,"4.0.10.0",1,2,"demographics","age",0,0,0,0,0,0,"34",1,2647,0
"148",148,71218,"18:45:40",745953226,878191753,"4.0.10.0",1,3,"demographics","gender",0,0,0,0,0,0,"male",1,2659,0
"149",149,71218,"16:45:54",925629406,132510654,"4.0.10.0",1,2,"demographics","age",0,0,0,0,0,0,"30",1,3233,0
"150",150,71218,"16:45:54",925629406,132510654,"4.0.10.0",1,3,"demographics","gender",0,0,0,0,0,0,"female",1,5372,0
"151",151,71218,"11:43:39",247601558,63553405,"4.0.10.0",1,2,"demographics","age",0,0,0,0,0,0,"42",1,5150,0
"152",152,71218,"11:43:39",247601558,63553405,"4.0.10.0",1,3,"demographics","gender",0,0,0,0,0,0,"female",1,3933,0
"153",153,71218,"11:46:17",61976408,115605122,"4.0.10.0",1,2,"demographics","age",0,0,0,0,0,0,"34",1,3375,0
"154",154,71218,"11:46:17",61976408,115605122,"4.0.10.0",1,3,"demographics","gender",0,0,0,0,0,0,"Male",1,4119,0
"155",155,71218,"08:46:11",843963319,719033942,"4.0.10.0",1,2,"demographics","age",0,0,0,0,0,0,"34",1,3582,0
"156",156,71218,"08:46:11",843963319,719033942,"4.0.10.0",1,3,"demographics","gender",0,0,0,0,0,0,"male",1,3411,0
"157",157,71218,"16:47:45",920738427,795809044,"4.0.10.0",1,2,"demographics","age",0,0,0,0,0,0,"43",1,3239,0
"158",158,71218,"16:47:45",920738427,795809044,"4.0.10.0",1,3,"demographics","gender",0,0,0,0,0,0,"male",1,8821,0
"159",159,71218,"16:47:58",718173514,943848000,"4.0.10.0",1,2,"demographics","age",0,0,0,0,0,0,"35",1,2850,0
"160",160,71218,"16:47:58",718173514,943848000,"4.0.10.0",1,3,"demographics","gender",0,0,0,0,0,0,"Female",1,3973,0
"161",161,71218,"11:47:59",899137125,773928249,"4.0.10.0",1,2,"demographics","age",0,0,0,0,0,0,"22",1,2238,0
"162",162,71218,"11:47:59",899137125,773928249,"4.0.10.0",1,3,"demographics","gender",0,0,0,0,0,0,"Male",1,3853,0
"163",163,71218,"16:49:19",330730898,661377369,"4.0.10.0",1,2,"demographics","age",0,0,0,0,0,0,"55",1,4911,0
"164",164,71218,"16:49:19",330730898,661377369,"4.0.10.0",1,3,"demographics","gender",0,0,0,0,0,0,"Female",1,6130,0
"165",165,71218,"11:49:12",899137125,773928249,"4.0.10.0",1,2,"demographics","age",0,0,0,0,0,0,"22",1,1848,0
"166",166,71218,"11:49:12",899137125,773928249,"4.0.10.0",1,3,"demographics","gender",0,0,0,0,0,0,"Male",1,2788,0
"167",167,71218,"16:47:02",905846531,4564664,"4.0.10.0",1,2,"demographics","age",0,0,0,0,0,0,"25",1,3704,0
"168",168,71218,"16:47:02",905846531,4564664,"4.0.10.0",1,3,"demographics","gender",0,0,0,0,0,0,"Female",1,5092,0
"169",169,71218,"09:50:05",200237172,99082660,"4.0.10.0",1,2,"demographics","age",0,0,0,0,0,0,"38",1,3822,0
"170",170,71218,"09:50:05",200237172,99082660,"4.0.10.0",1,3,"demographics","gender",0,0,0,0,0,0,"male",1,4048,0
"171",171,71218,"10:50:20",755240669,68261646,"4.0.10.0",1,2,"demographics","age",0,0,0,0,0,0,"56",1,3468,0
"172",172,71218,"10:50:20",755240669,68261646,"4.0.10.0",1,3,"demographics","gender",0,0,0,0,0,0,"Female",1,4214,0
"173",173,71218,"09:50:57",260395592,7483157,"4.0.10.0",1,2,"demographics","age",0,0,0,0,0,0,"33",1,3243,0
"174",174,71218,"09:50:57",260395592,7483157,"4.0.10.0",1,3,"demographics","gender",0,0,0,0,0,0,"Female",1,2841,0
"175",175,71218,"16:52:09",381219479,433913745,"4.0.10.0",1,2,"demographics","age",0,0,0,0,0,0,"29",1,3435,0
"176",176,71218,"16:52:09",381219479,433913745,"4.0.10.0",1,3,"demographics","gender",0,0,0,0,0,0,"female",1,5577,0
"177",177,71218,"11:51:59",113589497,602920235,"4.0.10.0",1,2,"demographics","age",0,0,0,0,0,0,"22",1,2238,0
"178",178,71218,"11:51:59",113589497,602920235,"4.0.10.0",1,3,"demographics","gender",0,0,0,0,0,0,"female",1,3377,0
"179",179,71218,"10:53:27",849050083,716811565,"4.0.10.0",1,2,"demographics","age",0,0,0,0,0,0,"56",1,3844,0
"180",180,71218,"10:53:27",849050083,716811565,"4.0.10.0",1,3,"demographics","gender",0,0,0,0,0,0,"Female",1,4157,0
"181",181,71218,"16:53:56",583897215,146376097,"4.0.10.0",1,2,"demographics","age",0,0,0,0,0,0,"26",1,3715,0
"182",182,71218,"16:53:56",583897215,146376097,"4.0.10.0",1,3,"demographics","gender",0,0,0,0,0,0,"Male",1,2948,0
"183",183,71218,"10:50:18",121340817,610671551,"4.0.10.0",1,2,"demographics","age",0,0,0,0,0,0,"52",1,6886,0
"184",184,71218,"10:50:18",121340817,610671551,"4.0.10.0",1,3,"demographics","gender",0,0,0,0,0,0,"Male",1,7534,0
"185",185,71218,"11:53:09",394362642,261248365,"4.0.10.0",1,2,"demographics","age",0,0,0,0,0,0,"65",1,4082,0
"186",186,71218,"11:53:09",394362642,261248365,"4.0.10.0",1,3,"demographics","gender",0,0,0,0,0,0,"female",1,4966,0
"187",187,71218,"11:55:34",253549635,968375333,"4.0.10.0",1,2,"demographics","age",0,0,0,0,0,0,"18",1,2731,0
"188",188,71218,"11:55:34",253549635,968375333,"4.0.10.0",1,3,"demographics","gender",0,0,0,0,0,0,"male",1,2494,0
"189",189,71218,"16:56:14",567981381,978113407,"4.0.10.0",1,2,"demographics","age",0,0,0,0,0,0,"34",1,4396,0
"190",190,71218,"16:56:14",567981381,978113407,"4.0.10.0",1,3,"demographics","gender",0,0,0,0,0,0,"Female",1,6526,0
"191",191,71218,"11:56:37",454572017,333926469,"4.0.10.0",1,2,"demographics","age",0,0,0,0,0,0,"20",1,3513,0
"192",192,71218,"11:56:37",454572017,333926469,"4.0.10.0",1,3,"demographics","gender",0,0,0,0,0,0,"woman",1,5895,0
"193",193,71218,"10:57:31",22971117,233819433,"4.0.10.0",1,2,"demographics","age",0,0,0,0,0,0,"40",1,3965,0
"194",194,71218,"10:57:31",22971117,233819433,"4.0.10.0",1,3,"demographics","gender",0,0,0,0,0,0,"Female",1,3309,0
"195",195,71218,"16:57:19",385271324,947750185,"4.0.10.0",1,2,"demographics","age",0,0,0,0,0,0,"50",1,4444,0
"196",196,71218,"16:57:19",385271324,947750185,"4.0.10.0",1,3,"demographics","gender",0,0,0,0,0,0,"Male",1,7013,0
"197",197,71218,"11:58:07",180115522,663686450,"4.0.10.0",1,2,"demographics","age",0,0,0,0,0,0,"38",1,2054,0
"198",198,71218,"11:58:07",180115522,663686450,"4.0.10.0",1,3,"demographics","gender",0,0,0,0,0,0,"Male",1,15690,0
"199",199,71218,"16:58:49",567981381,978113407,"4.0.10.0",1,2,"demographics","age",0,0,0,0,0,0,"34",1,4533,0
"200",200,71218,"16:58:49",567981381,978113407,"4.0.10.0",1,3,"demographics","gender",0,0,0,0,0,0,"Female",1,6119,0
"201",201,71218,"16:59:53",567981381,978113407,"4.0.10.0",1,2,"demographics","age",0,0,0,0,0,0,"34",1,4484,0
"202",202,71218,"16:59:53",567981381,978113407,"4.0.10.0",1,3,"demographics","gender",0,0,0,0,0,0,"Female",1,4737,0
"203",203,71218,"16:59:52",858791929,350559063,"4.0.10.0",1,2,"demographics","age",0,0,0,0,0,0,"46",1,4220,0
"204",204,71218,"16:59:52",858791929,350559063,"4.0.10.0",1,3,"demographics","gender",0,0,0,0,0,0,"female",1,5013,0
"205",205,71218,"12:00:34",417790804,902248783,"4.0.10.0",1,2,"demographics","age",0,0,0,0,0,0,"33",1,2137,0
"206",206,71218,"12:00:34",417790804,902248783,"4.0.10.0",1,3,"demographics","gender",0,0,0,0,0,0,"male",1,4264,0
"207",207,71218,"17:00:24",946213169,299902251,"4.0.10.0",1,2,"demographics","age",0,0,0,0,0,0,"45",1,3588,0
"208",208,71218,"17:00:24",946213169,299902251,"4.0.10.0",1,3,"demographics","gender",0,0,0,0,0,0,"female",1,6114,0
"209",209,71218,"17:01:58",720965922,279160971,"4.0.10.0",1,2,"demographics","age",0,0,0,0,0,0,"45",1,3241,0
"210",210,71218,"17:01:58",720965922,279160971,"4.0.10.0",1,3,"demographics","gender",0,0,0,0,0,0,"female",1,5679,0
"211",211,71218,"12:02:40",666798885,178057064,"4.0.10.0",1,2,"demographics","age",0,0,0,0,0,0,"23",1,4220,0
"212",212,71218,"12:02:40",666798885,178057064,"4.0.10.0",1,3,"demographics","gender",0,0,0,0,0,0,"Male",1,7907,0
"213",213,71218,"09:03:04",161901279,367876828,"4.0.10.0",1,2,"demographics","age",0,0,0,0,0,0,"24",1,2453,0
"214",214,71218,"09:03:04",161901279,367876828,"4.0.10.0",1,3,"demographics","gender",0,0,0,0,0,0,"female",1,3041,0
"215",215,71218,"17:03:20",720965922,279160971,"4.0.10.0",1,2,"demographics","age",0,0,0,0,0,0,"45",1,3176,0
"216",216,71218,"17:03:20",720965922,279160971,"4.0.10.0",1,3,"demographics","gender",0,0,0,0,0,0,"female",1,6908,0
"217",217,71218,"09:04:05",981820635,930039379,"4.0.10.0",1,2,"demographics","age",0,0,0,0,0,0,"30",1,15694,0
"218",218,71218,"09:04:05",981820635,930039379,"4.0.10.0",1,3,"demographics","gender",0,0,0,0,0,0,"Male",1,2970,0
"219",219,71218,"12:03:20",536521964,484453874,"4.0.10.0",1,2,"demographics","age",0,0,0,0,0,0,"28",1,4716,0
"220",220,71218,"12:03:20",536521964,484453874,"4.0.10.0",1,3,"demographics","gender",0,0,0,0,0,0,"female",1,4312,0
"221",221,71218,"09:05:33",674201279,232396325,"4.0.10.0",1,2,"demographics","age",0,0,0,0,0,0,"33",1,3108,0
"222",222,71218,"09:05:33",674201279,232396325,"4.0.10.0",1,3,"demographics","gender",0,0,0,0,0,0,"Male",1,4078,0
"223",223,71218,"12:05:44",83122570,129442144,"4.0.10.0",1,2,"demographics","age",0,0,0,0,0,0,"31",1,2571,0
"224",224,71218,"12:05:44",83122570,129442144,"4.0.10.0",1,3,"demographics","gender",0,0,0,0,0,0,"Female",1,4334,0
"225",225,71218,"12:06:46",171372301,117743572,"4.0.10.0",1,2,"demographics","age",0,0,0,0,0,0,"35",1,2543,0
"226",226,71218,"12:06:46",171372301,117743572,"4.0.10.0",1,3,"demographics","gender",0,0,0,0,0,0,"male",1,2229,0
"227",227,71218,"11:06:12",998224406,818460103,"4.0.10.0",1,2,"demographics","age",0,0,0,0,0,0,"31",1,2101,0
"228",228,71218,"11:06:12",998224406,818460103,"4.0.10.0",1,3,"demographics","gender",0,0,0,0,0,0,"Male",1,3870,0
"229",229,71218,"17:07:26",929315496,723749382,"4.0.10.0",1,2,"demographics","age",0,0,0,0,0,0,"23",1,2746,0
"230",230,71218,"17:07:26",929315496,723749382,"4.0.10.0",1,3,"demographics","gender",0,0,0,0,0,0,"female",1,4405,0
"231",231,71218,"12:08:29",171372301,117743572,"4.0.10.0",1,2,"demographics","age",0,0,0,0,0,0,"35",1,2045,0
"232",232,71218,"12:08:29",171372301,117743572,"4.0.10.0",1,3,"demographics","gender",0,0,0,0,0,0,"male",1,3396,0
"233",233,71218,"17:08:52",513402600,532616537,"4.0.10.0",1,2,"demographics","age",0,0,0,0,0,0,"18",1,2566,0
"234",234,71218,"17:08:52",513402600,532616537,"4.0.10.0",1,3,"demographics","gender",0,0,0,0,0,0,"male",1,3125,0
"235",235,71218,"12:08:55",171372301,117743572,"4.0.10.0",1,2,"demographics","age",0,0,0,0,0,0,"35",1,2477,0
"236",236,71218,"12:08:55",171372301,117743572,"4.0.10.0",1,3,"demographics","gender",0,0,0,0,0,0,"male",1,1831,0
"237",237,71218,"17:08:47",867242980,813025343,"4.0.10.0",1,2,"demographics","age",0,0,0,0,0,0,"23",1,2352,0
"238",238,71218,"17:08:47",867242980,813025343,"4.0.10.0",1,3,"demographics","gender",0,0,0,0,0,0,"Male",1,4383,0
"239",239,71218,"09:08:48",465906317,591424609,"4.0.10.0",1,2,"demographics","age",0,0,0,0,0,0,"42",1,4753,0
"240",240,71218,"09:08:48",465906317,591424609,"4.0.10.0",1,3,"demographics","gender",0,0,0,0,0,0,"male",1,5465,0
"241",241,71218,"17:09:32",793430907,540518491,"4.0.10.0",1,2,"demographics","age",0,0,0,0,0,0,"27",1,5627,0
"242",242,71218,"17:09:32",793430907,540518491,"4.0.10.0",1,3,"demographics","gender",0,0,0,0,0,0,"Female",1,6057,0
"243",243,71218,"17:10:01",994884518,940387388,"4.0.10.0",1,2,"demographics","age",0,0,0,0,0,0,"64",1,5696,0
"244",244,71218,"17:10:01",994884518,940387388,"4.0.10.0",1,3,"demographics","gender",0,0,0,0,0,0,"Male",1,6302,0
"245",245,71218,"12:11:06",147901757,788990416,"4.0.10.0",1,2,"demographics","age",0,0,0,0,0,0,"32",1,3817,0
"246",246,71218,"12:11:06",147901757,788990416,"4.0.10.0",1,3,"demographics","gender",0,0,0,0,0,0,"Male",1,3875,0
"247",247,71318,"02:11:37",778474425,286707310,"4.0.10.0",1,2,"demographics","age",0,0,0,0,0,0,"43",1,2585,0
"248",248,71318,"02:11:37",778474425,286707310,"4.0.10.0",1,3,"demographics","gender",0,0,0,0,0,0,"Male",1,4150,0
"249",249,71218,"17:11:36",383589017,946067883,"4.0.10.0",1,2,"demographics","age",0,0,0,0,0,0,"31",1,3054,0
"250",250,71218,"17:11:36",383589017,946067883,"4.0.10.0",1,3,"demographics","gender",0,0,0,0,0,0,"Male",1,3735,0
"251",251,71218,"17:11:29",101821230,664300092,"4.0.10.0",1,2,"demographics","age",0,0,0,0,0,0,"38",1,15327,0
"252",252,71218,"17:11:29",101821230,664300092,"4.0.10.0",1,3,"demographics","gender",0,0,0,0,0,0,"Female",1,6958,0
"253",253,71218,"12:11:20",950628494,592306091,"4.0.10.0",1,2,"demographics","age",0,0,0,0,0,0,"30",1,9027,0
"254",254,71218,"12:11:20",950628494,592306091,"4.0.10.0",1,3,"demographics","gender",0,0,0,0,0,0,"male",1,4972,0
"255",255,71218,"17:13:32",692271252,638642545,"4.0.10.0",1,2,"demographics","age",0,0,0,0,0,0,"27",1,3693,0
"256",256,71218,"17:13:32",692271252,638642545,"4.0.10.0",1,3,"demographics","gender",0,0,0,0,0,0,"female",1,3700,0
"257",257,71218,"13:14:52",144448834,812337667,"4.0.10.0",1,2,"demographics","age",0,0,0,0,0,0,"23",1,1441,0
"258",258,71218,"13:14:52",144448834,812337667,"4.0.10.0",1,3,"demographics","gender",0,0,0,0,0,0,"Male",1,2576,0
"259",259,71218,"17:13:59",894680509,914788834,"4.0.10.0",1,2,"demographics","age",0,0,0,0,0,0,"32",1,3346,0
"260",260,71218,"17:13:59",894680509,914788834,"4.0.10.0",1,3,"demographics","gender",0,0,0,0,0,0,"Female",1,5255,0
"261",261,71318,"02:14:15",520348156,394829856,"4.0.10.0",1,2,"demographics","age",0,0,0,0,0,0,"43",1,2726,0
"262",262,71318,"02:14:15",520348156,394829856,"4.0.10.0",1,3,"demographics","gender",0,0,0,0,0,0,"Male",1,4168,0
"263",263,71218,"09:13:46",465906317,591424609,"4.0.10.0",1,2,"demographics","age",0,0,0,0,0,0,"42",1,4438,0
"264",264,71218,"09:13:46",465906317,591424609,"4.0.10.0",1,3,"demographics","gender",0,0,0,0,0,0,"Male",1,5731,0
"265",265,71218,"12:14:37",43018451,558262323,"4.0.10.0",1,2,"demographics","age",0,0,0,0,0,0,"24",1,2688,0
"266",266,71218,"12:14:37",43018451,558262323,"4.0.10.0",1,3,"demographics","gender",0,0,0,0,0,0,"Female",1,2530,0
"267",267,71218,"17:13:43",859467744,913685378,"4.0.10.0",1,2,"demographics","age",0,0,0,0,0,0,"31",1,3244,0
"268",268,71218,"17:13:43",859467744,913685378,"4.0.10.0",1,3,"demographics","gender",0,0,0,0,0,0,"Female",1,10302,0
"269",269,71218,"17:15:31",382881248,26406307,"4.0.10.0",1,2,"demographics","age",0,0,0,0,0,0,"26",1,5164,0
"270",270,71218,"17:15:31",382881248,26406307,"4.0.10.0",1,3,"demographics","gender",0,0,0,0,0,0,"female",1,3329,0
"271",271,71218,"10:15:48",414818160,58343219,"4.0.10.0",1,2,"demographics","age",0,0,0,0,0,0,"30",1,2553,0
"272",272,71218,"10:15:48",414818160,58343219,"4.0.10.0",1,3,"demographics","gender",0,0,0,0,0,0,"female",1,2990,0
"273",273,71218,"17:16:27",217793317,701662372,"4.0.10.0",1,2,"demographics","age",0,0,0,0,0,0,"20",1,3075,0
"274",274,71218,"17:16:27",217793317,701662372,"4.0.10.0",1,3,"demographics","gender",0,0,0,0,0,0,"female",1,3358,0
"275",275,71318,"02:16:12",801769060,445294133,"4.0.10.0",1,2,"demographics","age",0,0,0,0,0,0,"20",1,3271,0
"276",276,71318,"02:16:12",801769060,445294133,"4.0.10.0",1,3,"demographics","gender",0,0,0,0,0,0,"Male",1,8746,0
"277",277,71218,"17:16:46",672295949,852060263,"4.0.10.0",1,2,"demographics","age",0,0,0,0,0,0,"60",1,6970,0
"278",278,71218,"17:16:46",672295949,852060263,"4.0.10.0",1,3,"demographics","gender",0,0,0,0,0,0,"male",1,8582,0
"279",279,71218,"17:17:17",107099414,771002537,"4.0.10.0",1,2,"demographics","age",0,0,0,0,0,0,"33",1,2772,0
"280",280,71218,"17:17:17",107099414,771002537,"4.0.10.0",1,3,"demographics","gender",0,0,0,0,0,0,"Female",1,3675,0
"281",281,71218,"17:13:37",185748229,542521283,"4.0.10.0",1,2,"demographics","age",0,0,0,0,0,0,"20",1,2081,0
"282",282,71218,"17:13:37",185748229,542521283,"4.0.10.0",1,3,"demographics","gender",0,0,0,0,0,0,"female",1,2767,0
"283",283,71218,"17:16:06",608582565,483064273,"4.0.10.0",1,2,"demographics","age",0,0,0,0,0,0,"28",1,2995,0
"284",284,71218,"17:16:06",608582565,483064273,"4.0.10.0",1,3,"demographics","gender",0,0,0,0,0,0,"female",1,4096,0
"285",285,71218,"17:18:08",687015995,866780310,"4.0.10.0",1,2,"demographics","age",0,0,0,0,0,0,"38",1,4856,0
"286",286,71218,"17:18:08",687015995,866780310,"4.0.10.0",1,3,"demographics","gender",0,0,0,0,0,0,"female",1,8430,0
"287",287,71218,"12:18:47",387964086,262445782,"4.0.10.0",1,2,"demographics","age",0,0,0,0,0,0,"29",1,2654,0
"288",288,71218,"12:18:47",387964086,262445782,"4.0.10.0",1,3,"demographics","gender",0,0,0,0,0,0,"Male",1,3063,0
"289",289,71218,"12:19:45",348884913,223366611,"4.0.10.0",1,2,"demographics","age",0,0,0,0,0,0,"44",1,6280,0
"290",290,71218,"12:19:45",348884913,223366611,"4.0.10.0",1,3,"demographics","gender",0,0,0,0,0,0,"female",1,4422,0
"291",291,71218,"17:20:54",753836367,397361440,"4.0.10.0",1,2,"demographics","age",0,0,0,0,0,0,"43",1,3814,0
"292",292,71218,"17:20:54",753836367,397361440,"4.0.10.0",1,3,"demographics","gender",0,0,0,0,0,0,"Male",1,5476,0
"293",293,71218,"17:21:15",9095154,957902800,"4.0.10.0",1,2,"demographics","age",0,0,0,0,0,0,"38",1,4786,0
"294",294,71218,"17:21:15",9095154,957902800,"4.0.10.0",1,3,"demographics","gender",0,0,0,0,0,0,"female",1,5784,0
"295",295,71218,"12:21:09",873144905,661998462,"4.0.10.0",1,2,"demographics","age",0,0,0,0,0,0,"28",1,4046,0
"296",296,71218,"12:21:09",873144905,661998462,"4.0.10.0",1,3,"demographics","gender",0,0,0,0,0,0,"Female",1,6154,0
"297",297,71218,"17:21:48",141991241,394903654,"4.0.10.0",1,2,"demographics","age",0,0,0,0,0,0,"18",1,3034,0
"298",298,71218,"17:21:48",141991241,394903654,"4.0.10.0",1,3,"demographics","gender",0,0,0,0,0,0,"male",1,3534,0
"299",299,71218,"11:22:45",69400800,963962438,"4.0.10.0",1,2,"demographics","age",0,0,0,0,0,0,"18",1,3945,0
"300",300,71218,"11:22:45",69400800,963962438,"4.0.10.0",1,3,"demographics","gender",0,0,0,0,0,0,"M",1,3723,0
"301",301,71218,"17:26:44",242838992,117320685,"4.0.10.0",1,2,"demographics","age",0,0,0,0,0,0,"43",1,3589,0
"302",302,71218,"17:26:44",242838992,117320685,"4.0.10.0",1,3,"demographics","gender",0,0,0,0,0,0,"female",1,9154,0
"303",303,71218,"17:22:56",414968725,204120402,"4.0.10.0",1,2,"demographics","age",0,0,0,0,0,0,"29",1,6022,0
"304",304,71218,"17:22:56",414968725,204120402,"4.0.10.0",1,3,"demographics","gender",0,0,0,0,0,0,"female",1,8589,0
"305",305,71218,"12:29:40",226973181,94734650,"4.0.10.0",1,2,"demographics","age",0,0,0,0,0,0,"28",1,3221,0
"306",306,71218,"12:29:40",226973181,94734650,"4.0.10.0",1,3,"demographics","gender",0,0,0,0,0,0,"male",1,4007,0
"307",307,71218,"10:25:15",994042380,861803864,"4.0.10.0",1,2,"demographics","age",0,0,0,0,0,0,"47",1,3616,0
"308",308,71218,"10:25:15",994042380,861803864,"4.0.10.0",1,3,"demographics","gender",0,0,0,0,0,0,"female",1,3524,0
"309",309,71218,"12:25:38",489047305,899768245,"4.0.10.0",1,2,"demographics","age",0,0,0,0,0,0,"25",1,3279,0
"310",310,71218,"12:25:38",489047305,899768245,"4.0.10.0",1,3,"demographics","gender",0,0,0,0,0,0,"Male",1,3577,0
"311",311,71218,"17:25:50",15990936,835928491,"4.0.10.0",1,2,"demographics","age",0,0,0,0,0,0,"43",1,3240,0
"312",312,71218,"17:25:50",15990936,835928491,"4.0.10.0",1,3,"demographics","gender",0,0,0,0,0,0,"Male",1,3837,0
"313",313,71218,"12:25:41",330635914,429354031,"4.0.10.0",1,2,"demographics","age",0,0,0,0,0,0,"29",1,3739,0
"314",314,71218,"12:25:41",330635914,429354031,"4.0.10.0",1,3,"demographics","gender",0,0,0,0,0,0,"Male",1,4030,0
"315",315,71218,"12:29:39",957378853,313555679,"4.0.10.0",1,2,"demographics","age",0,0,0,0,0,0,"61",1,6397,0
"316",316,71218,"12:29:39",957378853,313555679,"4.0.10.0",1,3,"demographics","gender",0,0,0,0,0,0,"Female",1,7155,0
"317",317,71218,"17:30:10",196358035,75712481,"4.0.10.0",1,2,"demographics","age",0,0,0,0,0,0,"59",1,6160,0
"318",318,71218,"17:30:10",196358035,75712481,"4.0.10.0",1,3,"demographics","gender",0,0,0,0,0,0,"female",1,8212,0
"319",319,71218,"17:32:26",81148714,875173135,"4.0.10.0",1,2,"demographics","age",0,0,0,0,0,0,"23",1,3149,0
"320",320,71218,"17:32:26",81148714,875173135,"4.0.10.0",1,3,"demographics","gender",0,0,0,0,0,0,"female",1,5616,0
"321",321,71218,"17:30:36",906369043,262843992,"4.0.10.0",1,2,"demographics","age",0,0,0,0,0,0,"19",1,3172,0
"322",322,71218,"17:30:36",906369043,262843992,"4.0.10.0",1,3,"demographics","gender",0,0,0,0,0,0,"male",1,4382,0
"323",323,71218,"17:30:41",830194433,928614438,"4.0.10.0",1,2,"demographics","age",0,0,0,0,0,0,"45",1,2935,0
"324",324,71218,"17:30:41",830194433,928614438,"4.0.10.0",1,3,"demographics","gender",0,0,0,0,0,0,"Male",1,3370,0
"325",325,71218,"12:31:00",996701683,47894036,"4.0.10.0",1,2,"demographics","age",0,0,0,0,0,0,"42",1,3355,0
"326",326,71218,"12:31:00",996701683,47894036,"4.0.10.0",1,3,"demographics","gender",0,0,0,0,0,0,"male",1,4323,0
"327",327,71218,"09:24:20",425601030,477382281,"4.0.10.0",1,2,"demographics","age",0,0,0,0,0,0,"45",1,2449,0
"328",328,71218,"09:24:20",425601030,477382281,"4.0.10.0",1,3,"demographics","gender",0,0,0,0,0,0,"",1,379108,0
"329",329,71218,"17:31:32",571674148,385189625,"4.0.10.0",1,2,"demographics","age",0,0,0,0,0,0,"55",1,3176,0
"330",330,71218,"17:31:32",571674148,385189625,"4.0.10.0",1,3,"demographics","gender",0,0,0,0,0,0,"Female",1,5607,0
"331",331,71218,"18:31:32",48990701,2671117,"4.0.10.0",1,2,"demographics","age",0,0,0,0,0,0,"26",1,3861,0
"332",332,71218,"18:31:32",48990701,2671117,"4.0.10.0",1,3,"demographics","gender",0,0,0,0,0,0,"female",1,5690,0
"333",333,71218,"12:32:33",154636733,108317138,"4.0.10.0",1,2,"demographics","age",0,0,0,0,0,0,"30",1,3653,0
"334",334,71218,"12:32:33",154636733,108317138,"4.0.10.0",1,3,"demographics","gender",0,0,0,0,0,0,"Male",1,3354,0
"335",335,71218,"17:32:42",140656213,327140720,"4.0.10.0",1,2,"demographics","age",0,0,0,0,0,0,"54",1,4627,0
"336",336,71218,"17:32:42",140656213,327140720,"4.0.10.0",1,3,"demographics","gender",0,0,0,0,0,0,"Female",1,5439,0
"337",337,71218,"17:33:09",823502536,545637406,"4.0.10.0",1,2,"demographics","age",0,0,0,0,0,0,"28",1,3226,0
"338",338,71218,"17:33:09",823502536,545637406,"4.0.10.0",1,3,"demographics","gender",0,0,0,0,0,0,"male",1,3170,0
"339",339,71218,"17:33:54",415998661,853519774,"4.0.10.0",1,2,"demographics","age",0,0,0,0,0,0,"45",1,2603,0
"340",340,71218,"17:33:54",415998661,853519774,"4.0.10.0",1,3,"demographics","gender",0,0,0,0,0,0,"female",1,4427,0
"341",341,71218,"17:35:02",421197261,858718373,"4.0.10.0",1,2,"demographics","age",0,0,0,0,0,0,"39",1,5488,0
"342",342,71218,"17:35:02",421197261,858718373,"4.0.10.0",1,3,"demographics","gender",0,0,0,0,0,0,"female",1,6166,0
"343",343,71218,"17:36:36",557971777,584800320,"4.0.10.0",1,2,"demographics","age",0,0,0,0,0,0,"29",1,3592,0
"344",344,71218,"17:36:36",557971777,584800320,"4.0.10.0",1,3,"demographics","gender",0,0,0,0,0,0,"Female",1,3941,0
"345",345,71218,"17:36:51",58194634,854655436,"4.0.10.0",1,2,"demographics","age",0,0,0,0,0,0,"42",1,2454,0
"346",346,71218,"17:36:51",58194634,854655436,"4.0.10.0",1,3,"demographics","gender",0,0,0,0,0,0,"female",1,5372,0
"347",347,71218,"17:39:05",252602671,127084362,"4.0.10.0",1,2,"demographics","age",0,0,0,0,0,0,"38",1,3934,0
"348",348,71218,"17:39:05",252602671,127084362,"4.0.10.0",1,3,"demographics","gender",0,0,0,0,0,0,"female",1,5833,0
"349",349,71218,"11:39:26",761856920,93379167,"4.0.10.0",1,2,"demographics","age",0,0,0,0,0,0,"20",1,3259,0
"350",350,71218,"11:39:26",761856920,93379167,"4.0.10.0",1,3,"demographics","gender",0,0,0,0,0,0,"Female",1,7341,0
"351",351,71218,"09:43:08",975149446,185997782,"4.0.10.0",1,2,"demographics","age",0,0,0,0,0,0,"27",1,5246,0
"352",352,71218,"09:43:08",975149446,185997782,"4.0.10.0",1,3,"demographics","gender",0,0,0,0,0,0,"female",1,5124,0
"353",353,71218,"10:46:42",262749097,161885371,"4.0.10.0",1,2,"demographics","age",0,0,0,0,0,0,"29",1,2682,0
"354",354,71218,"10:46:42",262749097,161885371,"4.0.10.0",1,3,"demographics","gender",0,0,0,0,0,0,"male",1,2667,0
"355",355,71218,"17:47:00",463383243,57535045,"4.0.10.0",1,2,"demographics","age",0,0,0,0,0,0,"62",1,3757,0
"356",356,71218,"17:47:00",463383243,57535045,"4.0.10.0",1,3,"demographics","gender",0,0,0,0,0,0,"Male",1,4302,0
"357",357,71218,"17:47:36",336511343,930365004,"4.0.10.0",1,2,"demographics","age",0,0,0,0,0,0,"55",1,2727,0
"358",358,71218,"17:47:36",336511343,930365004,"4.0.10.0",1,3,"demographics","gender",0,0,0,0,0,0,"female",1,4231,0
"359",359,71218,"12:48:46",771829425,892474971,"4.0.10.0",1,2,"demographics","age",0,0,0,0,0,0,"42",1,3451,0
"360",360,71218,"12:48:46",771829425,892474971,"4.0.10.0",1,3,"demographics","gender",0,0,0,0,0,0,"Female",1,7081,0
"361",361,71218,"17:48:33",658242651,709744420,"4.0.10.0",1,2,"demographics","age",0,0,0,0,0,0,"26",1,4952,0
"362",362,71218,"17:48:33",658242651,709744420,"4.0.10.0",1,3,"demographics","gender",0,0,0,0,0,0,"M",1,2629,0
"363",363,71218,"17:49:40",463383243,57535045,"4.0.10.0",1,2,"demographics","age",0,0,0,0,0,0,"62",1,6324,0
"364",364,71218,"17:49:40",463383243,57535045,"4.0.10.0",1,3,"demographics","gender",0,0,0,0,0,0,"Male",1,4609,0
"365",365,71218,"17:57:24",762920572,664202456,"4.0.10.0",1,2,"demographics","age",0,0,0,0,0,0,"51",1,6758,0
"366",366,71218,"17:57:24",762920572,664202456,"4.0.10.0",1,3,"demographics","gender",0,0,0,0,0,0,"female",1,13263,0
"367",367,71218,"13:00:55",924525077,823370571,"4.0.10.0",1,2,"demographics","age",0,0,0,0,0,0,"18",1,2472,0
"368",368,71218,"13:00:55",924525077,823370571,"4.0.10.0",1,3,"demographics","gender",0,0,0,0,0,0,"Female",1,3213,0
"369",369,71218,"13:01:31",55870968,266719282,"4.0.10.0",1,2,"demographics","age",0,0,0,0,0,0,"43",1,2983,0
"370",370,71218,"13:01:31",55870968,266719282,"4.0.10.0",1,3,"demographics","gender",0,0,0,0,0,0,"male",1,3677,0
"371",371,71218,"18:02:21",153620103,642361916,"4.0.10.0",1,2,"demographics","age",0,0,0,0,0,0,"43",1,5595,0
"372",372,71218,"18:02:21",153620103,642361916,"4.0.10.0",1,3,"demographics","gender",0,0,0,0,0,0,"male",1,5649,0
"373",373,71218,"12:06:41",592649369,339148027,"4.0.10.0",1,2,"demographics","age",0,0,0,0,0,0,"28",1,5815,0
"374",374,71218,"12:06:41",592649369,339148027,"4.0.10.0",1,3,"demographics","gender",0,0,0,0,0,0,"female",1,4318,0
"375",375,71218,"18:16:47",343713316,773925284,"4.0.10.0",1,2,"demographics","age",0,0,0,0,0,0,"56",1,5464,0
"376",376,71218,"18:16:47",343713316,773925284,"4.0.10.0",1,3,"demographics","gender",0,0,0,0,0,0,"female",1,5863,0
"377",377,71218,"10:17:09",471146881,808130772,"4.0.10.0",1,2,"demographics","age",0,0,0,0,0,0,"44",1,3788,0
"378",378,71218,"10:17:09",471146881,808130772,"4.0.10.0",1,3,"demographics","gender",0,0,0,0,0,0,"male",1,11119,0
"379",379,71218,"13:18:07",20859812,451071792,"4.0.10.0",1,2,"demographics","age",0,0,0,0,0,0,"27",1,4830,0
"380",380,71218,"13:18:07",20859812,451071792,"4.0.10.0",1,3,"demographics","gender",0,0,0,0,0,0,"Female",1,5660,0
"381",381,71218,"18:32:07",125567296,152984742,"4.0.10.0",1,2,"demographics","age",0,0,0,0,0,0,"30",1,3220,0
"382",382,71218,"18:32:07",125567296,152984742,"4.0.10.0",1,3,"demographics","gender",0,0,0,0,0,0,"female",1,3812,0
"383",383,71218,"13:33:21",379194905,246956380,"4.0.10.0",1,2,"demographics","age",0,0,0,0,0,0,"34",1,5091,0
"384",384,71218,"13:33:21",379194905,246956380,"4.0.10.0",1,3,"demographics","gender",0,0,0,0,0,0,"male",1,3137,0
"385",385,71218,"20:49:19",387456815,572093872,"4.0.10.0",1,2,"demographics","age",0,0,0,0,0,0,"53",1,5684,0
"386",386,71218,"20:49:19",387456815,572093872,"4.0.10.0",1,3,"demographics","gender",0,0,0,0,0,0,"female",1,7361,0
"387",387,71318,"04:12:47",682513415,561569758,"4.0.10.0",1,2,"demographics","age",0,0,0,0,0,0,"18",1,3203,0
"388",388,71318,"04:12:47",682513415,561569758,"4.0.10.0",1,3,"demographics","gender",0,0,0,0,0,0,"Male",1,3977,0
"389",389,71318,"09:13:26",94426121,762314955,"4.0.10.0",1,2,"demographics","age",0,0,0,0,0,0,"22",1,2846,0
"390",390,71318,"09:13:26",94426121,762314955,"4.0.10.0",1,3,"demographics","gender",0,0,0,0,0,0,"female",1,4231,0
"391",391,71318,"09:13:56",322767391,143003079,"4.0.10.0",1,2,"demographics","age",0,0,0,0,0,0,"27",1,3578,0
"392",392,71318,"09:13:56",322767391,143003079,"4.0.10.0",1,3,"demographics","gender",0,0,0,0,0,0,"Female",1,6647,0
"393",393,71318,"09:14:47",693500637,201733516,"4.0.10.0",1,2,"demographics","age",0,0,0,0,0,0,"39",1,3452,0
"394",394,71318,"09:14:47",693500637,201733516,"4.0.10.0",1,3,"demographics","gender",0,0,0,0,0,0,"male",1,5104,0
"395",395,71318,"09:14:34",211753514,774232367,"4.0.10.0",1,2,"demographics","age",0,0,0,0,0,0,"46",1,5926,0
"396",396,71318,"09:14:34",211753514,774232367,"4.0.10.0",1,3,"demographics","gender",0,0,0,0,0,0,"Female",1,4293,0
"397",397,71318,"04:25:09",324910183,145145870,"4.0.10.0",1,2,"demographics","age",0,0,0,0,0,0,"49",1,9001,0
"398",398,71318,"04:25:09",324910183,145145870,"4.0.10.0",1,3,"demographics","gender",0,0,0,0,0,0,"female",1,17607,0
"399",399,71318,"11:00:39",122269793,485464938,"4.0.10.0",1,2,"demographics","age",0,0,0,0,0,0,"35",1,4307,0
"400",400,71318,"11:00:39",122269793,485464938,"4.0.10.0",1,3,"demographics","gender",0,0,0,0,0,0,"famele",1,7156,0
"401",401,71318,"10:03:31",884149673,857321127,"4.0.10.0",1,2,"demographics","age",0,0,0,0,0,0,"33",1,6153,0
"402",402,71318,"10:03:31",884149673,857321127,"4.0.10.0",1,3,"demographics","gender",0,0,0,0,0,0,"female",1,6462,0
"403",403,71318,"11:01:09",601663890,93431029,"4.0.10.0",1,2,"demographics","age",0,0,0,0,0,0,"36",1,3174,0
"404",404,71318,"11:01:09",601663890,93431029,"4.0.10.0",1,3,"demographics","gender",0,0,0,0,0,0,"female",1,5924,0
"405",405,71318,"11:25:29",542721708,960162870,"4.0.10.0",1,2,"demographics","age",0,0,0,0,0,0,"27",1,3603,0
"406",406,71318,"11:25:29",542721708,960162870,"4.0.10.0",1,3,"demographics","gender",0,0,0,0,0,0,"female",1,3657,0
"407",407,71318,"13:59:49",223472318,250889764,"4.0.10.0",1,2,"demographics","age",0,0,0,0,0,0,"20",1,2803,0
"408",408,71318,"13:59:49",223472318,250889764,"4.0.10.0",1,3,"demographics","gender",0,0,0,0,0,0,"Female",1,4153,0
"409",409,71318,"13:56:59",403367574,887825549,"4.0.10.0",1,2,"demographics","age",0,0,0,0,0,0,"20",1,2757,0
"410",410,71318,"13:56:59",403367574,887825549,"4.0.10.0",1,3,"demographics","gender",0,0,0,0,0,0,"Male",1,2247,0
"411",411,71318,"13:56:51",658840024,759994530,"4.0.10.0",1,2,"demographics","age",0,0,0,0,0,0,"20",1,4683,0
"412",412,71318,"13:56:51",658840024,759994530,"4.0.10.0",1,3,"demographics","gender",0,0,0,0,0,0,"Female",1,6281,0
"413",413,71318,"13:57:14",407951283,892409260,"4.0.10.0",1,2,"demographics","age",0,0,0,0,0,0,"39",1,4009,0
"414",414,71318,"13:57:14",407951283,892409260,"4.0.10.0",1,3,"demographics","gender",0,0,0,0,0,0,"male",1,5419,0
"415",415,71318,"13:57:18",600709361,779884746,"4.0.10.0",1,2,"demographics","age",0,0,0,0,0,0,"19",1,3203,0
"416",416,71318,"13:57:18",600709361,779884746,"4.0.10.0",1,3,"demographics","gender",0,0,0,0,0,0,"Male",1,4384,0
"417",417,71318,"14:57:53",957886621,984715165,"4.0.10.0",1,2,"demographics","age",0,0,0,0,0,0,"32",1,2966,0
"418",418,71318,"14:57:53",957886621,984715165,"4.0.10.0",1,3,"demographics","gender",0,0,0,0,0,0,"Female",1,3148,0
"419",419,71318,"13:58:17",403367574,887825549,"4.0.10.0",1,2,"demographics","age",0,0,0,0,0,0,"20",1,4150,0
"420",420,71318,"13:58:17",403367574,887825549,"4.0.10.0",1,3,"demographics","gender",0,0,0,0,0,0,"male",1,2335,0
"421",421,71318,"13:58:22",845612815,946767322,"4.0.10.0",1,2,"demographics","age",0,0,0,0,0,0,"39",1,7985,0
"422",422,71318,"13:58:22",845612815,946767322,"4.0.10.0",1,3,"demographics","gender",0,0,0,0,0,0,"Female",1,9374,0
"423",423,71318,"08:58:18",765762048,97873212,"4.0.10.0",1,2,"demographics","age",0,0,0,0,0,0,"19",1,3715,0
"424",424,71318,"08:58:18",765762048,97873212,"4.0.10.0",1,3,"demographics","gender",0,0,0,0,0,0,"Female",1,4930,0
"425",425,71318,"13:57:51",804193163,526328031,"4.0.10.0",1,2,"demographics","age",0,0,0,0,0,0,"39",1,2882,0
"426",426,71318,"13:57:51",804193163,526328031,"4.0.10.0",1,3,"demographics","gender",0,0,0,0,0,0,"female",1,3756,0
"427",427,71318,"13:58:36",803469143,599341053,"4.0.10.0",1,2,"demographics","age",0,0,0,0,0,0,"44",1,3728,0
"428",428,71318,"13:58:36",803469143,599341053,"4.0.10.0",1,3,"demographics","gender",0,0,0,0,0,0,"male",1,3032,0
"429",429,71318,"08:59:02",599176622,157371667,"4.0.10.0",1,2,"demographics","age",0,0,0,0,0,0,"33",1,4187,0
"430",430,71318,"08:59:02",599176622,157371667,"4.0.10.0",1,3,"demographics","gender",0,0,0,0,0,0,"male",1,7495,0
"431",431,71318,"14:00:40",407951283,892409260,"4.0.10.0",1,2,"demographics","age",0,0,0,0,0,0,"39",1,3779,0
"432",432,71318,"14:00:40",407951283,892409260,"4.0.10.0",1,3,"demographics","gender",0,0,0,0,0,0,"male",1,7118,0
"433",433,71318,"14:04:38",553957922,349829824,"4.0.10.0",1,2,"demographics","age",0,0,0,0,0,0,"29",1,3385,0
"434",434,71318,"14:04:38",553957922,349829824,"4.0.10.0",1,3,"demographics","gender",0,0,0,0,0,0,"male",1,2459,0
"435",435,71318,"09:04:38",765762048,97873212,"4.0.10.0",1,2,"demographics","age",0,0,0,0,0,0,"19",1,3783,0
"436",436,71318,"09:04:38",765762048,97873212,"4.0.10.0",1,3,"demographics","gender",0,0,0,0,0,0,"Female",1,3615,0
"437",437,71318,"14:09:18",542721708,960162870,"4.0.10.0",1,2,"demographics","age",0,0,0,0,0,0,"27",1,2856,0
"438",438,71318,"14:09:18",542721708,960162870,"4.0.10.0",1,3,"demographics","gender",0,0,0,0,0,0,"female",1,4867,0
"439",439,71318,"14:48:00",369640566,782065153,"4.0.10.0",1,2,"demographics","age",0,0,0,0,0,0,"45",1,16044,0
"440",440,71318,"14:48:00",369640566,782065153,"4.0.10.0",1,3,"demographics","gender",0,0,0,0,0,0,"female",1,11027,0
"441",441,121418,"14:18:24",1,990326570,"4.0.10.0",1,2,"demographics","age",0,0,0,0,0,0,"22",1,8129,0
"442",442,121418,"14:18:24",1,990326570,"4.0.10.0",1,3,"demographics","gender",0,0,0,0,0,0,"Male",1,3799,0
"443",443,121418,"14:20:11",1,261349341,"4.0.10.0",1,2,"demographics","age",0,0,0,0,0,0,"22",1,3527,0
"444",444,121418,"14:20:11",1,261349341,"4.0.10.0",1,3,"demographics","gender",0,0,0,0,0,0,"Male",1,4281,0
"445",445,121418,"14:21:23",1,628094308,"4.0.10.0",1,2,"demographics","age",0,0,0,0,0,0,"40",1,3456,0
"446",446,121418,"14:21:23",1,628094308,"4.0.10.0",1,3,"demographics","gender",0,0,0,0,0,0,"female",1,5644,0
"447",447,121418,"14:23:08",1,193735019,"4.0.10.0",1,2,"demographics","age",0,0,0,0,0,0,"40",1,4155,0
"448",448,121418,"14:23:08",1,193735019,"4.0.10.0",1,3,"demographics","gender",0,0,0,0,0,0,"female",1,4977,0
"449",449,121418,"14:28:02",1,70441581,"4.0.10.0",1,2,"demographics","age",0,0,0,0,0,0,"21",1,2747,0
"450",450,121418,"14:28:02",1,70441581,"4.0.10.0",1,3,"demographics","gender",0,0,0,0,0,0,"Male",1,3494,0
"451",451,121418,"14:29:06",1,76679422,"4.0.10.0",1,2,"demographics","age",0,0,0,0,0,0,"41",1,3455,0
"452",452,121418,"14:29:06",1,76679422,"4.0.10.0",1,3,"demographics","gender",0,0,0,0,0,0,"Male",1,11580,0
"453",453,121418,"14:30:19",1,648586108,"4.0.10.0",1,2,"demographics","age",0,0,0,0,0,0,"21",1,2222,0
"454",454,121418,"14:30:19",1,648586108,"4.0.10.0",1,3,"demographics","gender",0,0,0,0,0,0,"male",1,3094,0
"455",455,121418,"14:37:20",1,332000722,"4.0.10.0",1,2,"demographics","age",0,0,0,0,0,0,"34",1,3859,0
"456",456,121418,"14:37:20",1,332000722,"4.0.10.0",1,3,"demographics","gender",0,0,0,0,0,0,"female",1,5063,0
"457",457,121418,"14:48:32",1,770554578,"4.0.10.0",1,2,"demographics","age",0,0,0,0,0,0,"27",1,2802,0
"458",458,121418,"14:48:32",1,770554578,"4.0.10.0",1,3,"demographics","gender",0,0,0,0,0,0,"F",1,3116,0
"459",459,121418,"14:55:00",1,562010131,"4.0.10.0",1,2,"demographics","age",0,0,0,0,0,0,"47",1,5011,0
"460",460,121418,"14:55:00",1,562010131,"4.0.10.0",1,3,"demographics","gender",0,0,0,0,0,0,"female",1,8100,0
"461",461,121418,"14:56:07",1,647643415,"4.0.10.0",1,2,"demographics","age",0,0,0,0,0,0,"23",1,2393,0
"462",462,121418,"14:56:07",1,647643415,"4.0.10.0",1,3,"demographics","gender",0,0,0,0,0,0,"male",1,2553,0
"463",463,121418,"15:03:12",1,548104445,"4.0.10.0",1,2,"demographics","age",0,0,0,0,0,0,"21",1,2525,0
"464",464,121418,"15:03:12",1,548104445,"4.0.10.0",1,3,"demographics","gender",0,0,0,0,0,0,"female",1,4398,0
"465",465,121418,"15:04:48",1,111493687,"4.0.10.0",1,2,"demographics","age",0,0,0,0,0,0,"18",1,2417,0
"466",466,121418,"15:04:48",1,111493687,"4.0.10.0",1,3,"demographics","gender",0,0,0,0,0,0,"Male",1,3507,0
"467",467,121418,"15:31:46",1,26595224,"4.0.10.0",1,2,"demographics","age",0,0,0,0,0,0,"46",1,3051,0
"468",468,121418,"15:31:46",1,26595224,"4.0.10.0",1,3,"demographics","gender",0,0,0,0,0,0,"female",1,4873,0
"469",469,121418,"15:35:22",1,401581132,"4.0.10.0",1,2,"demographics","age",0,0,0,0,0,0,"33",1,2925,0
"470",470,121418,"15:35:22",1,401581132,"4.0.10.0",1,3,"demographics","gender",0,0,0,0,0,0,"Trans man",1,9395,0
"471",471,121418,"15:38:21",1,439485127,"4.0.10.0",1,2,"demographics","age",0,0,0,0,0,0,"33",1,2484,0
"472",472,121418,"15:38:21",1,439485127,"4.0.10.0",1,3,"demographics","gender",0,0,0,0,0,0,"Trans man",1,3741,0
"473",473,121418,"15:39:22",1,862811038,"4.0.10.0",1,2,"demographics","age",0,0,0,0,0,0,"33",1,3227,0
"474",474,121418,"15:39:22",1,862811038,"4.0.10.0",1,3,"demographics","gender",0,0,0,0,0,0,"Male",1,2885,0
"475",475,121418,"15:52:50",1,171191766,"4.0.10.0",1,2,"demographics","age",0,0,0,0,0,0,"23",1,12460,0
"476",476,121418,"15:52:50",1,171191766,"4.0.10.0",1,3,"demographics","gender",0,0,0,0,0,0,"Male",1,5748,0
