date,time,subject,blockcode,blocknum,trialcode,trialnum,values.primestim,values.targetstim,correct,latency,trial.prime_positive.totalpercentcorrect,trial.prime_negative.totalpercentcorrect
71218,15:14:29,148697371,practice,1,prime_negative_practice,5,0,0,0,3580,0,0
71218,15:14:29,148697371,practice,1,intention_check_practice,6,0,0,1,2222,0,0
71218,15:14:29,148697371,practice,1,prime_positive_practice,7,0,0,1,1240,0,0
71218,15:14:29,148697371,practice,1,intention_check_practice,8,0,0,1,710,0,0
71218,15:14:29,148697371,practice,1,prime_negative_practice,9,0,0,0,1040,0,0
71218,15:14:29,148697371,practice,1,intention_check_practice,10,0,0,1,1830,0,0
71218,15:14:29,148697371,practice,1,prime_negative_practice,11,0,0,0,962,0,0
71218,15:14:29,148697371,practice,1,intention_check_practice,12,0,0,1,570,0,0
71218,15:14:29,148697371,practice,1,prime_positive_practice,13,0,0,1,853,0,0
71218,15:14:29,148697371,practice,1,intention_check_practice,14,0,0,0,2500,0,0
71218,15:14:29,148697371,practice,1,prime_positive_practice,15,0,0,1,1884,0,0
71218,15:14:29,148697371,practice,1,intention_check_practice,16,0,0,1,672,0,0
71218,15:14:29,148697371,practice,1,prime_negative_practice,17,0,0,0,1786,0,0
71218,15:14:29,148697371,practice,1,intention_check_practice,18,0,0,1,643,0,0
71218,15:14:29,148697371,practice,1,prime_positive_practice,19,0,0,1,621,0,0
71218,15:14:29,148697371,practice,1,intention_check_practice,20,0,0,1,275,0,0
71218,15:14:29,148697371,practice,1,prime_negative_practice,21,0,0,0,670,0,0
71218,15:14:29,148697371,practice,1,intention_check_practice,22,0,0,1,1747,0,0
71218,15:14:29,148697371,practice,1,prime_positive_practice,23,0,0,1,3581,0,0
71218,15:14:29,148697371,practice,1,intention_check_practice,24,0,0,0,2500,0,0
71218,15:14:29,148697371,test,2,prime_positive,2,4,139,1,1236,100,0
71218,15:14:29,148697371,test,2,intention_check,3,4,139,0,2500,100,0
71218,15:14:29,148697371,test,2,prime_positive,4,10,168,1,1917,100,0
71218,15:14:29,148697371,test,2,intention_check,5,10,168,1,480,100,0
71218,15:14:29,148697371,test,2,prime_positive,6,8,2,1,2618,100,0
71218,15:14:29,148697371,test,2,intention_check,7,8,2,1,482,100,0
71218,15:14:29,148697371,test,2,prime_negative,8,12,40,0,1948,100,0
71218,15:14:29,148697371,test,2,intention_check,9,12,40,1,622,100,0
71218,15:14:29,148697371,test,2,prime_positive,10,3,58,1,984,100,0
71218,15:14:29,148697371,test,2,intention_check,11,3,58,1,672,100,0
71218,15:14:29,148697371,test,2,prime_positive,12,6,103,1,586,100,0
71218,15:14:29,148697371,test,2,intention_check,13,6,103,1,498,100,0
71218,15:14:29,148697371,test,2,prime_negative,14,1,69,0,2268,100,0
71218,15:14:29,148697371,test,2,intention_check,15,1,69,1,529,100,0
71218,15:14:29,148697371,test,2,prime_positive,16,7,61,1,1997,100,0
71218,15:14:29,148697371,test,2,intention_check,17,7,61,1,2189,100,0
71218,15:14:29,148697371,test,2,prime_negative,18,9,199,0,1576,100,0
71218,15:14:29,148697371,test,2,intention_check,19,9,199,1,665,100,0
71218,15:14:29,148697371,test,2,prime_positive,20,2,98,1,611,100,0
71218,15:14:29,148697371,test,2,intention_check,21,2,98,1,283,100,0
71218,15:14:29,148697371,test,2,prime_positive,22,9,43,1,741,100,0
71218,15:14:29,148697371,test,2,intention_check,23,9,43,1,359,100,0
71218,15:14:29,148697371,test,2,prime_negative,24,4,48,0,770,100,0
71218,15:14:29,148697371,test,2,intention_check,25,4,48,1,179,100,0
71218,15:14:29,148697371,test,2,prime_negative,26,11,164,1,2525,100,20
71218,15:14:29,148697371,test,2,intention_check,27,11,164,0,2500,100,20
71218,15:14:29,148697371,test,2,prime_positive,28,7,117,1,691,100,20
71218,15:14:29,148697371,test,2,intention_check,29,7,117,1,519,100,20
71218,15:14:29,148697371,test,2,prime_negative,30,6,83,0,2401,100,16
71218,15:14:29,148697371,test,2,intention_check,31,6,83,1,641,100,16
71218,15:14:29,148697371,test,2,prime_negative,32,7,114,0,1340,100,14
71218,15:14:29,148697371,test,2,intention_check,33,7,114,1,710,100,14
71218,15:14:29,148697371,test,2,prime_negative,34,9,115,0,753,100,12
71218,15:14:29,148697371,test,2,intention_check,35,9,115,1,434,100,12
71218,15:14:29,148697371,test,2,prime_negative,36,7,136,0,797,100,11
71218,15:14:29,148697371,test,2,intention_check,37,7,136,1,285,100,11
71218,15:14:29,148697371,test,2,prime_negative,38,11,11,0,2967,100,10
71218,15:14:29,148697371,test,2,intention_check,39,11,11,0,2500,100,10
71218,15:14:29,148697371,test,2,prime_positive,40,3,161,1,459,100,10
71218,15:14:29,148697371,test,2,intention_check,41,3,161,1,312,100,10
71218,15:14:29,148697371,test,2,prime_positive,42,4,77,1,1155,100,10
71218,15:14:29,148697371,test,2,intention_check,43,4,77,1,532,100,10
71218,15:14:29,148697371,test,2,prime_negative,44,6,126,0,895,100,9
71218,15:14:29,148697371,test,2,intention_check,45,6,126,1,251,100,9
71218,15:14:29,148697371,test,2,prime_positive,46,8,1,1,582,100,9
71218,15:14:29,148697371,test,2,intention_check,47,8,1,1,302,100,9
71218,15:14:29,148697371,test,2,prime_negative,48,1,192,0,463,100,8
71218,15:14:29,148697371,test,2,intention_check,49,1,192,1,454,100,8
71218,15:14:29,148697371,test,2,prime_negative,50,2,186,0,593,100,7
71218,15:14:29,148697371,test,2,intention_check,51,2,186,1,297,100,7
71218,15:14:29,148697371,test,2,prime_positive,52,12,63,1,1140,100,7
71218,15:14:29,148697371,test,2,intention_check,53,12,63,0,2500,100,7
71218,15:14:29,148697371,test,2,prime_positive,54,2,150,1,1248,100,7
71218,15:14:29,148697371,test,2,intention_check,55,2,150,1,558,100,7
71218,15:14:29,148697371,test,2,prime_positive,56,1,19,1,345,100,7
71218,15:14:29,148697371,test,2,intention_check,57,1,19,1,266,100,7
71218,15:14:29,148697371,test,2,prime_negative,58,5,148,0,518,100,7
71218,15:14:29,148697371,test,2,intention_check,59,5,148,1,384,100,7
71218,15:14:29,148697371,test,2,prime_negative,60,12,38,0,603,100,6
71218,15:14:29,148697371,test,2,intention_check,61,12,38,1,258,100,6
71218,15:14:29,148697371,test,2,prime_positive,62,10,36,1,1405,100,6
71218,15:14:29,148697371,test,2,intention_check,63,10,36,1,357,100,6
71218,15:14:29,148697371,test,2,prime_positive,64,11,132,1,831,100,6
71218,15:14:29,148697371,test,2,intention_check,65,11,132,1,462,100,6
71218,15:14:29,148697371,test,2,prime_positive,66,6,64,1,329,100,6
71218,15:14:29,148697371,test,2,intention_check,67,6,64,1,315,100,6
71218,15:14:29,148697371,test,2,prime_negative,68,10,154,0,1335,100,6
71218,15:14:29,148697371,test,2,intention_check,69,10,154,1,913,100,6
71218,15:14:29,148697371,test,2,prime_negative,70,4,198,0,764,100,5
71218,15:14:29,148697371,test,2,intention_check,71,4,198,1,413,100,5
71218,15:14:29,148697371,test,2,prime_positive,72,5,87,1,1655,100,5
71218,15:14:29,148697371,test,2,intention_check,73,5,87,1,1060,100,5
71218,15:14:29,148697371,test,2,prime_positive,74,10,56,1,784,100,5
71218,15:14:29,148697371,test,2,intention_check,75,10,56,1,527,100,5
71218,15:14:29,148697371,test,2,prime_positive,76,1,137,1,394,100,5
71218,15:14:29,148697371,test,2,intention_check,77,1,137,1,362,100,5
71218,15:14:29,148697371,test,2,prime_positive,78,9,128,1,405,100,5
71218,15:14:29,148697371,test,2,intention_check,79,9,128,1,820,100,5
71218,15:14:29,148697371,test,2,prime_negative,80,3,158,0,2094,100,5
71218,15:14:29,148697371,test,2,intention_check,81,3,158,1,1339,100,5
71218,15:14:29,148697371,test,2,prime_negative,82,8,49,0,2197,100,5
71218,15:14:29,148697371,test,2,intention_check,83,8,49,1,302,100,5
71218,15:14:29,148697371,test,2,prime_negative,84,12,72,0,473,100,5
71218,15:14:29,148697371,test,2,intention_check,85,12,72,1,181,100,5
71218,15:14:29,148697371,test,2,prime_positive,86,7,194,1,545,100,5
71218,15:14:29,148697371,test,2,intention_check,87,7,194,1,234,100,5
71218,15:14:29,148697371,test,2,prime_negative,88,10,174,0,485,100,4
71218,15:14:29,148697371,test,2,intention_check,89,10,174,1,545,100,4
71218,15:14:29,148697371,test,2,prime_positive,90,3,68,1,604,100,4
71218,15:14:29,148697371,test,2,intention_check,91,3,68,1,243,100,4
71218,15:14:29,148697371,test,2,prime_positive,92,2,73,1,622,100,4
71218,15:14:29,148697371,test,2,intention_check,93,2,73,1,532,100,4
71218,15:14:29,148697371,test,2,prime_positive,94,5,134,1,415,100,4
71218,15:14:29,148697371,test,2,intention_check,95,5,134,1,254,100,4
71218,15:14:29,148697371,test,2,prime_positive,96,6,47,1,345,100,4
71218,15:14:29,148697371,test,2,intention_check,97,6,47,1,123,100,4
71218,15:14:29,148697371,test,2,prime_positive,98,12,18,1,518,100,4
71218,15:14:29,148697371,test,2,intention_check,99,12,18,1,1584,100,4
71218,15:14:29,148697371,test,2,prime_positive,100,4,113,1,572,100,4
71218,15:14:29,148697371,test,2,intention_check,101,4,113,1,436,100,4
71218,15:14:29,148697371,test,2,prime_negative,102,9,8,0,559,100,4
71218,15:14:29,148697371,test,2,intention_check,103,9,8,1,184,100,4
71218,15:14:29,148697371,test,2,prime_negative,104,5,125,0,419,100,4
71218,15:14:29,148697371,test,2,intention_check,105,5,125,1,145,100,4
71218,15:14:29,148697371,test,2,prime_negative,106,4,32,0,428,100,4
71218,15:14:29,148697371,test,2,intention_check,107,4,32,1,107,100,4
71218,15:14:29,148697371,test,2,prime_negative,108,7,78,0,709,100,4
71218,15:14:29,148697371,test,2,intention_check,109,7,78,1,137,100,4
71218,15:14:29,148697371,test,2,prime_negative,110,6,12,0,467,100,3
71218,15:14:29,148697371,test,2,intention_check,111,6,12,1,112,100,3
71218,15:14:29,148697371,test,2,prime_negative,112,2,44,0,459,100,3
71218,15:14:29,148697371,test,2,intention_check,113,2,44,1,120,100,3
71218,15:14:29,148697371,test,2,prime_negative,114,3,16,0,595,100,3
71218,15:14:29,148697371,test,2,intention_check,115,3,16,1,138,100,3
71218,15:14:29,148697371,test,2,prime_negative,116,8,123,0,517,100,3
71218,15:14:29,148697371,test,2,intention_check,117,8,123,1,48,100,3
71218,15:14:29,148697371,test,2,prime_negative,118,11,165,0,666,100,3
71218,15:14:29,148697371,test,2,intention_check,119,11,165,1,79,100,3
71218,15:14:29,148697371,test,2,prime_negative,120,1,140,0,842,100,3
71218,15:14:29,148697371,test,2,intention_check,121,1,140,1,40,100,3
71218,15:14:29,148697371,test,2,prime_negative,122,10,35,0,323,100,3
71218,15:14:29,148697371,test,2,intention_check,123,10,35,1,21,100,3
71218,15:14:29,148697371,test,2,prime_negative,124,6,23,0,400,100,3
71218,15:14:29,148697371,test,2,intention_check,125,6,23,1,63,100,3
71218,15:14:29,148697371,test,2,prime_negative,126,8,119,0,458,100,2
71218,15:14:29,148697371,test,2,intention_check,127,8,119,1,7,100,2
71218,15:14:29,148697371,test,2,prime_positive,128,11,142,1,722,100,2
71218,15:14:29,148697371,test,2,intention_check,129,11,142,1,100,100,2
71218,15:14:29,148697371,test,2,prime_negative,130,4,163,0,399,100,2
71218,15:14:29,148697371,test,2,intention_check,131,4,163,1,78,100,2
71218,15:14:29,148697371,test,2,prime_negative,132,2,92,0,761,100,2
71218,15:14:29,148697371,test,2,intention_check,133,2,92,1,123,100,2
71218,15:14:29,148697371,test,2,prime_positive,134,8,57,1,406,100,2
71218,15:14:29,148697371,test,2,intention_check,135,8,57,1,85,100,2
71218,15:14:29,148697371,test,2,prime_positive,136,10,93,1,272,100,2
71218,15:14:29,148697371,test,2,intention_check,137,10,93,1,85,100,2
71218,15:14:29,148697371,test,2,prime_negative,138,11,191,0,304,100,2
71218,15:14:29,148697371,test,2,intention_check,139,11,191,1,83,100,2
71218,15:14:29,148697371,test,2,prime_positive,140,9,15,1,415,100,2
71218,15:14:29,148697371,test,2,intention_check,141,9,15,1,62,100,2
71218,15:14:29,148697371,test,2,prime_positive,142,4,122,1,425,100,2
71218,15:14:29,148697371,test,2,intention_check,143,4,122,1,56,100,2
71218,15:14:29,148697371,test,2,prime_negative,144,9,173,1,434,100,5
71218,15:14:29,148697371,test,2,intention_check,145,9,173,1,80,100,5
71218,15:14:29,148697371,test,2,prime_negative,146,1,157,0,1324,100,5
71218,15:14:29,148697371,test,2,intention_check,147,1,157,1,54,100,5
71218,15:14:29,148697371,test,2,prime_negative,148,7,59,0,930,100,5
71218,15:14:29,148697371,test,2,intention_check,149,7,59,1,60,100,5
71218,15:14:29,148697371,test,2,prime_positive,150,3,185,1,551,100,5
71218,15:14:29,148697371,test,2,intention_check,151,3,185,1,48,100,5
71218,15:14:29,148697371,test,2,prime_negative,152,5,111,0,620,100,4
71218,15:14:29,148697371,test,2,intention_check,153,5,111,1,978,100,4
71218,15:14:29,148697371,test,2,prime_negative,154,3,24,0,814,100,4
71218,15:14:29,148697371,test,2,intention_check,155,3,24,1,397,100,4
71218,15:14:29,148697371,test,2,prime_positive,156,7,96,1,680,100,4
71218,15:14:29,148697371,test,2,intention_check,157,7,96,1,189,100,4
71218,15:14:29,148697371,test,2,prime_positive,158,5,97,1,616,100,4
71218,15:14:29,148697371,test,2,intention_check,159,5,97,1,142,100,4
71218,15:14:29,148697371,test,2,prime_negative,160,12,146,0,362,100,4
71218,15:14:29,148697371,test,2,intention_check,161,12,146,1,123,100,4
71218,15:14:29,148697371,test,2,prime_positive,162,11,107,1,311,100,4
71218,15:14:29,148697371,test,2,intention_check,163,11,107,1,73,100,4
71218,15:14:29,148697371,test,2,prime_positive,164,1,7,1,517,100,4
71218,15:14:29,148697371,test,2,intention_check,165,1,7,1,31,100,4
71218,15:14:29,148697371,test,2,prime_negative,166,4,90,0,410,100,4
71218,15:14:29,148697371,test,2,intention_check,167,4,90,1,89,100,4
71218,15:14:29,148697371,test,2,prime_positive,168,8,156,1,533,100,4
71218,15:14:29,148697371,test,2,intention_check,169,8,156,1,111,100,4
71218,15:14:29,148697371,test,2,prime_positive,170,2,179,1,442,100,4
71218,15:14:29,148697371,test,2,intention_check,171,2,179,1,88,100,4
71218,15:14:29,148697371,test,2,prime_negative,172,6,133,0,499,100,4
71218,15:14:29,148697371,test,2,intention_check,173,6,133,1,127,100,4
71218,15:14:29,148697371,test,2,prime_negative,174,12,10,0,410,100,4
71218,15:14:29,148697371,test,2,intention_check,175,12,10,1,121,100,4
71218,15:14:29,148697371,test,2,prime_positive,176,6,177,1,516,100,4
71218,15:14:29,148697371,test,2,intention_check,177,6,177,1,111,100,4
71218,15:14:29,148697371,test,2,prime_negative,178,3,25,0,426,100,4
71218,15:14:29,148697371,test,2,intention_check,179,3,25,1,56,100,4
71218,15:14:29,148697371,test,2,prime_negative,180,5,100,0,307,100,4
71218,15:14:29,148697371,test,2,intention_check,181,5,100,1,70,100,4
71218,15:14:29,148697371,test,2,prime_positive,182,12,105,1,1441,100,4
71218,15:14:29,148697371,test,2,intention_check,183,12,105,0,2500,100,4
71218,15:14:29,148697371,test,2,prime_positive,184,8,54,1,1538,100,4
71218,15:14:29,148697371,test,2,intention_check,185,8,54,1,420,100,4
71218,15:14:29,148697371,test,2,prime_negative,186,7,74,0,639,100,4
71218,15:14:29,148697371,test,2,intention_check,187,7,74,1,277,100,4
71218,15:14:29,148697371,test,2,prime_positive,188,4,71,0,2304,97,4
71218,15:14:29,148697371,test,2,intention_check,189,4,71,0,2500,97,4
71218,15:14:29,148697371,test,2,prime_positive,190,7,79,1,1135,97,4
71218,15:14:29,148697371,test,2,intention_check,191,7,79,0,2500,97,4
71218,15:14:29,148697371,test,2,prime_positive,192,6,152,1,1019,97,4
71218,15:14:29,148697371,test,2,intention_check,193,6,152,1,498,97,4
71218,15:14:29,148697371,test,2,prime_negative,194,9,80,0,765,97,4
71218,15:14:29,148697371,test,2,intention_check,195,9,80,1,1342,97,4
71218,15:14:29,148697371,test,2,prime_positive,196,9,175,1,1418,97,4
71218,15:14:29,148697371,test,2,intention_check,197,9,175,0,2500,97,4
71218,15:14:29,148697371,test,2,prime_positive,198,2,51,1,1531,97,4
71218,15:14:29,148697371,test,2,intention_check,199,2,51,1,910,97,4
71218,15:14:29,148697371,test,2,prime_negative,200,11,65,0,2057,97,3
71218,15:14:29,148697371,test,2,intention_check,201,11,65,1,679,97,3
71218,15:14:29,148697371,test,2,prime_positive,202,5,34,0,1010,96,3
71218,15:14:29,148697371,test,2,intention_check,203,5,34,0,2500,96,3
71218,15:14:29,148697371,test,2,prime_negative,204,2,62,0,1252,96,3
71218,15:14:29,148697371,test,2,intention_check,205,2,62,1,145,96,3
71218,15:14:29,148697371,test,2,prime_positive,206,1,30,1,796,96,3
71218,15:14:29,148697371,test,2,intention_check,207,1,30,1,540,96,3
71218,15:14:29,148697371,test,2,prime_positive,208,12,176,1,663,96,3
71218,15:14:29,148697371,test,2,intention_check,209,12,176,1,445,96,3
71218,15:14:29,148697371,test,2,prime_negative,210,8,120,0,2744,96,3
71218,15:14:29,148697371,test,2,intention_check,211,8,120,1,107,96,3
71218,15:14:29,148697371,test,2,prime_negative,212,10,130,0,550,96,3
71218,15:14:29,148697371,test,2,intention_check,213,10,130,1,47,96,3
71218,15:14:29,148697371,test,2,prime_positive,214,10,9,1,1643,96,3
71218,15:14:29,148697371,test,2,intention_check,215,10,9,0,2500,96,3
71218,15:14:29,148697371,test,2,prime_negative,216,1,42,0,2244,96,3
71218,15:14:29,148697371,test,2,intention_check,217,1,42,1,602,96,3
71218,15:14:29,148697371,test,2,prime_negative,218,5,109,1,1638,96,5
71218,15:14:29,148697371,test,2,intention_check,219,5,109,0,2500,96,5
71218,15:14:29,148697371,test,2,prime_positive,220,11,14,1,2062,96,5
71218,15:14:29,148697371,test,2,intention_check,221,11,14,1,124,96,5
71218,15:14:29,148697371,test,2,prime_positive,222,3,188,1,1016,96,5
71218,15:14:29,148697371,test,2,intention_check,223,3,188,1,1518,96,5
71218,15:14:29,148697371,test,2,prime_positive,224,10,160,1,858,96,5
71218,15:14:29,148697371,test,2,intention_check,225,10,160,0,2500,96,5
71218,15:14:29,148697371,test,2,prime_positive,226,12,195,1,1553,96,5
71218,15:14:29,148697371,test,2,intention_check,227,12,195,0,2500,96,5
71218,15:14:29,148697371,test,2,prime_negative,228,3,189,0,1501,96,5
71218,15:14:29,148697371,test,2,intention_check,229,3,189,1,705,96,5
71218,15:14:29,148697371,test,2,prime_positive,230,3,27,1,860,96,5
71218,15:14:29,148697371,test,2,intention_check,231,3,27,1,265,96,5
71218,15:14:29,148697371,test,2,prime_negative,232,4,184,0,1140,96,5
71218,15:14:29,148697371,test,2,intention_check,233,4,184,1,70,96,5
71218,15:14:29,148697371,test,2,prime_positive,234,7,95,1,1489,96,5
71218,15:14:29,148697371,test,2,intention_check,235,7,95,0,2500,96,5
71218,15:14:29,148697371,test,2,prime_positive,236,9,104,1,816,96,5
71218,15:14:29,148697371,test,2,intention_check,237,9,104,0,2500,96,5
71218,15:14:29,148697371,test,2,prime_negative,238,12,84,0,1512,96,5
71218,15:14:29,148697371,test,2,intention_check,239,12,84,0,2500,96,5
71218,15:14:29,148697371,test,2,prime_negative,240,1,53,0,1366,96,5
71218,15:14:29,148697371,test,2,intention_check,241,1,53,1,383,96,5
71218,15:13:32,787416013,practice,1,prime_negative_practice,5,0,0,1,1134,0,0
71218,15:13:32,787416013,practice,1,intention_check_practice,6,0,0,0,2500,0,0
71218,15:13:32,787416013,practice,1,prime_positive_practice,7,0,0,1,590,0,0
71218,15:13:32,787416013,practice,1,intention_check_practice,8,0,0,0,2500,0,0
71218,15:13:32,787416013,practice,1,prime_negative_practice,9,0,0,1,542,0,0
71218,15:13:32,787416013,practice,1,intention_check_practice,10,0,0,0,2500,0,0
71218,15:13:32,787416013,practice,1,prime_negative_practice,11,0,0,1,1194,0,0
71218,15:13:32,787416013,practice,1,intention_check_practice,12,0,0,0,2500,0,0
71218,15:13:32,787416013,practice,1,prime_positive_practice,13,0,0,0,766,0,0
71218,15:13:32,787416013,practice,1,intention_check_practice,14,0,0,0,2500,0,0
71218,15:13:32,787416013,practice,1,prime_positive_practice,15,0,0,0,642,0,0
71218,15:13:32,787416013,practice,1,intention_check_practice,16,0,0,0,2500,0,0
71218,15:13:32,787416013,practice,1,prime_positive_practice,17,0,0,1,621,0,0
71218,15:13:32,787416013,practice,1,intention_check_practice,18,0,0,0,2500,0,0
71218,15:13:32,787416013,practice,1,prime_negative_practice,19,0,0,0,471,0,0
71218,15:13:32,787416013,practice,1,intention_check_practice,20,0,0,0,2500,0,0
71218,15:13:32,787416013,practice,1,prime_positive_practice,21,0,0,1,582,0,0
71218,15:13:32,787416013,practice,1,intention_check_practice,22,0,0,0,2500,0,0
71218,15:13:32,787416013,practice,1,prime_negative_practice,23,0,0,0,850,0,0
71218,15:13:32,787416013,practice,1,intention_check_practice,24,0,0,0,2500,0,0
71218,15:13:32,787416013,test,2,prime_negative,2,7,34,0,694,0,0
71218,15:13:32,787416013,test,2,intention_check,3,7,34,0,2500,0,0
71218,15:13:32,787416013,test,2,prime_negative,4,10,82,0,645,0,0
71218,15:13:32,787416013,test,2,intention_check,5,10,82,0,2500,0,0
71218,15:13:32,787416013,test,2,prime_positive,6,10,155,1,581,100,0
71218,15:13:32,787416013,test,2,intention_check,7,10,155,0,2500,100,0
71218,15:13:32,787416013,test,2,prime_negative,8,4,164,0,717,100,0
71218,15:13:32,787416013,test,2,intention_check,9,4,164,0,2500,100,0
71218,15:13:32,787416013,test,2,prime_positive,10,7,116,1,459,100,0
71218,15:13:32,787416013,test,2,intention_check,11,7,116,0,2500,100,0
71218,15:13:32,787416013,test,2,prime_negative,12,6,5,0,838,100,0
71218,15:13:32,787416013,test,2,intention_check,13,6,5,0,2500,100,0
71218,15:13:32,787416013,test,2,prime_positive,14,6,36,0,694,66,0
71218,15:13:32,787416013,test,2,intention_check,15,6,36,0,2500,66,0
71218,15:13:32,787416013,test,2,prime_negative,16,8,195,0,830,66,0
71218,15:13:32,787416013,test,2,intention_check,17,8,195,0,2500,66,0
71218,15:13:32,787416013,test,2,prime_negative,18,12,8,1,659,66,16
71218,15:13:32,787416013,test,2,intention_check,19,12,8,0,2500,66,16
71218,15:13:32,787416013,test,2,prime_negative,20,5,159,0,777,66,14
71218,15:13:32,787416013,test,2,intention_check,21,5,159,0,2500,66,14
71218,15:13:32,787416013,test,2,prime_negative,22,12,177,1,771,66,25
71218,15:13:32,787416013,test,2,intention_check,23,12,177,0,2500,66,25
71218,15:13:32,787416013,test,2,prime_positive,24,4,183,0,787,50,25
71218,15:13:32,787416013,test,2,intention_check,25,4,183,0,2500,50,25
71218,15:13:32,787416013,test,2,prime_positive,26,5,38,1,647,60,25
71218,15:13:32,787416013,test,2,intention_check,27,5,38,0,2500,60,25
71218,15:13:32,787416013,test,2,prime_negative,28,6,42,0,840,60,22
71218,15:13:32,787416013,test,2,intention_check,29,6,42,0,2500,60,22
71218,15:13:32,787416013,test,2,prime_negative,30,10,131,0,791,60,20
71218,15:13:32,787416013,test,2,intention_check,31,10,131,0,2500,60,20
71218,15:13:32,787416013,test,2,prime_negative,32,8,149,1,486,60,27
71218,15:13:32,787416013,test,2,intention_check,33,8,149,0,2500,60,27
71218,15:13:32,787416013,test,2,prime_positive,34,9,200,1,803,66,27
71218,15:13:32,787416013,test,2,intention_check,35,9,200,0,2500,66,27
71218,15:13:32,787416013,test,2,prime_negative,36,1,80,0,656,66,25
71218,15:13:32,787416013,test,2,intention_check,37,1,80,0,2500,66,25
71218,15:13:32,787416013,test,2,prime_positive,38,3,143,0,679,57,25
71218,15:13:32,787416013,test,2,intention_check,39,3,143,0,2500,57,25
71218,15:13:32,787416013,test,2,prime_positive,40,9,108,1,674,62,25
71218,15:13:32,787416013,test,2,intention_check,41,9,108,0,2500,62,25
71218,15:13:32,787416013,test,2,prime_positive,42,12,60,0,776,55,25
71218,15:13:32,787416013,test,2,intention_check,43,12,60,0,2500,55,25
71218,15:13:32,787416013,test,2,prime_negative,44,4,24,1,875,55,30
71218,15:13:32,787416013,test,2,intention_check,45,4,24,0,2500,55,30
71218,15:13:32,787416013,test,2,prime_negative,46,9,19,0,541,55,28
71218,15:13:32,787416013,test,2,intention_check,47,9,19,0,2500,55,28
71218,15:13:32,787416013,test,2,prime_positive,48,7,103,1,571,60,28
71218,15:13:32,787416013,test,2,intention_check,49,7,103,0,2500,60,28
71218,15:13:32,787416013,test,2,prime_negative,50,3,26,0,636,60,26
71218,15:13:32,787416013,test,2,intention_check,51,3,26,0,2500,60,26
71218,15:13:32,787416013,test,2,prime_negative,52,7,186,1,489,60,31
71218,15:13:32,787416013,test,2,intention_check,53,7,186,0,2500,60,31
71218,15:13:32,787416013,test,2,prime_negative,54,5,21,0,660,60,29
71218,15:13:32,787416013,test,2,intention_check,55,5,21,0,2500,60,29
71218,15:13:32,787416013,test,2,prime_negative,56,2,31,0,483,60,27
71218,15:13:32,787416013,test,2,intention_check,57,2,31,0,2500,60,27
71218,15:13:32,787416013,test,2,prime_negative,58,11,180,1,429,60,31
71218,15:13:32,787416013,test,2,intention_check,59,11,180,0,2500,60,31
71218,15:13:32,787416013,test,2,prime_negative,60,1,12,0,605,60,30
71218,15:13:32,787416013,test,2,intention_check,61,1,12,0,2500,60,30
71218,15:13:32,787416013,test,2,prime_negative,62,7,126,0,870,60,28
71218,15:13:32,787416013,test,2,intention_check,63,7,126,0,2500,60,28
71218,15:13:32,787416013,test,2,prime_positive,64,5,198,1,1041,63,28
71218,15:13:32,787416013,test,2,intention_check,65,5,198,0,2500,63,28
71218,15:13:32,787416013,test,2,prime_negative,66,3,184,1,688,63,31
71218,15:13:32,787416013,test,2,intention_check,67,3,184,0,2500,63,31
71218,15:13:32,787416013,test,2,prime_negative,68,5,150,0,535,63,30
71218,15:13:32,787416013,test,2,intention_check,69,5,150,0,2500,63,30
71218,15:13:32,787416013,test,2,prime_positive,70,8,45,0,802,58,30
71218,15:13:32,787416013,test,2,intention_check,71,8,45,0,2500,58,30
71218,15:13:32,787416013,test,2,prime_positive,72,3,90,0,757,53,30
71218,15:13:32,787416013,test,2,intention_check,73,3,90,0,2500,53,30
71218,15:13:32,787416013,test,2,prime_negative,74,4,13,1,515,53,33
71218,15:13:32,787416013,test,2,intention_check,75,4,13,0,2500,53,33
71218,15:13:32,787416013,test,2,prime_negative,76,11,154,0,707,53,32
71218,15:13:32,787416013,test,2,intention_check,77,11,154,0,2500,53,32
71218,15:13:32,787416013,test,2,prime_negative,78,10,4,0,633,53,30
71218,15:13:32,787416013,test,2,intention_check,79,10,4,0,2500,53,30
71218,15:13:32,787416013,test,2,prime_negative,80,6,167,1,656,53,33
71218,15:13:32,787416013,test,2,intention_check,81,6,167,0,2500,53,33
71218,15:13:32,787416013,test,2,prime_positive,82,4,44,0,622,50,33
71218,15:13:32,787416013,test,2,intention_check,83,4,44,0,2500,50,33
71218,15:13:32,787416013,test,2,prime_negative,84,8,32,0,543,50,32
71218,15:13:32,787416013,test,2,intention_check,85,8,32,0,2500,50,32
71218,15:13:32,787416013,test,2,prime_negative,86,12,134,1,515,50,34
71218,15:13:32,787416013,test,2,intention_check,87,12,134,0,2500,50,34
71218,15:13:32,787416013,test,2,prime_negative,88,2,30,0,441,50,33
71218,15:13:32,787416013,test,2,intention_check,89,2,30,0,2500,50,33
71218,15:13:32,787416013,test,2,prime_positive,90,1,122,1,615,53,33
71218,15:13:32,787416013,test,2,intention_check,91,1,122,0,2500,53,33
71218,15:13:32,787416013,test,2,prime_positive,92,6,49,0,504,50,33
71218,15:13:32,787416013,test,2,intention_check,93,6,49,0,2500,50,33
71218,15:13:32,787416013,test,2,prime_negative,94,9,118,1,477,50,35
71218,15:13:32,787416013,test,2,intention_check,95,9,118,0,2500,50,35
71218,15:13:32,787416013,test,2,prime_positive,96,2,94,0,522,47,35
71218,15:13:32,787416013,test,2,intention_check,97,2,94,0,2500,47,35
71218,15:13:32,787416013,test,2,prime_positive,98,11,146,1,587,50,35
71218,15:13:32,787416013,test,2,intention_check,99,11,146,0,2500,50,35
71218,15:13:32,787416013,test,2,prime_positive,100,10,174,0,540,47,35
71218,15:13:32,787416013,test,2,intention_check,101,10,174,0,2500,47,35
71218,15:13:32,787416013,test,2,prime_positive,102,6,158,1,391,50,35
71218,15:13:32,787416013,test,2,intention_check,103,6,158,0,2500,50,35
71218,15:13:32,787416013,test,2,prime_negative,104,12,58,0,483,50,34
71218,15:13:32,787416013,test,2,intention_check,105,12,58,0,2500,50,34
71218,15:13:32,787416013,test,2,prime_negative,106,5,83,0,596,50,33
71218,15:13:32,787416013,test,2,intention_check,107,5,83,0,2500,50,33
71218,15:13:32,787416013,test,2,prime_positive,108,7,7,0,667,47,33
71218,15:13:32,787416013,test,2,intention_check,109,7,7,0,2500,47,33
71218,15:13:32,787416013,test,2,prime_negative,110,8,68,1,580,47,35
71218,15:13:32,787416013,test,2,intention_check,111,8,68,0,2500,47,35
71218,15:13:32,787416013,test,2,prime_positive,112,1,182,1,809,50,35
71218,15:13:32,787416013,test,2,intention_check,113,1,182,0,2500,50,35
71218,15:13:32,787416013,test,2,prime_positive,114,4,52,0,467,47,35
71218,15:13:32,787416013,test,2,intention_check,115,4,52,0,2500,47,35
71218,15:13:32,787416013,test,2,prime_negative,116,10,76,0,589,47,34
71218,15:13:32,787416013,test,2,intention_check,117,10,76,0,2500,47,34
71218,15:13:32,787416013,test,2,prime_negative,118,4,142,1,464,47,36
71218,15:13:32,787416013,test,2,intention_check,119,4,142,0,2500,47,36
71218,15:13:32,787416013,test,2,prime_positive,120,12,85,0,687,45,36
71218,15:13:32,787416013,test,2,intention_check,121,12,85,0,2500,45,36
71218,15:13:32,787416013,test,2,prime_positive,122,11,139,1,446,48,36
71218,15:13:32,787416013,test,2,intention_check,123,11,139,0,2500,48,36
71218,15:13:32,787416013,test,2,prime_negative,124,6,102,1,466,48,37
71218,15:13:32,787416013,test,2,intention_check,125,6,102,0,2500,48,37
71218,15:13:32,787416013,test,2,prime_positive,126,5,178,0,818,46,37
71218,15:13:32,787416013,test,2,intention_check,127,5,178,0,2500,46,37
71218,15:13:32,787416013,test,2,prime_negative,128,1,95,1,413,46,39
71218,15:13:32,787416013,test,2,intention_check,129,1,95,0,2500,46,39
71218,15:13:32,787416013,test,2,prime_positive,130,2,112,1,436,48,39
71218,15:13:32,787416013,test,2,intention_check,131,2,112,0,2500,48,39
71218,15:13:32,787416013,test,2,prime_positive,132,3,194,1,517,50,39
71218,15:13:32,787416013,test,2,intention_check,133,3,194,0,2500,50,39
71218,15:13:32,787416013,test,2,prime_positive,134,10,172,1,476,51,39
71218,15:13:32,787416013,test,2,intention_check,135,10,172,0,2500,51,39
71218,15:13:32,787416013,test,2,prime_positive,136,8,191,1,580,53,39
71218,15:13:32,787416013,test,2,intention_check,137,8,191,0,2500,53,39
71218,15:13:32,787416013,test,2,prime_negative,138,2,92,1,445,53,41
71218,15:13:32,787416013,test,2,intention_check,139,2,92,0,2500,53,41
71218,15:13:32,787416013,test,2,prime_positive,140,9,89,1,522,54,41
71218,15:13:32,787416013,test,2,intention_check,141,9,89,0,2500,54,41
71218,15:13:32,787416013,test,2,prime_positive,142,5,133,1,510,56,41
71218,15:13:32,787416013,test,2,intention_check,143,5,133,0,2500,56,41
71218,15:13:32,787416013,test,2,prime_positive,144,8,148,1,521,57,41
71218,15:13:32,787416013,test,2,intention_check,145,8,148,0,2500,57,41
71218,15:13:32,787416013,test,2,prime_positive,146,3,74,1,466,58,41
71218,15:13:32,787416013,test,2,intention_check,147,3,74,0,2500,58,41
71218,15:13:32,787416013,test,2,prime_negative,148,9,1,0,357,58,40
71218,15:13:32,787416013,test,2,intention_check,149,9,1,0,2500,58,40
71218,15:13:32,787416013,test,2,prime_positive,150,10,114,1,436,60,40
71218,15:13:32,787416013,test,2,intention_check,151,10,114,0,2500,60,40
71218,15:13:32,787416013,test,2,prime_positive,152,4,41,0,409,58,40
71218,15:13:32,787416013,test,2,intention_check,153,4,41,0,2500,58,40
71218,15:13:32,787416013,test,2,prime_negative,154,7,170,1,501,58,41
71218,15:13:32,787416013,test,2,intention_check,155,7,170,0,2500,58,41
71218,15:13:32,787416013,test,2,prime_positive,156,7,153,1,476,59,41
71218,15:13:32,787416013,test,2,intention_check,157,7,153,0,2500,59,41
71218,15:13:32,787416013,test,2,prime_positive,158,12,39,1,1169,60,41
71218,15:13:32,787416013,test,2,intention_check,159,12,39,0,2500,60,41
71218,15:13:32,787416013,test,2,prime_positive,160,1,69,0,479,58,41
71218,15:13:32,787416013,test,2,intention_check,161,1,69,0,2500,58,41
71218,15:13:32,787416013,test,2,prime_negative,162,11,91,0,584,58,40
71218,15:13:32,787416013,test,2,intention_check,163,11,91,0,2500,58,40
71218,15:13:32,787416013,test,2,prime_positive,164,11,47,0,470,57,40
71218,15:13:32,787416013,test,2,intention_check,165,11,47,0,2500,57,40
71218,15:13:32,787416013,test,2,prime_negative,166,3,15,0,608,57,39
71218,15:13:32,787416013,test,2,intention_check,167,3,15,0,2500,57,39
71218,15:13:32,787416013,test,2,prime_positive,168,2,33,1,461,58,39
71218,15:13:32,787416013,test,2,intention_check,169,2,33,0,2500,58,39
71218,15:13:32,787416013,test,2,prime_positive,170,9,144,1,519,59,39
71218,15:13:32,787416013,test,2,intention_check,171,9,144,0,2500,59,39
71218,15:13:32,787416013,test,2,prime_negative,172,3,27,1,453,59,40
71218,15:13:32,787416013,test,2,intention_check,173,3,27,0,2500,59,40
71218,15:13:32,787416013,test,2,prime_positive,174,6,130,1,437,60,40
71218,15:13:32,787416013,test,2,intention_check,175,6,130,0,2500,60,40
71218,15:13:32,787416013,test,2,prime_negative,176,1,6,0,679,60,40
71218,15:13:32,787416013,test,2,intention_check,177,1,6,0,2500,60,40
71218,15:13:32,787416013,test,2,prime_positive,178,3,104,1,655,61,40
71218,15:13:32,787416013,test,2,intention_check,179,3,104,0,2500,61,40
71218,15:13:32,787416013,test,2,prime_positive,180,8,10,0,390,60,40
71218,15:13:32,787416013,test,2,intention_check,181,8,10,0,2500,60,40
71218,15:13:32,787416013,test,2,prime_positive,182,6,23,1,364,60,40
71218,15:13:32,787416013,test,2,intention_check,183,6,23,0,2500,60,40
71218,15:13:32,787416013,test,2,prime_negative,184,10,199,1,563,60,41
71218,15:13:32,787416013,test,2,intention_check,185,10,199,0,2500,60,41
71218,15:13:32,787416013,test,2,prime_negative,186,2,93,1,770,60,42
71218,15:13:32,787416013,test,2,intention_check,187,2,93,0,2500,60,42
71218,15:13:32,787416013,test,2,prime_negative,188,8,171,0,427,60,41
71218,15:13:32,787416013,test,2,intention_check,189,8,171,0,2500,60,41
71218,15:13:32,787416013,test,2,prime_negative,190,11,111,1,461,60,42
71218,15:13:32,787416013,test,2,intention_check,191,11,111,0,2500,60,42
71218,15:13:32,787416013,test,2,prime_positive,192,5,40,1,818,61,42
71218,15:13:32,787416013,test,2,intention_check,193,5,40,0,2500,61,42
71218,15:13:32,787416013,test,2,prime_negative,194,6,9,1,499,61,44
71218,15:13:32,787416013,test,2,intention_check,195,6,9,0,2500,61,44
71218,15:13:32,787416013,test,2,prime_negative,196,9,86,1,723,61,45
71218,15:13:32,787416013,test,2,intention_check,197,9,86,0,2500,61,45
71218,15:13:32,787416013,test,2,prime_negative,198,7,160,1,471,61,46
71218,15:13:32,787416013,test,2,intention_check,199,7,160,0,2500,61,46
71218,15:13:32,787416013,test,2,prime_negative,200,4,113,0,383,61,45
71218,15:13:32,787416013,test,2,intention_check,201,4,113,0,2500,61,45
71218,15:13:32,787416013,test,2,prime_positive,202,9,115,1,734,62,45
71218,15:13:32,787416013,test,2,intention_check,203,9,115,0,2500,62,45
71218,15:13:32,787416013,test,2,prime_positive,204,12,57,0,426,61,45
71218,15:13:32,787416013,test,2,intention_check,205,12,57,0,2500,61,45
71218,15:13:32,787416013,test,2,prime_negative,206,12,165,1,485,61,46
71218,15:13:32,787416013,test,2,intention_check,207,12,165,0,2500,61,46
71218,15:13:32,787416013,test,2,prime_positive,208,4,157,0,762,60,46
71218,15:13:32,787416013,test,2,intention_check,209,4,157,0,2500,60,46
71218,15:13:32,787416013,test,2,prime_positive,210,10,123,1,467,60,46
71218,15:13:32,787416013,test,2,intention_check,211,10,123,0,2500,60,46
71218,15:13:32,787416013,test,2,prime_positive,212,7,73,0,578,59,46
71218,15:13:32,787416013,test,2,intention_check,213,7,73,0,2500,59,46
71218,15:13:32,787416013,test,2,prime_positive,214,1,110,1,448,60,46
71218,15:13:32,787416013,test,2,intention_check,215,1,110,0,2500,60,46
71218,15:13:32,787416013,test,2,prime_positive,216,11,22,1,465,61,46
71218,15:13:32,787416013,test,2,intention_check,217,11,22,0,2500,61,46
71218,15:13:32,787416013,test,2,prime_positive,218,2,189,1,507,61,46
71218,15:13:32,787416013,test,2,intention_check,219,2,189,0,2500,61,46
71218,15:13:32,787416013,test,2,prime_positive,220,11,147,1,554,62,46
71218,15:13:32,787416013,test,2,intention_check,221,11,147,0,2500,62,46
71218,15:13:32,787416013,test,2,prime_negative,222,5,106,1,946,62,47
71218,15:13:32,787416013,test,2,intention_check,223,5,106,0,2500,62,47
71218,15:13:32,787416013,test,2,prime_positive,224,7,63,0,778,61,47
71218,15:13:32,787416013,test,2,intention_check,225,7,63,0,2500,61,47
71218,15:13:32,787416013,test,2,prime_positive,226,2,128,1,640,62,47
71218,15:13:32,787416013,test,2,intention_check,227,2,128,0,2500,62,47
71218,15:13:32,787416013,test,2,prime_positive,228,9,137,1,502,62,47
71218,15:13:32,787416013,test,2,intention_check,229,9,137,0,2500,62,47
71218,15:13:32,787416013,test,2,prime_negative,230,9,145,0,683,62,46
71218,15:13:32,787416013,test,2,intention_check,231,9,145,0,2500,62,46
71218,15:13:32,787416013,test,2,prime_positive,232,3,173,1,548,63,46
71218,15:13:32,787416013,test,2,intention_check,233,3,173,0,2500,63,46
71218,15:13:32,787416013,test,2,prime_negative,234,5,35,0,526,63,45
71218,15:13:32,787416013,test,2,intention_check,235,5,35,0,2500,63,45
71218,15:13:32,787416013,test,2,prime_negative,236,7,48,0,578,63,44
71218,15:13:32,787416013,test,2,intention_check,237,7,48,0,2500,63,44
71218,15:13:32,787416013,test,2,prime_negative,238,3,46,1,531,63,45
71218,15:13:32,787416013,test,2,intention_check,239,3,46,0,2500,63,45
71218,15:13:32,787416013,test,2,prime_negative,240,6,125,1,416,63,46
71218,15:13:32,787416013,test,2,intention_check,241,6,125,0,2500,63,46
71218,15:17:48,493020342,practice,1,prime_positive_practice,5,0,0,0,4658,0,0
71218,15:17:48,493020342,practice,1,intention_check_practice,6,0,0,0,2500,0,0
71218,15:17:48,493020342,practice,1,prime_negative_practice,7,0,0,0,1809,0,0
71218,15:17:48,493020342,practice,1,intention_check_practice,8,0,0,1,596,0,0
71218,15:17:48,493020342,practice,1,prime_positive_practice,9,0,0,0,1484,0,0
71218,15:17:48,493020342,practice,1,intention_check_practice,10,0,0,0,2500,0,0
71218,15:17:48,493020342,practice,1,prime_negative_practice,11,0,0,0,3747,0,0
71218,15:17:48,493020342,practice,1,intention_check_practice,12,0,0,0,2500,0,0
71218,15:17:48,493020342,practice,1,prime_negative_practice,13,0,0,1,3059,0,0
71218,15:17:48,493020342,practice,1,intention_check_practice,14,0,0,0,2500,0,0
71218,15:17:48,493020342,practice,1,prime_positive_practice,15,0,0,1,1150,0,0
71218,15:17:48,493020342,practice,1,intention_check_practice,16,0,0,0,2500,0,0
71218,15:17:48,493020342,practice,1,prime_positive_practice,17,0,0,1,3962,0,0
71218,15:17:48,493020342,practice,1,intention_check_practice,18,0,0,1,1671,0,0
71218,15:17:48,493020342,practice,1,prime_negative_practice,19,0,0,0,2261,0,0
71218,15:17:48,493020342,practice,1,intention_check_practice,20,0,0,0,2500,0,0
71218,15:17:48,493020342,practice,1,prime_positive_practice,21,0,0,1,971,0,0
71218,15:17:48,493020342,practice,1,intention_check_practice,22,0,0,0,2500,0,0
71218,15:17:48,493020342,practice,1,prime_negative_practice,23,0,0,1,1684,0,0
71218,15:17:48,493020342,practice,1,intention_check_practice,24,0,0,0,2500,0,0
71218,15:17:48,493020342,test,2,prime_positive,2,4,185,1,1062,100,0
71218,15:17:48,493020342,test,2,intention_check,3,4,185,0,2500,100,0
71218,15:17:48,493020342,test,2,prime_negative,4,9,195,0,493,100,0
71218,15:17:48,493020342,test,2,intention_check,5,9,195,0,2500,100,0
71218,15:17:48,493020342,test,2,prime_negative,6,11,100,1,454,100,50
71218,15:17:48,493020342,test,2,intention_check,7,11,100,0,2500,100,50
71218,15:17:48,493020342,test,2,prime_negative,8,4,179,1,450,100,66
71218,15:17:48,493020342,test,2,intention_check,9,4,179,0,2500,100,66
71218,15:17:48,493020342,test,2,prime_positive,10,11,165,1,485,100,66
71218,15:17:48,493020342,test,2,intention_check,11,11,165,0,2500,100,66
71218,15:17:48,493020342,test,2,prime_positive,12,7,103,0,359,66,66
71218,15:17:48,493020342,test,2,intention_check,13,7,103,0,2500,66,66
71218,15:17:48,493020342,test,2,prime_positive,14,1,123,0,963,50,66
71218,15:17:48,493020342,test,2,intention_check,15,1,123,0,2500,50,66
71218,15:17:48,493020342,test,2,prime_positive,16,9,190,1,736,60,66
71218,15:17:48,493020342,test,2,intention_check,17,9,190,0,2500,60,66
71218,15:17:48,493020342,test,2,prime_positive,18,8,49,0,233,50,66
71218,15:17:48,493020342,test,2,intention_check,19,8,49,0,2500,50,66
71218,15:17:48,493020342,test,2,prime_positive,20,5,36,1,1842,57,66
71218,15:17:48,493020342,test,2,intention_check,21,5,36,0,2500,57,66
71218,15:17:48,493020342,test,2,prime_positive,22,3,89,0,367,50,66
71218,15:17:48,493020342,test,2,intention_check,23,3,89,0,2500,50,66
71218,15:17:48,493020342,test,2,prime_negative,24,10,168,1,324,50,75
71218,15:17:48,493020342,test,2,intention_check,25,10,168,0,2500,50,75
71218,15:17:48,493020342,test,2,prime_positive,26,1,44,1,478,55,75
71218,15:17:48,493020342,test,2,intention_check,27,1,44,0,2500,55,75
71218,15:17:48,493020342,test,2,prime_positive,28,2,142,1,480,60,75
71218,15:17:48,493020342,test,2,intention_check,29,2,142,0,2500,60,75
71218,15:17:48,493020342,test,2,prime_negative,30,3,12,0,724,60,60
71218,15:17:48,493020342,test,2,intention_check,31,3,12,0,2500,60,60
71218,15:17:48,493020342,test,2,prime_positive,32,9,157,1,647,63,60
71218,15:17:48,493020342,test,2,intention_check,33,9,157,0,2500,63,60
71218,15:17:48,493020342,test,2,prime_positive,34,12,107,0,639,58,60
71218,15:17:48,493020342,test,2,intention_check,35,12,107,0,2500,58,60
71218,15:17:48,493020342,test,2,prime_negative,36,7,106,1,522,58,66
71218,15:17:48,493020342,test,2,intention_check,37,7,106,0,2500,58,66
71218,15:17:48,493020342,test,2,prime_negative,38,12,85,1,643,58,71
71218,15:17:48,493020342,test,2,intention_check,39,12,85,0,2500,58,71
71218,15:17:48,493020342,test,2,prime_positive,40,6,84,1,372,61,71
71218,15:17:48,493020342,test,2,intention_check,41,6,84,0,2500,61,71
71218,15:17:48,493020342,test,2,prime_negative,42,11,82,1,278,61,75
71218,15:17:48,493020342,test,2,intention_check,43,11,82,0,2500,61,75
71218,15:17:48,493020342,test,2,prime_negative,44,7,125,0,703,61,66
71218,15:17:48,493020342,test,2,intention_check,45,7,125,1,906,61,66
71218,15:17:48,493020342,test,2,prime_negative,46,8,166,1,851,61,70
71218,15:17:48,493020342,test,2,intention_check,47,8,166,0,2500,61,70
71218,15:17:48,493020342,test,2,prime_positive,48,7,137,1,408,64,70
71218,15:17:48,493020342,test,2,intention_check,49,7,137,0,2500,64,70
71218,15:17:48,493020342,test,2,prime_negative,50,12,39,1,688,64,72
71218,15:17:48,493020342,test,2,intention_check,51,12,39,0,2500,64,72
71218,15:17:48,493020342,test,2,prime_negative,52,5,182,1,515,64,75
71218,15:17:48,493020342,test,2,intention_check,53,5,182,0,2500,64,75
71218,15:17:48,493020342,test,2,prime_negative,54,2,109,0,471,64,69
71218,15:17:48,493020342,test,2,intention_check,55,2,109,1,715,64,69
71218,15:17:48,493020342,test,2,prime_negative,56,3,181,1,409,64,71
71218,15:17:48,493020342,test,2,intention_check,57,3,181,0,2500,64,71
71218,15:17:48,493020342,test,2,prime_negative,58,9,38,1,673,64,73
71218,15:17:48,493020342,test,2,intention_check,59,9,38,0,2500,64,73
71218,15:17:48,493020342,test,2,prime_negative,60,4,101,1,747,64,75
71218,15:17:48,493020342,test,2,intention_check,61,4,101,0,2500,64,75
71218,15:17:48,493020342,test,2,prime_positive,62,4,138,1,124,66,75
71218,15:17:48,493020342,test,2,intention_check,63,4,138,0,2500,66,75
71218,15:17:48,493020342,test,2,prime_positive,64,11,27,1,367,68,75
71218,15:17:48,493020342,test,2,intention_check,65,11,27,0,2500,68,75
71218,15:17:48,493020342,test,2,prime_negative,66,6,52,1,470,68,76
71218,15:17:48,493020342,test,2,intention_check,67,6,52,0,2500,68,76
71218,15:17:48,493020342,test,2,prime_positive,68,8,57,1,436,70,76
71218,15:17:48,493020342,test,2,intention_check,69,8,57,1,765,70,76
71218,15:17:48,493020342,test,2,prime_positive,70,5,72,1,517,72,76
71218,15:17:48,493020342,test,2,intention_check,71,5,72,0,2500,72,76
71218,15:17:48,493020342,test,2,prime_negative,72,10,193,1,593,72,77
71218,15:17:48,493020342,test,2,intention_check,73,10,193,0,2500,72,77
71218,15:17:48,493020342,test,2,prime_positive,74,10,184,1,818,73,77
71218,15:17:48,493020342,test,2,intention_check,75,10,184,0,2500,73,77
71218,15:17:48,493020342,test,2,prime_positive,76,12,11,0,522,70,77
71218,15:17:48,493020342,test,2,intention_check,77,12,11,1,322,70,77
71218,15:17:48,493020342,test,2,prime_negative,78,1,33,0,939,70,73
71218,15:17:48,493020342,test,2,intention_check,79,1,33,1,132,70,73
71218,15:17:48,493020342,test,2,prime_negative,80,9,194,1,735,70,75
71218,15:17:48,493020342,test,2,intention_check,81,9,194,0,2500,70,75
71218,15:17:48,493020342,test,2,prime_negative,82,11,79,1,698,70,76
71218,15:17:48,493020342,test,2,intention_check,83,11,79,0,2500,70,76
71218,15:17:48,493020342,test,2,prime_negative,84,8,20,1,749,70,77
71218,15:17:48,493020342,test,2,intention_check,85,8,20,0,2500,70,77
71218,15:17:48,493020342,test,2,prime_negative,86,1,154,1,532,70,78
71218,15:17:48,493020342,test,2,intention_check,87,1,154,0,2500,70,78
71218,15:17:48,493020342,test,2,prime_positive,88,3,13,1,445,71,78
71218,15:17:48,493020342,test,2,intention_check,89,3,13,0,2500,71,78
71218,15:17:48,493020342,test,2,prime_negative,90,7,9,1,514,71,79
71218,15:17:48,493020342,test,2,intention_check,91,7,9,0,2500,71,79
71218,15:17:48,493020342,test,2,prime_positive,92,6,66,1,191,72,79
71218,15:17:48,493020342,test,2,intention_check,93,6,66,1,578,72,79
71218,15:17:48,493020342,test,2,prime_negative,94,6,169,1,395,72,80
71218,15:17:48,493020342,test,2,intention_check,95,6,169,0,2500,72,80
71218,15:17:48,493020342,test,2,prime_negative,96,3,97,1,498,72,80
71218,15:17:48,493020342,test,2,intention_check,97,3,97,0,2500,72,80
71218,15:17:48,493020342,test,2,prime_negative,98,2,192,0,206,72,77
71218,15:17:48,493020342,test,2,intention_check,99,2,192,1,406,72,77
71218,15:17:48,493020342,test,2,prime_negative,100,4,45,1,535,72,78
71218,15:17:48,493020342,test,2,intention_check,101,4,45,0,2500,72,78
71218,15:17:48,493020342,test,2,prime_positive,102,9,120,1,457,73,78
71218,15:17:48,493020342,test,2,intention_check,103,9,120,0,2500,73,78
71218,15:17:48,493020342,test,2,prime_negative,104,12,156,0,266,73,75
71218,15:17:48,493020342,test,2,intention_check,105,12,156,1,590,73,75
71218,15:17:48,493020342,test,2,prime_positive,106,8,64,1,428,75,75
71218,15:17:48,493020342,test,2,intention_check,107,8,64,0,2500,75,75
71218,15:17:48,493020342,test,2,prime_positive,108,10,42,1,350,76,75
71218,15:17:48,493020342,test,2,intention_check,109,10,42,0,2500,76,75
71218,15:17:48,493020342,test,2,prime_negative,110,10,71,1,504,76,76
71218,15:17:48,493020342,test,2,intention_check,111,10,71,0,2500,76,76
71218,15:17:48,493020342,test,2,prime_negative,112,5,147,1,542,76,77
71218,15:17:48,493020342,test,2,intention_check,113,5,147,0,2500,76,77
71218,15:17:48,493020342,test,2,prime_negative,114,12,16,0,739,76,75
71218,15:17:48,493020342,test,2,intention_check,115,12,16,1,484,76,75
71218,15:17:48,493020342,test,2,prime_positive,116,7,200,1,406,76,75
71218,15:17:48,493020342,test,2,intention_check,117,7,200,1,643,76,75
71218,15:17:48,493020342,test,2,prime_negative,118,10,124,1,412,76,75
71218,15:17:48,493020342,test,2,intention_check,119,10,124,0,2500,76,75
71218,15:17:48,493020342,test,2,prime_negative,120,1,104,0,262,76,73
71218,15:17:48,493020342,test,2,intention_check,121,1,104,1,445,76,73
71218,15:17:48,493020342,test,2,prime_positive,122,11,150,1,435,77,73
71218,15:17:48,493020342,test,2,intention_check,123,11,150,0,2500,77,73
71218,15:17:48,493020342,test,2,prime_negative,124,8,158,1,509,77,74
71218,15:17:48,493020342,test,2,intention_check,125,8,158,0,2500,77,74
71218,15:17:48,493020342,test,2,prime_positive,126,4,61,1,696,78,74
71218,15:17:48,493020342,test,2,intention_check,127,4,61,0,2500,78,74
71218,15:17:48,493020342,test,2,prime_positive,128,1,140,1,306,79,74
71218,15:17:48,493020342,test,2,intention_check,129,1,140,0,2500,79,74
71218,15:17:48,493020342,test,2,prime_positive,130,5,113,1,599,80,74
71218,15:17:48,493020342,test,2,intention_check,131,5,113,0,2500,80,74
71218,15:17:48,493020342,test,2,prime_positive,132,2,197,1,338,80,74
71218,15:17:48,493020342,test,2,intention_check,133,2,197,0,2500,80,74
71218,15:17:48,493020342,test,2,prime_negative,134,9,56,1,420,80,75
71218,15:17:48,493020342,test,2,intention_check,135,9,56,0,2500,80,75
71218,15:17:48,493020342,test,2,prime_positive,136,3,144,1,473,81,75
71218,15:17:48,493020342,test,2,intention_check,137,3,144,0,2500,81,75
71218,15:17:48,493020342,test,2,prime_positive,138,10,43,1,1945,81,75
71218,15:17:48,493020342,test,2,intention_check,139,10,43,0,2500,81,75
71218,15:17:48,493020342,test,2,prime_positive,140,5,114,1,405,82,75
71218,15:17:48,493020342,test,2,intention_check,141,5,114,0,2500,82,75
71218,15:17:48,493020342,test,2,prime_negative,142,2,111,1,1347,82,75
71218,15:17:48,493020342,test,2,intention_check,143,2,111,0,2500,82,75
71218,15:17:48,493020342,test,2,prime_negative,144,6,139,0,503,82,73
71218,15:17:48,493020342,test,2,intention_check,145,6,139,1,610,82,73
71218,15:17:48,493020342,test,2,prime_negative,146,3,95,0,813,82,71
71218,15:17:48,493020342,test,2,intention_check,147,3,95,0,2500,82,71
71218,15:17:48,493020342,test,2,prime_positive,148,1,119,1,187,82,71
71218,15:17:48,493020342,test,2,intention_check,149,1,119,0,2500,82,71
71218,15:17:48,493020342,test,2,prime_negative,150,7,5,1,1405,82,72
71218,15:17:48,493020342,test,2,intention_check,151,7,5,0,2500,82,72
71218,15:17:48,493020342,test,2,prime_negative,152,5,146,1,360,82,73
71218,15:17:48,493020342,test,2,intention_check,153,5,146,0,2500,82,73
71218,15:17:48,493020342,test,2,prime_positive,154,9,65,1,324,83,73
71218,15:17:48,493020342,test,2,intention_check,155,9,65,0,2500,83,73
71218,15:17:48,493020342,test,2,prime_negative,156,4,108,1,291,83,73
71218,15:17:48,493020342,test,2,intention_check,157,4,108,0,2500,83,73
71218,15:17:48,493020342,test,2,prime_negative,158,11,199,1,599,83,74
71218,15:17:48,493020342,test,2,intention_check,159,11,199,0,2500,83,74
71218,15:17:48,493020342,test,2,prime_positive,160,2,155,1,305,83,74
71218,15:17:48,493020342,test,2,intention_check,161,2,155,0,2500,83,74
71218,15:17:48,493020342,test,2,prime_negative,162,6,134,1,313,83,75
71218,15:17:48,493020342,test,2,intention_check,163,6,134,0,2500,83,75
71218,15:17:48,493020342,test,2,prime_positive,164,4,8,0,202,81,75
71218,15:17:48,493020342,test,2,intention_check,165,4,8,0,2500,81,75
71218,15:17:48,493020342,test,2,prime_negative,166,5,175,0,399,81,73
71218,15:17:48,493020342,test,2,intention_check,167,5,175,0,2500,81,73
71218,15:17:48,493020342,test,2,prime_negative,168,10,77,1,473,81,73
71218,15:17:48,493020342,test,2,intention_check,169,10,77,0,2500,81,73
71218,15:17:48,493020342,test,2,prime_negative,170,8,118,1,79,81,74
71218,15:17:48,493020342,test,2,intention_check,171,8,118,0,2500,81,74
71218,15:17:48,493020342,test,2,prime_positive,172,12,80,1,452,82,74
71218,15:17:48,493020342,test,2,intention_check,173,12,80,0,2500,82,74
71218,15:17:48,493020342,test,2,prime_negative,174,3,128,1,299,82,75
71218,15:17:48,493020342,test,2,intention_check,175,3,128,0,2500,82,75
71218,15:17:48,493020342,test,2,prime_positive,176,11,50,1,254,82,75
71218,15:17:48,493020342,test,2,intention_check,177,11,50,1,463,82,75
71218,15:17:48,493020342,test,2,prime_positive,178,6,198,1,444,82,75
71218,15:17:48,493020342,test,2,intention_check,179,6,198,0,2500,82,75
71218,15:17:48,493020342,test,2,prime_positive,180,7,83,1,254,83,75
71218,15:17:48,493020342,test,2,intention_check,181,7,83,0,2500,83,75
71218,15:17:48,493020342,test,2,prime_positive,182,8,121,1,325,83,75
71218,15:17:48,493020342,test,2,intention_check,183,8,121,0,2500,83,75
71218,15:17:48,493020342,test,2,prime_positive,184,10,78,1,324,84,75
71218,15:17:48,493020342,test,2,intention_check,185,10,78,0,2500,84,75
71218,15:17:48,493020342,test,2,prime_negative,186,9,133,1,433,84,75
71218,15:17:48,493020342,test,2,intention_check,187,9,133,0,2500,84,75
71218,15:17:48,493020342,test,2,prime_negative,188,1,69,0,703,84,74
71218,15:17:48,493020342,test,2,intention_check,189,1,69,1,550,84,74
71218,15:17:48,493020342,test,2,prime_negative,190,7,180,1,332,84,74
71218,15:17:48,493020342,test,2,intention_check,191,7,180,0,2500,84,74
71218,15:17:48,493020342,test,2,prime_positive,192,3,177,1,701,84,74
71218,15:17:48,493020342,test,2,intention_check,193,3,177,1,490,84,74
71218,15:17:48,493020342,test,2,prime_negative,194,4,23,1,339,84,75
71218,15:17:48,493020342,test,2,intention_check,195,4,23,0,2500,84,75
71218,15:17:48,493020342,test,2,prime_negative,196,2,41,0,664,84,73
71218,15:17:48,493020342,test,2,intention_check,197,2,41,1,596,84,73
71218,15:17:48,493020342,test,2,prime_negative,198,12,188,1,375,84,74
71218,15:17:48,493020342,test,2,intention_check,199,12,188,0,2500,84,74
71218,15:17:48,493020342,test,2,prime_negative,200,11,1,1,498,84,74
71218,15:17:48,493020342,test,2,intention_check,201,11,1,0,2500,84,74
71218,15:17:48,493020342,test,2,prime_negative,202,6,34,1,360,84,75
71218,15:17:48,493020342,test,2,intention_check,203,6,34,0,2500,84,75
71218,15:17:48,493020342,test,2,prime_positive,204,1,2,1,292,84,75
71218,15:17:48,493020342,test,2,intention_check,205,1,2,0,2500,84,75
71218,15:17:48,493020342,test,2,prime_positive,206,9,88,1,276,85,75
71218,15:17:48,493020342,test,2,intention_check,207,9,88,0,2500,85,75
71218,15:17:48,493020342,test,2,prime_positive,208,4,90,1,883,85,75
71218,15:17:48,493020342,test,2,intention_check,209,4,90,0,2500,85,75
71218,15:17:48,493020342,test,2,prime_positive,210,8,31,1,644,85,75
71218,15:17:48,493020342,test,2,intention_check,211,8,31,0,2500,85,75
71218,15:17:48,493020342,test,2,prime_positive,212,5,148,1,164,86,75
71218,15:17:48,493020342,test,2,intention_check,213,5,148,0,2500,86,75
71218,15:17:48,493020342,test,2,prime_negative,214,4,126,0,3747,86,73
71218,15:17:48,493020342,test,2,intention_check,215,4,126,0,2500,86,73
71218,15:17:48,493020342,test,2,prime_negative,216,1,7,0,499,86,72
71218,15:17:48,493020342,test,2,intention_check,217,1,7,1,808,86,72
71218,15:17:48,493020342,test,2,prime_positive,218,7,191,1,248,86,72
71218,15:17:48,493020342,test,2,intention_check,219,7,191,0,2500,86,72
71218,15:17:48,493020342,test,2,prime_positive,220,11,55,1,332,86,72
71218,15:17:48,493020342,test,2,intention_check,221,11,55,0,2500,86,72
71218,15:17:48,493020342,test,2,prime_positive,222,2,183,1,315,86,72
71218,15:17:48,493020342,test,2,intention_check,223,2,183,0,2500,86,72
71218,15:17:48,493020342,test,2,prime_positive,224,6,143,1,297,87,72
71218,15:17:48,493020342,test,2,intention_check,225,6,143,0,2500,87,72
71218,15:17:48,493020342,test,2,prime_positive,226,12,122,0,511,85,72
71218,15:17:48,493020342,test,2,intention_check,227,12,122,0,2500,85,72
71218,15:17:48,493020342,test,2,prime_negative,228,9,136,1,318,85,72
71218,15:17:48,493020342,test,2,intention_check,229,9,136,0,2500,85,72
71218,15:17:48,493020342,test,2,prime_positive,230,1,28,1,255,85,72
71218,15:17:48,493020342,test,2,intention_check,231,1,28,0,2500,85,72
71218,15:17:48,493020342,test,2,prime_positive,232,6,159,1,411,85,72
71218,15:17:48,493020342,test,2,intention_check,233,6,159,0,2500,85,72
71218,15:17:48,493020342,test,2,prime_positive,234,8,58,1,475,86,72
71218,15:17:48,493020342,test,2,intention_check,235,8,58,0,2500,86,72
71218,15:17:48,493020342,test,2,prime_positive,236,10,54,1,4025,86,72
71218,15:17:48,493020342,test,2,intention_check,237,10,54,0,2500,86,72
71218,15:17:48,493020342,test,2,prime_positive,238,7,22,1,320,86,72
71218,15:17:48,493020342,test,2,intention_check,239,7,22,0,2500,86,72
71218,15:17:48,493020342,test,2,prime_negative,240,10,117,1,525,86,73
71218,15:17:48,493020342,test,2,intention_check,241,10,117,0,2500,86,73
71218,15:22:45,883659666,practice,1,prime_positive_practice,5,0,0,0,4350,0,0
71218,15:22:45,883659666,practice,1,intention_check_practice,6,0,0,0,2500,0,0
71218,15:22:45,883659666,practice,1,prime_negative_practice,7,0,0,0,2645,0,0
71218,15:22:45,883659666,practice,1,intention_check_practice,8,0,0,0,2500,0,0
71218,15:22:45,883659666,practice,1,prime_negative_practice,9,0,0,0,2544,0,0
71218,15:22:45,883659666,practice,1,intention_check_practice,10,0,0,1,1001,0,0
71218,15:22:45,883659666,practice,1,prime_negative_practice,11,0,0,1,1096,0,0
71218,15:22:45,883659666,practice,1,intention_check_practice,12,0,0,0,2500,0,0
71218,15:22:45,883659666,practice,1,prime_negative_practice,13,0,0,1,857,0,0
71218,15:22:45,883659666,practice,1,intention_check_practice,14,0,0,0,2500,0,0
71218,15:22:45,883659666,practice,1,prime_negative_practice,15,0,0,0,2082,0,0
71218,15:22:45,883659666,practice,1,intention_check_practice,16,0,0,1,725,0,0
71218,15:22:45,883659666,practice,1,prime_positive_practice,17,0,0,1,1015,0,0
71218,15:22:45,883659666,practice,1,intention_check_practice,18,0,0,1,655,0,0
71218,15:22:45,883659666,practice,1,prime_positive_practice,19,0,0,0,1777,0,0
71218,15:22:45,883659666,practice,1,intention_check_practice,20,0,0,0,2500,0,0
71218,15:22:45,883659666,practice,1,prime_positive_practice,21,0,0,0,2290,0,0
71218,15:22:45,883659666,practice,1,intention_check_practice,22,0,0,1,1049,0,0
71218,15:22:45,883659666,practice,1,prime_positive_practice,23,0,0,1,721,0,0
71218,15:22:45,883659666,practice,1,intention_check_practice,24,0,0,1,848,0,0
71218,15:22:45,883659666,test,2,prime_negative,2,7,47,1,664,0,100
71218,15:22:45,883659666,test,2,intention_check,3,7,47,1,679,0,100
71218,15:22:45,883659666,test,2,prime_negative,4,10,107,1,590,0,100
71218,15:22:45,883659666,test,2,intention_check,5,10,107,0,2500,0,100
71218,15:22:45,883659666,test,2,prime_positive,6,12,91,0,602,0,100
71218,15:22:45,883659666,test,2,intention_check,7,12,91,0,2500,0,100
71218,15:22:45,883659666,test,2,prime_positive,8,7,20,1,394,50,100
71218,15:22:45,883659666,test,2,intention_check,9,7,20,1,772,50,100
71218,15:22:45,883659666,test,2,prime_negative,10,1,177,0,859,50,66
71218,15:22:45,883659666,test,2,intention_check,11,1,177,1,310,50,66
71218,15:22:45,883659666,test,2,prime_positive,12,3,157,1,516,66,66
71218,15:22:45,883659666,test,2,intention_check,13,3,157,1,631,66,66
71218,15:22:45,883659666,test,2,prime_negative,14,3,102,0,636,66,50
71218,15:22:45,883659666,test,2,intention_check,15,3,102,1,451,66,50
71218,15:22:45,883659666,test,2,prime_positive,16,6,57,1,619,75,50
71218,15:22:45,883659666,test,2,intention_check,17,6,57,0,2500,75,50
71218,15:22:45,883659666,test,2,prime_negative,18,6,5,1,652,75,60
71218,15:22:45,883659666,test,2,intention_check,19,6,5,0,2500,75,60
71218,15:22:45,883659666,test,2,prime_negative,20,4,78,1,765,75,66
71218,15:22:45,883659666,test,2,intention_check,21,4,78,0,2500,75,66
71218,15:22:45,883659666,test,2,prime_positive,22,2,31,1,472,80,66
71218,15:22:45,883659666,test,2,intention_check,23,2,31,1,473,80,66
71218,15:22:45,883659666,test,2,prime_positive,24,4,14,1,564,83,66
71218,15:22:45,883659666,test,2,intention_check,25,4,14,0,2500,83,66
71218,15:22:45,883659666,test,2,prime_positive,26,8,168,1,725,85,66
71218,15:22:45,883659666,test,2,intention_check,27,8,168,1,1394,85,66
71218,15:22:45,883659666,test,2,prime_negative,28,12,80,0,555,85,57
71218,15:22:45,883659666,test,2,intention_check,29,12,80,0,2500,85,57
71218,15:22:45,883659666,test,2,prime_negative,30,5,101,1,466,85,62
71218,15:22:45,883659666,test,2,intention_check,31,5,101,0,2500,85,62
71218,15:22:45,883659666,test,2,prime_negative,32,7,171,1,583,85,66
71218,15:22:45,883659666,test,2,intention_check,33,7,171,0,2500,85,66
71218,15:22:45,883659666,test,2,prime_negative,34,4,60,1,412,85,70
71218,15:22:45,883659666,test,2,intention_check,35,4,60,0,2500,85,70
71218,15:22:45,883659666,test,2,prime_negative,36,1,1,0,746,85,63
71218,15:22:45,883659666,test,2,intention_check,37,1,1,1,429,85,63
71218,15:22:45,883659666,test,2,prime_negative,38,12,95,0,882,85,58
71218,15:22:45,883659666,test,2,intention_check,39,12,95,0,2500,85,58
71218,15:22:45,883659666,test,2,prime_positive,40,8,181,1,615,87,58
71218,15:22:45,883659666,test,2,intention_check,41,8,181,0,2500,87,58
71218,15:22:45,883659666,test,2,prime_negative,42,3,114,1,468,87,61
71218,15:22:45,883659666,test,2,intention_check,43,3,114,0,2500,87,61
71218,15:22:45,883659666,test,2,prime_negative,44,9,154,0,487,87,57
71218,15:22:45,883659666,test,2,intention_check,45,9,154,0,2500,87,57
71218,15:22:45,883659666,test,2,prime_positive,46,6,11,1,448,88,57
71218,15:22:45,883659666,test,2,intention_check,47,6,11,1,834,88,57
71218,15:22:45,883659666,test,2,prime_positive,48,3,145,1,368,90,57
71218,15:22:45,883659666,test,2,intention_check,49,3,145,1,290,90,57
71218,15:22:45,883659666,test,2,prime_positive,50,11,13,1,598,90,57
71218,15:22:45,883659666,test,2,intention_check,51,11,13,0,2500,90,57
71218,15:22:45,883659666,test,2,prime_negative,52,8,93,0,671,90,53
71218,15:22:45,883659666,test,2,intention_check,53,8,93,1,326,90,53
71218,15:22:45,883659666,test,2,prime_negative,54,6,26,1,535,90,56
71218,15:22:45,883659666,test,2,intention_check,55,6,26,0,2500,90,56
71218,15:22:45,883659666,test,2,prime_negative,56,2,90,0,516,90,52
71218,15:22:45,883659666,test,2,intention_check,57,2,90,1,337,90,52
71218,15:22:45,883659666,test,2,prime_positive,58,7,185,1,375,91,52
71218,15:22:45,883659666,test,2,intention_check,59,7,185,1,310,91,52
71218,15:22:45,883659666,test,2,prime_positive,60,2,88,1,381,92,52
71218,15:22:45,883659666,test,2,intention_check,61,2,88,1,279,92,52
71218,15:22:45,883659666,test,2,prime_negative,62,10,133,0,464,92,50
71218,15:22:45,883659666,test,2,intention_check,63,10,133,1,584,92,50
71218,15:22:45,883659666,test,2,prime_negative,64,11,96,1,508,92,52
71218,15:22:45,883659666,test,2,intention_check,65,11,96,0,2500,92,52
71218,15:22:45,883659666,test,2,prime_negative,66,7,160,0,665,92,50
71218,15:22:45,883659666,test,2,intention_check,67,7,160,0,2500,92,50
71218,15:22:45,883659666,test,2,prime_positive,68,10,108,0,517,85,50
71218,15:22:45,883659666,test,2,intention_check,69,10,108,0,2500,85,50
71218,15:22:45,883659666,test,2,prime_negative,70,9,42,1,706,85,52
71218,15:22:45,883659666,test,2,intention_check,71,9,42,0,2500,85,52
71218,15:22:45,883659666,test,2,prime_positive,72,1,184,1,369,86,52
71218,15:22:45,883659666,test,2,intention_check,73,1,184,0,2500,86,52
71218,15:22:45,883659666,test,2,prime_positive,74,9,197,1,676,87,52
71218,15:22:45,883659666,test,2,intention_check,75,9,197,0,2500,87,52
71218,15:22:45,883659666,test,2,prime_negative,76,12,187,0,429,87,50
71218,15:22:45,883659666,test,2,intention_check,77,12,187,1,1395,87,50
71218,15:22:45,883659666,test,2,prime_positive,78,4,6,0,654,82,50
71218,15:22:45,883659666,test,2,intention_check,79,4,6,0,2500,82,50
71218,15:22:45,883659666,test,2,prime_negative,80,4,98,1,379,82,52
71218,15:22:45,883659666,test,2,intention_check,81,4,98,0,2500,82,52
71218,15:22:45,883659666,test,2,prime_positive,82,5,125,0,433,77,52
71218,15:22:45,883659666,test,2,intention_check,83,5,125,0,2500,77,52
71218,15:22:45,883659666,test,2,prime_positive,84,12,40,1,502,78,52
71218,15:22:45,883659666,test,2,intention_check,85,12,40,1,414,78,52
71218,15:22:45,883659666,test,2,prime_negative,86,10,124,0,461,78,50
71218,15:22:45,883659666,test,2,intention_check,87,10,124,1,279,78,50
71218,15:22:45,883659666,test,2,prime_negative,88,2,34,0,399,78,48
71218,15:22:45,883659666,test,2,intention_check,89,2,34,1,308,78,48
71218,15:22:45,883659666,test,2,prime_positive,90,5,23,1,416,80,48
71218,15:22:45,883659666,test,2,intention_check,91,5,23,1,925,80,48
71218,15:22:45,883659666,test,2,prime_positive,92,11,156,0,564,76,48
71218,15:22:45,883659666,test,2,intention_check,93,11,156,0,2500,76,48
71218,15:22:45,883659666,test,2,prime_positive,94,4,178,1,474,77,48
71218,15:22:45,883659666,test,2,intention_check,95,4,178,0,2500,77,48
71218,15:22:45,883659666,test,2,prime_positive,96,10,55,1,408,78,48
71218,15:22:45,883659666,test,2,intention_check,97,10,55,1,252,78,48
71218,15:22:45,883659666,test,2,prime_negative,98,5,193,1,534,78,50
71218,15:22:45,883659666,test,2,intention_check,99,5,193,0,2500,78,50
71218,15:22:45,883659666,test,2,prime_negative,100,3,66,0,520,78,48
71218,15:22:45,883659666,test,2,intention_check,101,3,66,1,280,78,48
71218,15:22:45,883659666,test,2,prime_negative,102,1,118,0,502,78,46
71218,15:22:45,883659666,test,2,intention_check,103,1,118,1,242,78,46
71218,15:22:45,883659666,test,2,prime_positive,104,2,121,1,394,79,46
71218,15:22:45,883659666,test,2,intention_check,105,2,121,1,223,79,46
71218,15:22:45,883659666,test,2,prime_positive,106,6,24,1,547,80,46
71218,15:22:45,883659666,test,2,intention_check,107,6,24,1,926,80,46
71218,15:22:45,883659666,test,2,prime_positive,108,3,192,1,398,80,46
71218,15:22:45,883659666,test,2,intention_check,109,3,192,1,174,80,46
71218,15:22:45,883659666,test,2,prime_negative,110,6,146,1,522,80,48
71218,15:22:45,883659666,test,2,intention_check,111,6,146,0,2500,80,48
71218,15:22:45,883659666,test,2,prime_positive,112,9,135,1,637,81,48
71218,15:22:45,883659666,test,2,intention_check,113,9,135,0,2500,81,48
71218,15:22:45,883659666,test,2,prime_positive,114,12,36,1,453,82,48
71218,15:22:45,883659666,test,2,intention_check,115,12,36,1,309,82,48
71218,15:22:45,883659666,test,2,prime_positive,116,7,94,1,363,82,48
71218,15:22:45,883659666,test,2,intention_check,117,7,94,1,257,82,48
71218,15:22:45,883659666,test,2,prime_negative,118,11,170,1,1951,82,50
71218,15:22:45,883659666,test,2,intention_check,119,11,170,0,2500,82,50
71218,15:22:45,883659666,test,2,prime_positive,120,1,54,1,580,83,50
71218,15:22:45,883659666,test,2,intention_check,121,1,54,1,617,83,50
71218,15:22:45,883659666,test,2,prime_positive,122,8,110,1,451,83,50
71218,15:22:45,883659666,test,2,intention_check,123,8,110,1,275,83,50
71218,15:22:45,883659666,test,2,prime_negative,124,8,138,0,476,83,48
71218,15:22:45,883659666,test,2,intention_check,125,8,138,1,274,83,48
71218,15:22:45,883659666,test,2,prime_positive,126,3,163,1,316,84,48
71218,15:22:45,883659666,test,2,intention_check,127,3,163,1,190,84,48
71218,15:22:45,883659666,test,2,prime_negative,128,9,61,0,450,84,46
71218,15:22:45,883659666,test,2,intention_check,129,9,61,1,610,84,46
71218,15:22:45,883659666,test,2,prime_negative,130,8,128,0,509,84,45
71218,15:22:45,883659666,test,2,intention_check,131,8,128,1,498,84,45
71218,15:22:45,883659666,test,2,prime_positive,132,7,53,1,463,84,45
71218,15:22:45,883659666,test,2,intention_check,133,7,53,1,621,84,45
71218,15:22:45,883659666,test,2,prime_negative,134,6,9,1,562,84,47
71218,15:22:45,883659666,test,2,intention_check,135,6,9,0,2500,84,47
71218,15:22:45,883659666,test,2,prime_positive,136,6,155,0,811,82,47
71218,15:22:45,883659666,test,2,intention_check,137,6,155,0,2500,82,47
71218,15:22:45,883659666,test,2,prime_negative,138,2,112,0,562,82,45
71218,15:22:45,883659666,test,2,intention_check,139,2,112,1,472,82,45
71218,15:22:45,883659666,test,2,prime_positive,140,5,18,1,527,82,45
71218,15:22:45,883659666,test,2,intention_check,141,5,18,1,259,82,45
71218,15:22:45,883659666,test,2,prime_positive,142,10,71,0,510,80,45
71218,15:22:45,883659666,test,2,intention_check,143,10,71,1,299,80,45
71218,15:22:45,883659666,test,2,prime_negative,144,5,56,1,310,80,47
71218,15:22:45,883659666,test,2,intention_check,145,5,56,1,396,80,47
71218,15:22:45,883659666,test,2,prime_negative,146,4,131,1,128,80,48
71218,15:22:45,883659666,test,2,intention_check,147,4,131,0,2500,80,48
71218,15:22:45,883659666,test,2,prime_positive,148,8,43,0,364,78,48
71218,15:22:45,883659666,test,2,intention_check,149,8,43,0,2500,78,48
71218,15:22:45,883659666,test,2,prime_negative,150,3,70,0,405,78,47
71218,15:22:45,883659666,test,2,intention_check,151,3,70,1,251,78,47
71218,15:22:45,883659666,test,2,prime_negative,152,10,167,1,745,78,48
71218,15:22:45,883659666,test,2,intention_check,153,10,167,0,2500,78,48
71218,15:22:45,883659666,test,2,prime_positive,154,12,130,0,930,76,48
71218,15:22:45,883659666,test,2,intention_check,155,12,130,0,2500,76,48
71218,15:22:45,883659666,test,2,prime_positive,156,9,21,1,621,76,48
71218,15:22:45,883659666,test,2,intention_check,157,9,21,0,2500,76,48
71218,15:22:45,883659666,test,2,prime_negative,158,11,85,0,424,76,47
71218,15:22:45,883659666,test,2,intention_check,159,11,85,0,2500,76,47
71218,15:22:45,883659666,test,2,prime_negative,160,1,148,1,330,76,48
71218,15:22:45,883659666,test,2,intention_check,161,1,148,0,2500,76,48
71218,15:22:45,883659666,test,2,prime_negative,162,12,162,1,751,76,50
71218,15:22:45,883659666,test,2,intention_check,163,12,162,0,2500,76,50
71218,15:22:45,883659666,test,2,prime_positive,164,2,142,0,365,75,50
71218,15:22:45,883659666,test,2,intention_check,165,2,142,0,2500,75,50
71218,15:22:45,883659666,test,2,prime_negative,166,7,169,1,615,75,51
71218,15:22:45,883659666,test,2,intention_check,167,7,169,0,2500,75,51
71218,15:22:45,883659666,test,2,prime_negative,168,4,106,1,737,75,52
71218,15:22:45,883659666,test,2,intention_check,169,4,106,0,2500,75,52
71218,15:22:45,883659666,test,2,prime_positive,170,4,117,1,1757,75,52
71218,15:22:45,883659666,test,2,intention_check,171,4,117,0,2500,75,52
71218,15:22:45,883659666,test,2,prime_positive,172,11,4,1,527,76,52
71218,15:22:45,883659666,test,2,intention_check,173,11,4,0,2500,76,52
71218,15:22:45,883659666,test,2,prime_positive,174,1,75,1,703,76,52
71218,15:22:45,883659666,test,2,intention_check,175,1,75,1,1157,76,52
71218,15:22:45,883659666,test,2,prime_positive,176,6,152,0,469,75,52
71218,15:22:45,883659666,test,2,intention_check,177,6,152,0,2500,75,52
71218,15:22:45,883659666,test,2,prime_positive,178,12,92,0,640,73,52
71218,15:22:45,883659666,test,2,intention_check,179,12,92,0,2500,73,52
71218,15:22:45,883659666,test,2,prime_negative,180,6,188,1,491,73,53
71218,15:22:45,883659666,test,2,intention_check,181,6,188,0,2500,73,53
71218,15:22:45,883659666,test,2,prime_negative,182,9,33,1,739,73,54
71218,15:22:45,883659666,test,2,intention_check,183,9,33,0,2500,73,54
71218,15:22:45,883659666,test,2,prime_negative,184,10,164,1,1062,73,55
71218,15:22:45,883659666,test,2,intention_check,185,10,164,0,2500,73,55
71218,15:22:45,883659666,test,2,prime_negative,186,1,79,0,490,73,54
71218,15:22:45,883659666,test,2,intention_check,187,1,79,1,332,73,54
71218,15:22:45,883659666,test,2,prime_negative,188,3,99,0,404,73,53
71218,15:22:45,883659666,test,2,intention_check,189,3,99,1,378,73,53
71218,15:22:45,883659666,test,2,prime_positive,190,3,65,1,775,73,53
71218,15:22:45,883659666,test,2,intention_check,191,3,65,0,2500,73,53
71218,15:22:45,883659666,test,2,prime_positive,192,1,173,0,584,72,53
71218,15:22:45,883659666,test,2,intention_check,193,1,173,0,2500,72,53
71218,15:22:45,883659666,test,2,prime_negative,194,11,37,1,646,72,54
71218,15:22:45,883659666,test,2,intention_check,195,11,37,0,2500,72,54
71218,15:22:45,883659666,test,2,prime_positive,196,9,116,0,571,70,54
71218,15:22:45,883659666,test,2,intention_check,197,9,116,0,2500,70,54
71218,15:22:45,883659666,test,2,prime_negative,198,5,7,0,487,70,52
71218,15:22:45,883659666,test,2,intention_check,199,5,7,0,2500,70,52
71218,15:22:45,883659666,test,2,prime_negative,200,7,22,1,2324,70,53
71218,15:22:45,883659666,test,2,intention_check,201,7,22,0,2500,70,53
71218,15:22:45,883659666,test,2,prime_positive,202,8,100,0,563,69,53
71218,15:22:45,883659666,test,2,intention_check,203,8,100,0,2500,69,53
71218,15:22:45,883659666,test,2,prime_positive,204,10,52,1,511,70,53
71218,15:22:45,883659666,test,2,intention_check,205,10,52,0,2500,70,53
71218,15:22:45,883659666,test,2,prime_positive,206,5,103,0,607,68,53
71218,15:22:45,883659666,test,2,intention_check,207,5,103,0,2500,68,53
71218,15:22:45,883659666,test,2,prime_negative,208,8,144,0,594,68,52
71218,15:22:45,883659666,test,2,intention_check,209,8,144,0,2500,68,52
71218,15:22:45,883659666,test,2,prime_negative,210,2,74,0,443,68,51
71218,15:22:45,883659666,test,2,intention_check,211,2,74,1,251,68,51
71218,15:22:45,883659666,test,2,prime_negative,212,12,198,0,517,68,50
71218,15:22:45,883659666,test,2,intention_check,213,12,198,0,2500,68,50
71218,15:22:45,883659666,test,2,prime_negative,214,2,39,0,597,68,50
71218,15:22:45,883659666,test,2,intention_check,215,2,39,1,246,68,50
71218,15:22:45,883659666,test,2,prime_positive,216,4,143,1,293,69,50
71218,15:22:45,883659666,test,2,intention_check,217,4,143,0,2500,69,50
71218,15:22:45,883659666,test,2,prime_positive,218,7,69,1,458,69,50
71218,15:22:45,883659666,test,2,intention_check,219,7,69,1,297,69,50
71218,15:22:45,883659666,test,2,prime_negative,220,10,166,0,474,69,49
71218,15:22:45,883659666,test,2,intention_check,221,10,166,0,2500,69,49
71218,15:22:45,883659666,test,2,prime_positive,222,11,81,0,517,68,49
71218,15:22:45,883659666,test,2,intention_check,223,11,81,0,2500,68,49
71218,15:22:45,883659666,test,2,prime_positive,224,2,49,1,633,69,49
71218,15:22:45,883659666,test,2,intention_check,225,2,49,0,2500,69,49
71218,15:22:45,883659666,test,2,prime_negative,226,5,72,0,498,69,48
71218,15:22:45,883659666,test,2,intention_check,227,5,72,0,2500,69,48
71218,15:22:45,883659666,test,2,prime_positive,228,10,136,0,631,67,48
71218,15:22:45,883659666,test,2,intention_check,229,10,136,0,2500,67,48
71218,15:22:45,883659666,test,2,prime_positive,230,2,104,1,611,68,48
71218,15:22:45,883659666,test,2,intention_check,231,2,104,1,635,68,48
71218,15:22:45,883659666,test,2,prime_negative,232,12,83,0,530,68,47
71218,15:22:45,883659666,test,2,intention_check,233,12,83,0,2500,68,47
71218,15:22:45,883659666,test,2,prime_negative,234,6,89,0,826,68,46
71218,15:22:45,883659666,test,2,intention_check,235,6,89,0,2500,68,46
71218,15:22:45,883659666,test,2,prime_positive,236,9,30,1,494,68,46
71218,15:22:45,883659666,test,2,intention_check,237,9,30,0,2500,68,46
71218,15:22:45,883659666,test,2,prime_positive,238,6,63,1,1182,69,46
71218,15:22:45,883659666,test,2,intention_check,239,6,63,0,2500,69,46
71218,15:22:45,883659666,test,2,prime_positive,240,1,189,1,436,70,46
71218,15:22:45,883659666,test,2,intention_check,241,1,189,0,2500,70,46
71218,15:23:27,46903798,practice,1,prime_positive_practice,5,0,0,0,3425,0,0
71218,15:23:27,46903798,practice,1,intention_check_practice,6,0,0,0,2500,0,0
71218,15:23:27,46903798,practice,1,prime_positive_practice,7,0,0,1,2915,0,0
71218,15:23:27,46903798,practice,1,intention_check_practice,8,0,0,0,2500,0,0
71218,15:23:27,46903798,practice,1,prime_negative_practice,9,0,0,0,1080,0,0
71218,15:23:27,46903798,practice,1,intention_check_practice,10,0,0,0,2500,0,0
71218,15:23:27,46903798,practice,1,prime_negative_practice,11,0,0,0,1255,0,0
71218,15:23:27,46903798,practice,1,intention_check_practice,12,0,0,0,2500,0,0
71218,15:23:27,46903798,practice,1,prime_positive_practice,13,0,0,1,1594,0,0
71218,15:23:27,46903798,practice,1,intention_check_practice,14,0,0,0,2500,0,0
71218,15:23:27,46903798,practice,1,prime_negative_practice,15,0,0,0,1737,0,0
71218,15:23:27,46903798,practice,1,intention_check_practice,16,0,0,0,2500,0,0
71218,15:23:27,46903798,practice,1,prime_negative_practice,17,0,0,0,922,0,0
71218,15:23:27,46903798,practice,1,intention_check_practice,18,0,0,0,2500,0,0
71218,15:23:27,46903798,practice,1,prime_positive_practice,19,0,0,1,745,0,0
71218,15:23:27,46903798,practice,1,intention_check_practice,20,0,0,0,2500,0,0
71218,15:23:27,46903798,practice,1,prime_positive_practice,21,0,0,1,758,0,0
71218,15:23:27,46903798,practice,1,intention_check_practice,22,0,0,0,2500,0,0
71218,15:23:27,46903798,practice,1,prime_negative_practice,23,0,0,0,1178,0,0
71218,15:23:27,46903798,practice,1,intention_check_practice,24,0,0,0,2500,0,0
71218,15:23:27,46903798,test,2,prime_negative,2,2,150,1,3261,0,100
71218,15:23:27,46903798,test,2,intention_check,3,2,150,0,2500,0,100
71218,15:23:27,46903798,test,2,prime_positive,4,3,14,1,975,100,100
71218,15:23:27,46903798,test,2,intention_check,5,3,14,0,2500,100,100
71218,15:23:27,46903798,test,2,prime_positive,6,1,133,1,686,100,100
71218,15:23:27,46903798,test,2,intention_check,7,1,133,1,1394,100,100
71218,15:23:27,46903798,test,2,prime_positive,8,10,100,1,940,100,100
71218,15:23:27,46903798,test,2,intention_check,9,10,100,0,2500,100,100
71218,15:23:27,46903798,test,2,prime_positive,10,12,161,0,936,75,100
71218,15:23:27,46903798,test,2,intention_check,11,12,161,0,2500,75,100
71218,15:23:27,46903798,test,2,prime_negative,12,5,189,0,867,75,50
71218,15:23:27,46903798,test,2,intention_check,13,5,189,0,2500,75,50
71218,15:23:27,46903798,test,2,prime_negative,14,1,20,0,816,75,33
71218,15:23:27,46903798,test,2,intention_check,15,1,20,0,2500,75,33
71218,15:23:27,46903798,test,2,prime_positive,16,8,85,0,783,60,33
71218,15:23:27,46903798,test,2,intention_check,17,8,85,0,2500,60,33
71218,15:23:27,46903798,test,2,prime_negative,18,11,8,1,464,60,50
71218,15:23:27,46903798,test,2,intention_check,19,11,8,0,2500,60,50
71218,15:23:27,46903798,test,2,prime_positive,20,6,30,1,655,66,50
71218,15:23:27,46903798,test,2,intention_check,21,6,30,0,2500,66,50
71218,15:23:27,46903798,test,2,prime_negative,22,8,111,0,592,66,40
71218,15:23:27,46903798,test,2,intention_check,23,8,111,0,2500,66,40
71218,15:23:27,46903798,test,2,prime_positive,24,9,90,1,813,71,40
71218,15:23:27,46903798,test,2,intention_check,25,9,90,0,2500,71,40
71218,15:23:27,46903798,test,2,prime_negative,26,9,35,1,1596,71,50
71218,15:23:27,46903798,test,2,intention_check,27,9,35,0,2500,71,50
71218,15:23:27,46903798,test,2,prime_positive,28,12,41,1,2695,75,50
71218,15:23:27,46903798,test,2,intention_check,29,12,41,1,2481,75,50
71218,15:23:27,46903798,test,2,prime_negative,30,7,134,0,2334,75,42
71218,15:23:27,46903798,test,2,intention_check,31,7,134,0,2500,75,42
71218,15:23:27,46903798,test,2,prime_negative,32,1,22,0,622,75,37
71218,15:23:27,46903798,test,2,intention_check,33,1,22,0,2500,75,37
71218,15:23:27,46903798,test,2,prime_positive,34,9,116,1,607,77,37
71218,15:23:27,46903798,test,2,intention_check,35,9,116,0,2500,77,37
71218,15:23:27,46903798,test,2,prime_negative,36,6,196,0,1490,77,33
71218,15:23:27,46903798,test,2,intention_check,37,6,196,0,2500,77,33
71218,15:23:27,46903798,test,2,prime_negative,38,12,141,0,2995,77,30
71218,15:23:27,46903798,test,2,intention_check,39,12,141,0,2500,77,30
71218,15:23:27,46903798,test,2,prime_positive,40,5,124,1,553,80,30
71218,15:23:27,46903798,test,2,intention_check,41,5,124,0,2500,80,30
71218,15:23:27,46903798,test,2,prime_negative,42,3,7,0,661,80,27
71218,15:23:27,46903798,test,2,intention_check,43,3,7,0,2500,80,27
71218,15:23:27,46903798,test,2,prime_negative,44,8,142,0,360,80,25
71218,15:23:27,46903798,test,2,intention_check,45,8,142,0,2500,80,25
71218,15:23:27,46903798,test,2,prime_positive,46,1,127,1,422,81,25
71218,15:23:27,46903798,test,2,intention_check,47,1,127,0,2500,81,25
71218,15:23:27,46903798,test,2,prime_positive,48,6,162,1,818,83,25
71218,15:23:27,46903798,test,2,intention_check,49,6,162,0,2500,83,25
71218,15:23:27,46903798,test,2,prime_negative,50,9,105,0,905,83,23
71218,15:23:27,46903798,test,2,intention_check,51,9,105,0,2500,83,23
71218,15:23:27,46903798,test,2,prime_positive,52,11,151,1,542,84,23
71218,15:23:27,46903798,test,2,intention_check,53,11,151,0,2500,84,23
71218,15:23:27,46903798,test,2,prime_negative,54,7,92,0,1127,84,21
71218,15:23:27,46903798,test,2,intention_check,55,7,92,0,2500,84,21
71218,15:23:27,46903798,test,2,prime_positive,56,8,49,1,1364,85,21
71218,15:23:27,46903798,test,2,intention_check,57,8,49,0,2500,85,21
71218,15:23:27,46903798,test,2,prime_positive,58,7,132,1,502,86,21
71218,15:23:27,46903798,test,2,intention_check,59,7,132,0,2500,86,21
71218,15:23:27,46903798,test,2,prime_negative,60,5,88,0,609,86,20
71218,15:23:27,46903798,test,2,intention_check,61,5,88,0,2500,86,20
71218,15:23:27,46903798,test,2,prime_positive,62,10,167,1,1366,87,20
71218,15:23:27,46903798,test,2,intention_check,63,10,167,0,2500,87,20
71218,15:23:27,46903798,test,2,prime_positive,64,3,64,1,432,88,20
71218,15:23:27,46903798,test,2,intention_check,65,3,64,0,2500,88,20
71218,15:23:27,46903798,test,2,prime_positive,66,4,63,1,1419,88,20
71218,15:23:27,46903798,test,2,intention_check,67,4,63,0,2500,88,20
71218,15:23:27,46903798,test,2,prime_positive,68,2,119,1,402,89,20
71218,15:23:27,46903798,test,2,intention_check,69,2,119,0,2500,89,20
71218,15:23:27,46903798,test,2,prime_positive,70,12,74,0,7699,85,20
71218,15:23:27,46903798,test,2,intention_check,71,12,74,0,2500,85,20
71218,15:23:27,46903798,test,2,prime_positive,72,2,45,1,399,85,20
71218,15:23:27,46903798,test,2,intention_check,73,2,45,0,2500,85,20
71218,15:23:27,46903798,test,2,prime_positive,74,7,72,1,324,86,20
71218,15:23:27,46903798,test,2,intention_check,75,7,72,0,2500,86,20
71218,15:23:27,46903798,test,2,prime_positive,76,10,42,1,496,86,20
71218,15:23:27,46903798,test,2,intention_check,77,10,42,0,2500,86,20
71218,15:23:27,46903798,test,2,prime_negative,78,10,71,0,727,86,18
71218,15:23:27,46903798,test,2,intention_check,79,10,71,0,2500,86,18
71218,15:23:27,46903798,test,2,prime_negative,80,2,98,0,608,86,17
71218,15:23:27,46903798,test,2,intention_check,81,2,98,0,2500,86,17
71218,15:23:27,46903798,test,2,prime_positive,82,4,135,1,387,87,17
71218,15:23:27,46903798,test,2,intention_check,83,4,135,0,2500,87,17
71218,15:23:27,46903798,test,2,prime_positive,84,9,13,1,531,88,17
71218,15:23:27,46903798,test,2,intention_check,85,9,13,0,2500,88,17
71218,15:23:27,46903798,test,2,prime_negative,86,4,128,0,1549,88,16
71218,15:23:27,46903798,test,2,intention_check,87,4,128,0,2500,88,16
71218,15:23:27,46903798,test,2,prime_positive,88,6,58,1,404,88,16
71218,15:23:27,46903798,test,2,intention_check,89,6,58,0,2500,88,16
71218,15:23:27,46903798,test,2,prime_negative,90,11,59,0,1133,88,15
71218,15:23:27,46903798,test,2,intention_check,91,11,59,0,2500,88,15
71218,15:23:27,46903798,test,2,prime_negative,92,6,131,0,488,88,15
71218,15:23:27,46903798,test,2,intention_check,93,6,131,0,2500,88,15
71218,15:23:27,46903798,test,2,prime_negative,94,2,159,0,514,88,14
71218,15:23:27,46903798,test,2,intention_check,95,2,159,0,2500,88,14
71218,15:23:27,46903798,test,2,prime_negative,96,7,70,0,420,88,13
71218,15:23:27,46903798,test,2,intention_check,97,7,70,0,2500,88,13
71218,15:23:27,46903798,test,2,prime_negative,98,4,115,0,516,88,13
71218,15:23:27,46903798,test,2,intention_check,99,4,115,0,2500,88,13
71218,15:23:27,46903798,test,2,prime_negative,100,1,33,0,386,88,12
71218,15:23:27,46903798,test,2,intention_check,101,1,33,0,2500,88,12
71218,15:23:27,46903798,test,2,prime_positive,102,1,80,1,420,88,12
71218,15:23:27,46903798,test,2,intention_check,103,1,80,0,2500,88,12
71218,15:23:27,46903798,test,2,prime_negative,104,11,112,0,1221,88,12
71218,15:23:27,46903798,test,2,intention_check,105,11,112,0,2500,88,12
71218,15:23:27,46903798,test,2,prime_negative,106,3,178,0,537,88,11
71218,15:23:27,46903798,test,2,intention_check,107,3,178,0,2500,88,11
71218,15:23:27,46903798,test,2,prime_negative,108,9,186,0,540,88,11
71218,15:23:27,46903798,test,2,intention_check,109,9,186,0,2500,88,11
71218,15:23:27,46903798,test,2,prime_positive,110,5,118,1,1563,89,11
71218,15:23:27,46903798,test,2,intention_check,111,5,118,0,2500,89,11
71218,15:23:27,46903798,test,2,prime_negative,112,12,37,0,1296,89,10
71218,15:23:27,46903798,test,2,intention_check,113,12,37,0,2500,89,10
71218,15:23:27,46903798,test,2,prime_negative,114,5,183,0,492,89,10
71218,15:23:27,46903798,test,2,intention_check,115,5,183,0,2500,89,10
71218,15:23:27,46903798,test,2,prime_negative,116,10,180,0,438,89,10
71218,15:23:27,46903798,test,2,intention_check,117,10,180,0,2500,89,10
71218,15:23:27,46903798,test,2,prime_negative,118,8,156,0,353,89,9
71218,15:23:27,46903798,test,2,intention_check,119,8,156,0,2500,89,9
71218,15:23:27,46903798,test,2,prime_positive,120,11,200,1,2082,89,9
71218,15:23:27,46903798,test,2,intention_check,121,11,200,0,2500,89,9
71218,15:23:27,46903798,test,2,prime_positive,122,8,61,0,588,86,9
71218,15:23:27,46903798,test,2,intention_check,123,8,61,0,2500,86,9
71218,15:23:27,46903798,test,2,prime_positive,124,3,4,1,368,87,9
71218,15:23:27,46903798,test,2,intention_check,125,3,4,0,2500,87,9
71218,15:23:27,46903798,test,2,prime_negative,126,11,113,0,616,87,9
71218,15:23:27,46903798,test,2,intention_check,127,11,113,0,2500,87,9
71218,15:23:27,46903798,test,2,prime_positive,128,1,34,1,309,87,9
71218,15:23:27,46903798,test,2,intention_check,129,1,34,0,2500,87,9
71218,15:23:27,46903798,test,2,prime_negative,130,1,166,0,364,87,9
71218,15:23:27,46903798,test,2,intention_check,131,1,166,0,2500,87,9
71218,15:23:27,46903798,test,2,prime_negative,132,7,53,0,427,87,8
71218,15:23:27,46903798,test,2,intention_check,133,7,53,0,2500,87,8
71218,15:23:27,46903798,test,2,prime_negative,134,9,106,1,1568,87,11
71218,15:23:27,46903798,test,2,intention_check,135,9,106,0,2500,87,11
71218,15:23:27,46903798,test,2,prime_negative,136,5,102,0,373,87,11
71218,15:23:27,46903798,test,2,intention_check,137,5,102,0,2500,87,11
71218,15:23:27,46903798,test,2,prime_negative,138,6,176,0,437,87,10
71218,15:23:27,46903798,test,2,intention_check,139,6,176,0,2500,87,10
71218,15:23:27,46903798,test,2,prime_positive,140,11,187,1,919,87,10
71218,15:23:27,46903798,test,2,intention_check,141,11,187,0,2500,87,10
71218,15:23:27,46903798,test,2,prime_negative,142,4,153,0,421,87,10
71218,15:23:27,46903798,test,2,intention_check,143,4,153,0,2500,87,10
71218,15:23:27,46903798,test,2,prime_negative,144,12,173,0,481,87,10
71218,15:23:27,46903798,test,2,intention_check,145,12,173,0,2500,87,10
71218,15:23:27,46903798,test,2,prime_positive,146,9,50,1,491,88,10
71218,15:23:27,46903798,test,2,intention_check,147,9,50,0,2500,88,10
71218,15:23:27,46903798,test,2,prime_positive,148,4,9,1,401,88,10
71218,15:23:27,46903798,test,2,intention_check,149,4,9,0,2500,88,10
71218,15:23:27,46903798,test,2,prime_negative,150,3,157,0,373,88,10
71218,15:23:27,46903798,test,2,intention_check,151,3,157,0,2500,88,10
71218,15:23:27,46903798,test,2,prime_positive,152,12,192,0,730,86,10
71218,15:23:27,46903798,test,2,intention_check,153,12,192,0,2500,86,10
71218,15:23:27,46903798,test,2,prime_positive,154,6,110,1,485,86,10
71218,15:23:27,46903798,test,2,intention_check,155,6,110,0,2500,86,10
71218,15:23:27,46903798,test,2,prime_negative,156,2,44,0,1349,86,9
71218,15:23:27,46903798,test,2,intention_check,157,2,44,0,2500,86,9
71218,15:23:27,46903798,test,2,prime_positive,158,8,123,1,1168,86,9
71218,15:23:27,46903798,test,2,intention_check,159,8,123,0,2500,86,9
71218,15:23:27,46903798,test,2,prime_negative,160,10,117,0,1707,86,9
71218,15:23:27,46903798,test,2,intention_check,161,10,117,0,2500,86,9
71218,15:23:27,46903798,test,2,prime_negative,162,8,3,0,436,86,9
71218,15:23:27,46903798,test,2,intention_check,163,8,3,0,2500,86,9
71218,15:23:27,46903798,test,2,prime_positive,164,3,137,1,417,87,9
71218,15:23:27,46903798,test,2,intention_check,165,3,137,0,2500,87,9
71218,15:23:27,46903798,test,2,prime_negative,166,12,39,0,1073,87,9
71218,15:23:27,46903798,test,2,intention_check,167,12,39,0,2500,87,9
71218,15:23:27,46903798,test,2,prime_negative,168,9,191,0,435,87,8
71218,15:23:27,46903798,test,2,intention_check,169,9,191,0,2500,87,8
71218,15:23:27,46903798,test,2,prime_positive,170,5,60,0,578,85,8
71218,15:23:27,46903798,test,2,intention_check,171,5,60,0,2500,85,8
71218,15:23:27,46903798,test,2,prime_positive,172,7,18,1,408,85,8
71218,15:23:27,46903798,test,2,intention_check,173,7,18,0,2500,85,8
71218,15:23:27,46903798,test,2,prime_negative,174,11,62,0,1100,85,8
71218,15:23:27,46903798,test,2,intention_check,175,11,62,0,2500,85,8
71218,15:23:27,46903798,test,2,prime_negative,176,7,56,0,1546,85,8
71218,15:23:27,46903798,test,2,intention_check,177,7,56,0,2500,85,8
71218,15:23:27,46903798,test,2,prime_positive,178,2,168,1,315,85,8
71218,15:23:27,46903798,test,2,intention_check,179,2,168,0,2500,85,8
71218,15:23:27,46903798,test,2,prime_negative,180,8,73,0,339,85,8
71218,15:23:27,46903798,test,2,intention_check,181,8,73,0,2500,85,8
71218,15:23:27,46903798,test,2,prime_positive,182,10,181,1,578,86,8
71218,15:23:27,46903798,test,2,intention_check,183,10,181,0,2500,86,8
71218,15:23:27,46903798,test,2,prime_positive,184,5,82,1,402,86,8
71218,15:23:27,46903798,test,2,intention_check,185,5,82,0,2500,86,8
71218,15:23:27,46903798,test,2,prime_positive,186,11,10,1,379,86,8
71218,15:23:27,46903798,test,2,intention_check,187,11,10,0,2500,86,8
71218,15:23:27,46903798,test,2,prime_negative,188,10,57,0,540,86,8
71218,15:23:27,46903798,test,2,intention_check,189,10,57,0,2500,86,8
71218,15:23:27,46903798,test,2,prime_positive,190,6,175,1,362,86,8
71218,15:23:27,46903798,test,2,intention_check,191,6,175,0,2500,86,8
71218,15:23:27,46903798,test,2,prime_positive,192,1,48,1,367,87,8
71218,15:23:27,46903798,test,2,intention_check,193,1,48,0,2500,87,8
71218,15:23:27,46903798,test,2,prime_negative,194,6,55,0,403,87,8
71218,15:23:27,46903798,test,2,intention_check,195,6,55,0,2500,87,8
71218,15:23:27,46903798,test,2,prime_positive,196,12,11,0,623,85,8
71218,15:23:27,46903798,test,2,intention_check,197,12,11,0,2500,85,8
71218,15:23:27,46903798,test,2,prime_negative,198,2,184,0,451,85,7
71218,15:23:27,46903798,test,2,intention_check,199,2,184,0,2500,85,7
71218,15:23:27,46903798,test,2,prime_positive,200,9,107,1,365,85,7
71218,15:23:27,46903798,test,2,intention_check,201,9,107,0,2500,85,7
71218,15:23:27,46903798,test,2,prime_positive,202,10,24,1,433,86,7
71218,15:23:27,46903798,test,2,intention_check,203,10,24,0,2500,86,7
71218,15:23:27,46903798,test,2,prime_negative,204,5,149,0,292,86,7
71218,15:23:27,46903798,test,2,intention_check,205,5,149,0,2500,86,7
71218,15:23:27,46903798,test,2,prime_negative,206,3,154,0,449,86,7
71218,15:23:27,46903798,test,2,intention_check,207,3,154,0,2500,86,7
71218,15:23:27,46903798,test,2,prime_positive,208,4,101,1,385,86,7
71218,15:23:27,46903798,test,2,intention_check,209,4,101,0,2500,86,7
71218,15:23:27,46903798,test,2,prime_positive,210,2,136,1,335,86,7
71218,15:23:27,46903798,test,2,intention_check,211,2,136,0,2500,86,7
71218,15:23:27,46903798,test,2,prime_negative,212,4,182,0,450,86,7
71218,15:23:27,46903798,test,2,intention_check,213,4,182,0,2500,86,7
71218,15:23:27,46903798,test,2,prime_positive,214,7,160,1,245,86,7
71218,15:23:27,46903798,test,2,intention_check,215,7,160,0,2500,86,7
71218,15:23:27,46903798,test,2,prime_negative,216,1,99,0,370,86,7
71218,15:23:27,46903798,test,2,intention_check,217,1,99,0,2500,86,7
71218,15:23:27,46903798,test,2,prime_positive,218,3,69,1,368,87,7
71218,15:23:27,46903798,test,2,intention_check,219,3,69,0,2500,87,7
71218,15:23:27,46903798,test,2,prime_positive,220,8,89,1,351,87,7
71218,15:23:27,46903798,test,2,intention_check,221,8,89,0,2500,87,7
71218,15:23:27,46903798,test,2,prime_positive,222,4,140,1,358,87,7
71218,15:23:27,46903798,test,2,intention_check,223,4,140,0,2500,87,7
71218,15:23:27,46903798,test,2,prime_negative,224,4,179,0,365,87,7
71218,15:23:27,46903798,test,2,intention_check,225,4,179,0,2500,87,7
71218,15:23:27,46903798,test,2,prime_positive,226,10,47,1,376,87,7
71218,15:23:27,46903798,test,2,intention_check,227,10,47,0,2500,87,7
71218,15:23:27,46903798,test,2,prime_negative,228,8,1,0,384,87,7
71218,15:23:27,46903798,test,2,intention_check,229,8,1,0,2500,87,7
71218,15:23:27,46903798,test,2,prime_positive,230,9,177,1,406,87,7
71218,15:23:27,46903798,test,2,intention_check,231,9,177,0,2500,87,7
71218,15:23:27,46903798,test,2,prime_positive,232,12,66,0,467,86,7
71218,15:23:27,46903798,test,2,intention_check,233,12,66,0,2500,86,7
71218,15:23:27,46903798,test,2,prime_negative,234,10,164,0,413,86,6
71218,15:23:27,46903798,test,2,intention_check,235,10,164,0,2500,86,6
71218,15:23:27,46903798,test,2,prime_negative,236,1,145,0,4545,86,6
71218,15:23:27,46903798,test,2,intention_check,237,1,145,0,2500,86,6
71218,15:23:27,46903798,test,2,prime_positive,238,7,188,1,413,86,6
71218,15:23:27,46903798,test,2,intention_check,239,7,188,0,2500,86,6
71218,15:23:27,46903798,test,2,prime_negative,240,12,95,0,591,86,6
71218,15:23:27,46903798,test,2,intention_check,241,12,95,0,2500,86,6
71218,15:30:14,28512505,practice,1,prime_positive_practice,5,0,0,0,7644,0,0
71218,15:30:14,28512505,practice,1,intention_check_practice,6,0,0,0,2500,0,0
71218,15:30:14,28512505,practice,1,prime_positive_practice,7,0,0,0,5158,0,0
71218,15:30:14,28512505,practice,1,intention_check_practice,8,0,0,0,2500,0,0
71218,15:30:14,28512505,practice,1,prime_negative_practice,9,0,0,1,4391,0,0
71218,15:30:14,28512505,practice,1,intention_check_practice,10,0,0,0,2500,0,0
71218,15:30:14,28512505,practice,1,prime_negative_practice,11,0,0,0,4665,0,0
71218,15:30:14,28512505,practice,1,intention_check_practice,12,0,0,1,754,0,0
71218,15:30:14,28512505,practice,1,prime_positive_practice,13,0,0,0,4172,0,0
71218,15:30:14,28512505,practice,1,intention_check_practice,14,0,0,0,2500,0,0
71218,15:30:14,28512505,practice,1,prime_negative_practice,15,0,0,0,2336,0,0
71218,15:30:14,28512505,practice,1,intention_check_practice,16,0,0,1,867,0,0
71218,15:30:14,28512505,practice,1,prime_positive_practice,17,0,0,1,1831,0,0
71218,15:30:14,28512505,practice,1,intention_check_practice,18,0,0,1,884,0,0
71218,15:30:14,28512505,practice,1,prime_negative_practice,19,0,0,0,1676,0,0
71218,15:30:14,28512505,practice,1,intention_check_practice,20,0,0,1,1040,0,0
71218,15:30:14,28512505,practice,1,prime_negative_practice,21,0,0,1,2330,0,0
71218,15:30:14,28512505,practice,1,intention_check_practice,22,0,0,0,2500,0,0
71218,15:30:14,28512505,practice,1,prime_positive_practice,23,0,0,1,1387,0,0
71218,15:30:14,28512505,practice,1,intention_check_practice,24,0,0,0,2500,0,0
71218,15:30:14,28512505,test,2,prime_positive,2,6,47,0,2248,0,0
71218,15:30:14,28512505,test,2,intention_check,3,6,47,0,2500,0,0
71218,15:30:14,28512505,test,2,prime_positive,4,3,19,1,3375,50,0
71218,15:30:14,28512505,test,2,intention_check,5,3,19,1,991,50,0
71218,15:30:14,28512505,test,2,prime_positive,6,8,176,1,2342,66,0
71218,15:30:14,28512505,test,2,intention_check,7,8,176,1,753,66,0
71218,15:30:14,28512505,test,2,prime_positive,8,5,94,1,2486,75,0
71218,15:30:14,28512505,test,2,intention_check,9,5,94,1,657,75,0
71218,15:30:14,28512505,test,2,prime_negative,10,6,74,0,2343,75,0
71218,15:30:14,28512505,test,2,intention_check,11,6,74,1,581,75,0
71218,15:30:14,28512505,test,2,prime_positive,12,10,18,1,1816,80,0
71218,15:30:14,28512505,test,2,intention_check,13,10,18,1,737,80,0
71218,15:30:14,28512505,test,2,prime_negative,14,3,106,0,2143,80,0
71218,15:30:14,28512505,test,2,intention_check,15,3,106,1,582,80,0
71218,15:30:14,28512505,test,2,prime_positive,16,1,128,1,1633,83,0
71218,15:30:14,28512505,test,2,intention_check,17,1,128,1,536,83,0
71218,15:30:14,28512505,test,2,prime_positive,18,11,27,1,1998,85,0
71218,15:30:14,28512505,test,2,intention_check,19,11,27,1,580,85,0
71218,15:30:14,28512505,test,2,prime_positive,20,3,184,1,1200,87,0
71218,15:30:14,28512505,test,2,intention_check,21,3,184,1,565,87,0
71218,15:30:14,28512505,test,2,prime_positive,22,10,36,1,1293,88,0
71218,15:30:14,28512505,test,2,intention_check,23,10,36,1,710,88,0
71218,15:30:14,28512505,test,2,prime_positive,24,8,133,0,2859,80,0
71218,15:30:14,28512505,test,2,intention_check,25,8,133,1,668,80,0
71218,15:30:14,28512505,test,2,prime_positive,26,7,95,1,2493,81,0
71218,15:30:14,28512505,test,2,intention_check,27,7,95,1,561,81,0
71218,15:30:14,28512505,test,2,prime_negative,28,12,61,0,2543,81,0
71218,15:30:14,28512505,test,2,intention_check,29,12,61,0,2500,81,0
71218,15:30:14,28512505,test,2,prime_positive,30,5,98,1,979,83,0
71218,15:30:14,28512505,test,2,intention_check,31,5,98,1,617,83,0
71218,15:30:14,28512505,test,2,prime_positive,32,9,62,0,2448,76,0
71218,15:30:14,28512505,test,2,intention_check,33,9,62,0,2500,76,0
71218,15:30:14,28512505,test,2,prime_positive,34,4,49,0,1582,71,0
71218,15:30:14,28512505,test,2,intention_check,35,4,49,1,674,71,0
71218,15:30:14,28512505,test,2,prime_negative,36,1,79,0,3294,71,0
71218,15:30:14,28512505,test,2,intention_check,37,1,79,1,503,71,0
71218,15:30:14,28512505,test,2,prime_positive,38,6,60,1,3014,73,0
71218,15:30:14,28512505,test,2,intention_check,39,6,60,0,2500,73,0
71218,15:30:14,28512505,test,2,prime_positive,40,1,197,1,738,75,0
71218,15:30:14,28512505,test,2,intention_check,41,1,197,1,496,75,0
71218,15:30:14,28512505,test,2,prime_negative,42,11,146,0,2862,75,0
71218,15:30:14,28512505,test,2,intention_check,43,11,146,1,917,75,0
71218,15:30:14,28512505,test,2,prime_negative,44,5,45,0,1250,75,0
71218,15:30:14,28512505,test,2,intention_check,45,5,45,1,715,75,0
71218,15:30:14,28512505,test,2,prime_positive,46,2,195,1,1659,76,0
71218,15:30:14,28512505,test,2,intention_check,47,2,195,1,497,76,0
71218,15:30:14,28512505,test,2,prime_negative,48,10,162,1,2926,76,14
71218,15:30:14,28512505,test,2,intention_check,49,10,162,0,2500,76,14
71218,15:30:14,28512505,test,2,prime_negative,50,8,11,0,2607,76,12
71218,15:30:14,28512505,test,2,intention_check,51,8,11,1,606,76,12
71218,15:30:14,28512505,test,2,prime_negative,52,7,119,0,1101,76,11
71218,15:30:14,28512505,test,2,intention_check,53,7,119,1,513,76,11
71218,15:30:14,28512505,test,2,prime_negative,54,6,147,0,2060,76,10
71218,15:30:14,28512505,test,2,intention_check,55,6,147,1,444,76,10
71218,15:30:14,28512505,test,2,prime_negative,56,10,138,0,1496,76,9
71218,15:30:14,28512505,test,2,intention_check,57,10,138,1,517,76,9
71218,15:30:14,28512505,test,2,prime_negative,58,5,127,1,3341,76,16
71218,15:30:14,28512505,test,2,intention_check,59,5,127,0,2500,76,16
71218,15:30:14,28512505,test,2,prime_negative,60,4,39,1,1752,76,23
71218,15:30:14,28512505,test,2,intention_check,61,4,39,0,2500,76,23
71218,15:30:14,28512505,test,2,prime_negative,62,11,26,0,3413,76,21
71218,15:30:14,28512505,test,2,intention_check,63,11,26,0,2500,76,21
71218,15:30:14,28512505,test,2,prime_positive,64,12,175,1,1506,77,21
71218,15:30:14,28512505,test,2,intention_check,65,12,175,1,1644,77,21
71218,15:30:14,28512505,test,2,prime_negative,66,9,107,0,1993,77,20
71218,15:30:14,28512505,test,2,intention_check,67,9,107,1,587,77,20
71218,15:30:14,28512505,test,2,prime_positive,68,11,155,0,2796,73,20
71218,15:30:14,28512505,test,2,intention_check,69,11,155,0,2500,73,20
71218,15:30:14,28512505,test,2,prime_negative,70,3,121,0,1719,73,18
71218,15:30:14,28512505,test,2,intention_check,71,3,121,1,518,73,18
71218,15:30:14,28512505,test,2,prime_negative,72,12,51,1,2069,73,23
71218,15:30:14,28512505,test,2,intention_check,73,12,51,0,2500,73,23
71218,15:30:14,28512505,test,2,prime_negative,74,1,178,0,2355,73,22
71218,15:30:14,28512505,test,2,intention_check,75,1,178,1,573,73,22
71218,15:30:14,28512505,test,2,prime_positive,76,5,5,0,2934,70,22
71218,15:30:14,28512505,test,2,intention_check,77,5,5,0,2500,70,22
71218,15:30:14,28512505,test,2,prime_negative,78,2,123,0,3147,70,21
71218,15:30:14,28512505,test,2,intention_check,79,2,123,1,475,70,21
71218,15:30:14,28512505,test,2,prime_positive,80,8,24,1,2654,71,21
71218,15:30:14,28512505,test,2,intention_check,81,8,24,0,2500,71,21
71218,15:30:14,28512505,test,2,prime_positive,82,1,117,1,1195,72,21
71218,15:30:14,28512505,test,2,intention_check,83,1,117,1,653,72,21
71218,15:30:14,28512505,test,2,prime_negative,84,3,104,1,2587,72,25
71218,15:30:14,28512505,test,2,intention_check,85,3,104,0,2500,72,25
71218,15:30:14,28512505,test,2,prime_positive,86,4,16,0,2195,69,25
71218,15:30:14,28512505,test,2,intention_check,87,4,16,1,648,69,25
71218,15:30:14,28512505,test,2,prime_negative,88,9,192,1,1311,69,28
71218,15:30:14,28512505,test,2,intention_check,89,9,192,0,2500,69,28
71218,15:30:14,28512505,test,2,prime_positive,90,7,130,0,2936,66,28
71218,15:30:14,28512505,test,2,intention_check,91,7,130,0,2500,66,28
71218,15:30:14,28512505,test,2,prime_negative,92,10,31,1,2733,66,31
71218,15:30:14,28512505,test,2,intention_check,93,10,31,0,2500,66,31
71218,15:30:14,28512505,test,2,prime_negative,94,4,200,1,2721,66,34
71218,15:30:14,28512505,test,2,intention_check,95,4,200,0,2500,66,34
71218,15:30:14,28512505,test,2,prime_positive,96,6,163,1,1252,68,34
71218,15:30:14,28512505,test,2,intention_check,97,6,163,0,2500,68,34
71218,15:30:14,28512505,test,2,prime_negative,98,12,118,0,3072,68,33
71218,15:30:14,28512505,test,2,intention_check,99,12,118,1,1073,68,33
71218,15:30:14,28512505,test,2,prime_negative,100,11,102,1,876,68,36
71218,15:30:14,28512505,test,2,intention_check,101,11,102,1,623,68,36
71218,15:30:14,28512505,test,2,prime_positive,102,10,141,1,599,69,36
71218,15:30:14,28512505,test,2,intention_check,103,10,141,1,578,69,36
71218,15:30:14,28512505,test,2,prime_positive,104,2,44,1,944,70,36
71218,15:30:14,28512505,test,2,intention_check,105,2,44,1,496,70,36
71218,15:30:14,28512505,test,2,prime_negative,106,7,99,0,1214,70,34
71218,15:30:14,28512505,test,2,intention_check,107,7,99,1,727,70,34
71218,15:30:14,28512505,test,2,prime_positive,108,12,109,1,875,71,34
71218,15:30:14,28512505,test,2,intention_check,109,12,109,1,760,71,34
71218,15:30:14,28512505,test,2,prime_negative,110,2,63,0,1036,71,33
71218,15:30:14,28512505,test,2,intention_check,111,2,63,1,561,71,33
71218,15:30:14,28512505,test,2,prime_negative,112,5,139,1,1536,71,35
71218,15:30:14,28512505,test,2,intention_check,113,5,139,0,2500,71,35
71218,15:30:14,28512505,test,2,prime_negative,114,1,50,1,2663,71,37
71218,15:30:14,28512505,test,2,intention_check,115,1,50,0,2500,71,37
71218,15:30:14,28512505,test,2,prime_positive,116,9,72,0,2789,68,37
71218,15:30:14,28512505,test,2,intention_check,117,9,72,0,2500,68,37
