"date","time","subject","blockcode","blocknum","trialcode","trialnum","values.primestim","values.targetstim","correct","latency","trial.prime_positive.totalpercentcorrect","trial.prime_negative.totalpercentcorrect"
"103019","13:31:50","281898249","practice","1","prime_positive","3","0","0","0","101","0","0"
"103019","13:31:50","281898249","practice","1","intention_check_positive","4","0","0","1","1180","0","0"
"103019","13:31:50","281898249","practice","1","mask_prime_positive","5","4","19","1","1146","0","0"
"103019","13:31:50","281898249","practice","1","prime_positive","6","4","19","0","101","0","0"
"103019","13:31:50","281898249","practice","1","intention_check_positive","7","4","19","1","2328","0","0"
"103019","12:45:58","551921491","practice","1","prime_negative","3","0","0","0","101","0","0"
"103019","12:45:58","551921491","practice","1","intention_check_negative","4","0","0","1","734","0","0"
"103019","12:45:58","551921491","practice","1","mask_prime_negative","5","4","2","0","2323","0","0"
"103019","12:45:58","551921491","practice","1","prime_positive","6","4","2","0","101","0","0"
"103019","12:45:58","551921491","practice","1","intention_check_positive","7","4","2","0","2500","0","0"
"103019","12:45:58","551921491","practice","1","mask_prime_positive","8","6","42","0","1202","0","0"
"103019","12:45:58","551921491","practice","1","prime_positive","9","6","42","0","101","0","0"
"103019","12:45:58","551921491","practice","1","intention_check_positive","10","6","42","1","2401","0","0"
"103019","12:45:58","551921491","practice","1","mask_prime_positive","11","2","7","1","1750","0","0"
"103019","12:45:58","551921491","practice","1","prime_positive","12","2","7","0","101","0","0"
"103019","12:45:58","551921491","practice","1","intention_check_positive","13","2","7","1","1248","0","0"
"103019","12:45:58","551921491","practice","1","mask_prime_positive","14","11","65","0","789","0","0"
"103019","12:45:58","551921491","practice","1","prime_negative","15","11","65","0","101","0","0"
"103019","12:45:58","551921491","practice","1","intention_check_negative","16","11","65","1","1901","0","0"
"103019","12:45:58","551921491","practice","1","mask_prime_negative","17","1","31","1","1363","0","0"
"103019","12:45:58","551921491","practice","1","prime_negative","18","1","31","0","101","0","0"
"103019","12:45:58","551921491","practice","1","intention_check_negative","19","1","31","1","1004","0","0"
"103019","12:45:58","551921491","practice","1","mask_prime_negative","20","10","61","1","1025","0","0"
"103019","12:45:58","551921491","practice","1","prime_positive","21","10","61","0","101","0","0"
"103019","12:45:58","551921491","practice","1","intention_check_positive","22","10","61","1","880","0","0"
"103019","12:45:58","551921491","practice","1","mask_prime_positive","23","1","33","0","1549","0","0"
"103019","12:45:58","551921491","practice","1","prime_positive","24","1","33","0","101","0","0"
"103019","12:45:58","551921491","practice","1","intention_check_positive","25","1","33","0","2500","0","0"
"103019","12:45:58","551921491","practice","1","mask_prime_positive","26","10","25","1","3404","0","0"
"103019","12:45:58","551921491","practice","1","prime_negative","27","10","25","0","101","0","0"
"103019","12:45:58","551921491","practice","1","intention_check_negative","28","10","25","0","2500","0","0"
"103019","12:45:58","551921491","practice","1","mask_prime_negative","29","5","6","1","719","0","0"
"103019","12:45:58","551921491","practice","1","prime_negative","30","5","6","0","101","0","0"
"103019","12:45:58","551921491","practice","1","intention_check_negative","31","5","6","1","642","0","0"
"103019","12:45:58","551921491","practice","1","mask_prime_negative","32","12","4","0","775","0","0"
"103019","12:45:58","551921491","test","2","prime_negative","2","12","4","0","101","0","0"
"103019","12:45:58","551921491","test","2","intention_check_negative","3","12","4","1","1540","0","0"
"103019","12:45:58","551921491","test","2","mask_prime_negative","4","7","9","1","792","0","0"
"103019","12:45:58","551921491","test","2","prime_positive","5","7","9","0","101","0","0"
"103019","12:45:58","551921491","test","2","intention_check_positive","6","7","9","0","2500","0","0"
"103019","12:45:58","551921491","test","2","mask_prime_positive","7","8","44","1","1014","0","0"
"103019","12:45:58","551921491","test","2","prime_positive","8","8","44","0","101","0","0"
"103019","12:45:58","551921491","test","2","intention_check_positive","9","8","44","0","2500","0","0"
"103019","12:45:58","551921491","test","2","mask_prime_positive","10","12","40","0","874","0","0"
"103019","12:45:58","551921491","test","2","prime_positive","11","12","40","0","101","0","0"
"103019","12:45:58","551921491","test","2","intention_check_positive","12","12","40","1","1303","0","0"
"103019","12:45:58","551921491","test","2","mask_prime_positive","13","5","53","1","613","0","0"
"103019","12:45:58","551921491","test","2","prime_negative","14","5","53","0","101","0","0"
"103019","12:45:58","551921491","test","2","intention_check_negative","15","5","53","0","2500","0","0"
"103019","12:45:58","551921491","test","2","mask_prime_negative","16","8","29","0","522","0","0"
"103019","12:45:58","551921491","test","2","prime_negative","17","8","29","0","101","0","0"
"103019","12:45:58","551921491","test","2","intention_check_negative","18","8","29","0","2500","0","0"
"103019","12:45:58","551921491","test","2","mask_prime_negative","19","11","56","0","762","0","0"
"103019","12:45:58","551921491","test","2","prime_positive","20","11","56","0","101","0","0"
"103019","12:45:58","551921491","test","2","intention_check_positive","21","11","56","0","2500","0","0"
"103019","12:45:58","551921491","test","2","mask_prime_positive","22","7","5","1","497","0","0"
"103019","12:45:58","551921491","test","2","prime_positive","23","7","5","0","101","0","0"
"103019","12:45:58","551921491","test","2","intention_check_positive","24","7","5","1","917","0","0"
"103019","12:45:58","551921491","test","2","mask_prime_positive","25","9","32","0","939","0","0"
"103019","12:45:58","551921491","test","2","prime_positive","26","9","32","0","101","0","0"
"103019","12:45:58","551921491","test","2","intention_check_positive","27","9","32","1","1893","0","0"
"103019","12:45:58","551921491","test","2","mask_prime_positive","28","3","66","1","66","0","0"
"103019","12:45:58","551921491","test","2","prime_positive","29","3","66","0","101","0","0"
"103019","12:45:58","551921491","test","2","intention_check_positive","30","3","66","0","2500","0","0"
"103019","12:45:58","551921491","test","2","mask_prime_positive","31","4","30","1","549","0","0"
"103019","12:45:58","551921491","test","2","prime_negative","32","4","30","0","101","0","0"
"103019","12:45:58","551921491","test","2","intention_check_negative","33","4","30","0","2500","0","0"
"103019","12:45:58","551921491","test","2","mask_prime_negative","34","9","41","0","981","0","0"
"103019","12:45:58","551921491","test","2","prime_positive","35","9","41","0","101","0","0"
"103019","12:45:58","551921491","test","2","intention_check_positive","36","9","41","0","2500","0","0"
"103019","12:45:58","551921491","test","2","mask_prime_positive","37","11","43","1","578","0","0"
"103019","12:45:58","551921491","test","2","prime_negative","38","11","43","0","101","0","0"
"103019","12:45:58","551921491","test","2","intention_check_negative","39","11","43","0","2500","0","0"
"103019","12:45:58","551921491","test","2","mask_prime_negative","40","3","47","0","673","0","0"
"103019","12:45:58","551921491","test","2","prime_negative","41","3","47","0","101","0","0"
"103019","12:45:58","551921491","test","2","intention_check_negative","42","3","47","0","2500","0","0"
"103019","12:45:58","551921491","test","2","mask_prime_negative","43","2","38","1","587","0","0"
"103019","12:45:58","551921491","test","2","prime_positive","44","2","38","0","101","0","0"
"103019","12:45:58","551921491","test","2","intention_check_positive","45","2","38","0","2500","0","0"
"103019","12:45:58","551921491","test","2","mask_prime_positive","46","6","1","0","568","0","0"
"103019","12:45:58","551921491","test","2","prime_negative","47","6","1","0","101","0","0"
"103019","12:45:58","551921491","test","2","intention_check_negative","48","6","1","1","1273","0","0"
"103019","12:45:58","551921491","test","2","mask_prime_negative","49","6","28","1","1399","0","0"
"103019","12:45:58","551921491","test","2","prime_positive","50","6","28","0","101","0","0"
"103019","12:45:58","551921491","test","2","intention_check_positive","51","6","28","1","1782","0","0"
"103019","12:45:58","551921491","test","2","mask_prime_positive","52","5","11","1","836","0","0"
"103019","12:45:58","551921491","test","2","prime_positive","53","5","11","0","101","0","0"
"103019","12:45:58","551921491","test","2","intention_check_positive","54","5","11","0","2500","0","0"
"103019","12:45:58","551921491","test","2","mask_prime_positive","55","12","26","0","1023","0","0"
"103019","12:45:58","551921491","test","2","prime_negative","56","12","26","0","101","0","0"
"103019","12:45:58","551921491","test","2","intention_check_negative","57","12","26","0","2500","0","0"
"103019","12:45:58","551921491","test","2","mask_prime_negative","58","2","34","0","876","0","0"
"103019","12:45:58","551921491","test","2","prime_negative","59","2","34","0","101","0","0"
"103019","12:45:58","551921491","test","2","intention_check_negative","60","2","34","0","2500","0","0"
"103019","12:45:58","551921491","test","2","mask_prime_negative","61","5","8","0","1533","0","0"
"103019","12:45:58","551921491","test","2","prime_negative","62","5","8","0","101","0","0"
"103019","12:45:58","551921491","test","2","intention_check_negative","63","5","8","0","2500","0","0"
"103019","12:45:58","551921491","test","2","mask_prime_negative","64","9","51","1","309","0","0"
"103019","12:45:58","551921491","test","2","prime_positive","65","9","51","0","101","0","0"
"103019","12:45:58","551921491","test","2","intention_check_positive","66","9","51","0","2500","0","0"
"103019","12:45:58","551921491","test","2","mask_prime_positive","67","10","37","1","734","0","0"
"103019","12:45:58","551921491","test","2","prime_negative","68","10","37","0","101","0","0"
"103019","12:45:58","551921491","test","2","intention_check_negative","69","10","37","1","2216","0","0"
"103019","12:45:58","551921491","test","2","mask_prime_negative","70","10","35","1","1614","0","0"
"103019","12:45:58","551921491","test","2","prime_positive","71","10","35","0","101","0","0"
"103019","12:45:58","551921491","test","2","intention_check_positive","72","10","35","1","1012","0","0"
"103019","12:45:58","551921491","test","2","mask_prime_positive","73","3","59","1","186","0","0"
"103019","12:45:58","551921491","test","2","prime_negative","74","3","59","0","101","0","0"
"103019","12:45:58","551921491","test","2","intention_check_negative","75","3","59","0","2500","0","0"
"103019","12:45:58","551921491","test","2","mask_prime_negative","76","4","39","0","1072","0","0"
"103019","12:45:58","551921491","test","2","prime_positive","77","4","39","0","101","0","0"
"103019","12:45:58","551921491","test","2","intention_check_positive","78","4","39","0","2500","0","0"
"103019","12:45:58","551921491","test","2","mask_prime_positive","79","2","24","1","914","0","0"
"103019","12:45:58","551921491","test","2","prime_negative","80","2","24","0","101","0","0"
"103019","12:45:58","551921491","test","2","intention_check_negative","81","2","24","0","2500","0","0"
"103019","12:45:58","551921491","test","2","mask_prime_negative","82","6","72","1","866","0","0"
"103019","12:45:58","551921491","test","2","prime_positive","83","6","72","0","101","0","0"
"103019","12:45:58","551921491","test","2","intention_check_positive","84","6","72","0","2500","0","0"
"103019","12:45:58","551921491","test","2","mask_prime_positive","85","7","20","0","541","0","0"
"103019","12:45:58","551921491","test","2","prime_negative","86","7","20","0","101","0","0"
"103019","12:45:58","551921491","test","2","intention_check_negative","87","7","20","0","2500","0","0"
"103019","12:45:58","551921491","test","2","mask_prime_negative","88","8","67","0","741","0","0"
"103019","12:45:58","551921491","test","2","prime_positive","89","8","67","0","101","0","0"
"103019","12:45:58","551921491","test","2","intention_check_positive","90","8","67","0","2500","0","0"
"103019","12:45:58","551921491","test","2","mask_prime_positive","91","9","13","1","692","0","0"
"103019","12:45:58","551921491","test","2","prime_positive","92","9","13","0","101","0","0"
"103019","12:45:58","551921491","test","2","intention_check_positive","93","9","13","0","2500","0","0"
"103019","12:45:58","551921491","test","2","mask_prime_positive","94","4","18","0","678","0","0"
"103019","12:45:58","551921491","test","2","prime_negative","95","4","18","0","101","0","0"
"103019","12:45:58","551921491","test","2","intention_check_negative","96","4","18","0","2500","0","0"
"103019","12:45:58","551921491","test","2","mask_prime_negative","97","7","15","1","208","0","0"
"103019","12:45:58","551921491","test","2","prime_negative","98","7","15","0","101","0","0"
"103019","12:45:58","551921491","test","2","intention_check_negative","99","7","15","0","2500","0","0"
"103019","12:45:58","551921491","test","2","mask_prime_negative","100","11","3","0","165","0","0"
"103019","12:45:58","551921491","test","2","prime_positive","101","11","3","0","101","0","0"
"103019","12:45:58","551921491","test","2","intention_check_positive","102","11","3","0","2500","0","0"
"103019","12:45:58","551921491","test","2","mask_prime_positive","103","1","16","1","228","0","0"
"103019","12:45:58","551921491","test","2","prime_positive","104","1","16","0","101","0","0"
"103019","12:45:58","551921491","test","2","intention_check_positive","105","1","16","0","2500","0","0"
"103019","12:45:58","551921491","test","2","mask_prime_positive","106","8","36","0","745","0","0"
"103019","12:45:58","551921491","test","2","prime_negative","107","8","36","0","101","0","0"
"103019","12:45:58","551921491","test","2","intention_check_negative","108","8","36","0","2500","0","0"
"103019","12:45:58","551921491","test","2","mask_prime_negative","109","1","12","1","272","0","0"
"103019","12:45:58","551921491","test","2","prime_positive","110","1","12","0","101","0","0"
"103019","12:45:58","551921491","test","2","intention_check_positive","111","1","12","0","2500","0","0"
"103019","12:45:58","551921491","test","2","mask_prime_positive","112","8","64","1","810","0","0"
"103019","12:45:58","551921491","test","2","prime_positive","113","8","64","0","101","0","0"
"103019","12:45:58","551921491","test","2","intention_check_positive","114","8","64","0","2500","0","0"
"103019","12:45:58","551921491","test","2","mask_prime_positive","115","3","23","0","727","0","0"
"103019","12:45:58","551921491","test","2","prime_positive","116","3","23","0","101","0","0"
"103019","12:45:58","551921491","test","2","intention_check_positive","117","3","23","1","1187","0","0"
"103019","12:45:58","551921491","test","2","mask_prime_positive","118","7","55","0","1000","0","0"
"103019","12:45:58","551921491","test","2","prime_positive","119","7","55","0","101","0","0"
"103019","12:45:58","551921491","test","2","intention_check_positive","120","7","55","0","2500","0","0"
"103019","12:45:58","551921491","test","2","mask_prime_positive","121","12","69","0","892","0","0"
"103019","12:45:58","551921491","test","2","prime_positive","122","12","69","0","101","0","0"
"103019","12:45:58","551921491","test","2","intention_check_positive","123","12","69","0","2500","0","0"
"103019","12:45:58","551921491","test","2","mask_prime_positive","124","6","22","0","958","0","0"
"103019","12:45:58","551921491","test","2","prime_negative","125","6","22","0","101","0","0"
"103019","12:45:58","551921491","test","2","intention_check_negative","126","6","22","1","1663","0","0"
"103019","12:45:58","551921491","test","2","mask_prime_negative","127","12","62","1","484","0","0"
"103019","12:45:58","551921491","test","2","prime_negative","128","12","62","0","101","0","0"
"103019","12:45:58","551921491","test","2","intention_check_negative","129","12","62","0","2500","0","0"
"103019","12:45:58","551921491","test","2","mask_prime_negative","130","3","48","0","646","0","0"
"103019","12:45:58","551921491","test","2","prime_negative","131","3","48","0","101","0","0"
"103019","12:45:58","551921491","test","2","intention_check_negative","132","3","48","0","2500","0","0"
"103019","12:45:58","551921491","test","2","mask_prime_negative","133","11","71","0","666","0","0"
"103019","12:45:58","551921491","test","2","prime_positive","134","11","71","0","101","0","0"
"103019","12:45:58","551921491","test","2","intention_check_positive","135","11","71","0","2500","0","0"
"103019","12:45:58","551921491","test","2","mask_prime_positive","136","10","45","0","1701","0","0"
"103019","12:45:58","551921491","test","2","prime_negative","137","10","45","0","101","0","0"
"103019","12:45:58","551921491","test","2","intention_check_negative","138","10","45","0","2500","0","0"
"103019","12:45:58","551921491","test","2","mask_prime_negative","139","3","70","1","2213","0","0"
"103019","12:45:58","551921491","test","2","prime_positive","140","3","70","0","101","0","0"
"103019","12:45:58","551921491","test","2","intention_check_positive","141","3","70","0","2500","0","0"
"103019","12:45:58","551921491","test","2","mask_prime_positive","142","11","50","1","888","0","0"
"103019","12:45:58","551921491","test","2","prime_positive","143","11","50","0","101","0","0"
"103019","12:45:58","551921491","test","2","intention_check_positive","144","11","50","0","2500","0","0"
"103019","12:45:58","551921491","test","2","mask_prime_positive","145","2","27","1","938","0","0"
"103019","12:45:58","551921491","test","2","prime_negative","146","2","27","0","101","0","0"
"103019","12:45:58","551921491","test","2","intention_check_negative","147","2","27","0","2500","0","0"
"103019","12:45:58","551921491","test","2","mask_prime_negative","148","12","54","1","833","0","0"
"103019","12:45:58","551921491","test","2","prime_positive","149","12","54","0","101","0","0"
"103019","12:45:58","551921491","test","2","intention_check_positive","150","12","54","0","2500","0","0"
"103019","12:45:58","551921491","test","2","mask_prime_positive","151","1","46","1","981","0","0"
"103019","12:45:58","551921491","test","2","prime_positive","152","1","46","0","101","0","0"
"103019","12:45:58","551921491","test","2","intention_check_positive","153","1","46","0","2500","0","0"
"103019","12:45:58","551921491","test","2","mask_prime_positive","154","9","60","0","723","0","0"
"103019","12:45:58","551921491","test","2","prime_negative","155","9","60","0","101","0","0"
"103019","12:45:58","551921491","test","2","intention_check_negative","156","9","60","0","2500","0","0"
"103019","12:45:58","551921491","test","2","mask_prime_negative","157","7","14","1","1523","0","0"
"103019","12:45:58","551921491","test","2","prime_negative","158","7","14","0","101","0","0"
"103019","12:45:58","551921491","test","2","intention_check_negative","159","7","14","0","2500","0","0"
"103019","12:45:58","551921491","test","2","mask_prime_negative","160","9","49","1","818","0","0"
"103019","12:45:58","551921491","test","2","prime_negative","161","9","49","0","101","0","0"
"103019","12:45:58","551921491","test","2","intention_check_negative","162","9","49","1","2105","0","0"
"103019","12:45:58","551921491","test","2","mask_prime_negative","163","10","21","0","566","0","0"
"103019","12:45:58","551921491","test","2","prime_negative","164","10","21","0","101","0","0"
"103019","12:45:58","551921491","test","2","intention_check_negative","165","10","21","0","2500","0","0"
"103019","12:45:58","551921491","test","2","mask_prime_negative","166","2","52","1","389","0","0"
"103019","12:45:58","551921491","test","2","prime_positive","167","2","52","0","101","0","0"
"103019","12:45:58","551921491","test","2","intention_check_positive","168","2","52","0","2500","0","0"
"103019","12:45:58","551921491","test","2","mask_prime_positive","169","4","58","0","1235","0","0"
"103019","12:45:58","551921491","test","2","prime_positive","170","4","58","0","101","0","0"
"103019","12:45:58","551921491","test","2","intention_check_positive","171","4","58","0","2500","0","0"
"103019","12:45:58","551921491","test","2","mask_prime_positive","172","5","10","1","286","0","0"
"103019","12:45:58","551921491","test","2","prime_negative","173","5","10","0","101","0","0"
"103019","12:45:58","551921491","test","2","intention_check_negative","174","5","10","0","2500","0","0"
"103019","12:45:58","551921491","test","2","mask_prime_negative","175","1","17","1","319","0","0"
"103019","12:45:58","551921491","test","2","prime_negative","176","1","17","0","101","0","0"
"103019","12:45:58","551921491","test","2","intention_check_negative","177","1","17","0","2500","0","0"
"103019","12:45:58","551921491","test","2","mask_prime_negative","178","6","63","1","4600","0","0"
"103019","12:45:58","551921491","test","2","prime_negative","179","6","63","0","101","0","0"
"103019","12:45:58","551921491","test","2","intention_check_negative","180","6","63","0","2500","0","0"
"103019","12:45:58","551921491","test","2","mask_prime_negative","181","5","19","1","3643","0","0"
"103019","12:45:58","551921491","test","2","prime_negative","182","5","19","0","101","0","0"
"103019","12:45:58","551921491","test","2","intention_check_negative","183","5","19","0","2500","0","0"
"103019","12:45:58","551921491","test","2","mask_prime_negative","184","8","57","0","1164","0","0"
"103019","12:45:58","551921491","test","2","prime_positive","185","8","57","0","101","0","0"
"103019","12:45:58","551921491","test","2","intention_check_positive","186","8","57","0","2500","0","0"
"103019","12:45:58","551921491","test","2","mask_prime_positive","187","9","68","1","2","0","0"
"103019","12:45:58","551921491","test","2","prime_negative","188","9","68","0","101","0","0"
"103019","12:45:58","551921491","test","2","intention_check_negative","189","9","68","0","2500","0","0"
"103019","12:45:58","551921491","test","2","mask_prime_negative","190","4","44","0","784","0","0"
"103019","12:45:58","551921491","test","2","prime_positive","191","4","44","0","101","0","0"
"103019","12:45:58","551921491","test","2","intention_check_positive","192","4","44","0","2500","0","0"
"103019","12:45:58","551921491","test","2","mask_prime_positive","193","6","15","0","789","0","0"
"103019","12:45:58","551921491","test","2","prime_positive","194","6","15","0","101","0","0"
"103019","12:45:58","551921491","test","2","intention_check_positive","195","6","15","0","2500","0","0"
"103019","12:45:58","551921491","test","2","mask_prime_positive","196","10","72","1","1515","0","0"
"103019","12:45:58","551921491","test","2","prime_negative","197","10","72","0","101","0","0"
"103019","12:45:58","551921491","test","2","intention_check_negative","198","10","72","0","2500","0","0"
"103019","12:45:58","551921491","test","2","mask_prime_negative","199","3","55","1","691","0","0"
"103019","12:45:58","551921491","test","2","prime_negative","200","3","55","0","101","0","0"
"103019","12:45:58","551921491","test","2","intention_check_negative","201","3","55","0","2500","0","0"
"103019","12:45:58","551921491","test","2","mask_prime_negative","202","11","52","0","948","0","0"
"103019","12:45:58","551921491","test","2","prime_negative","203","11","52","0","101","0","0"
"103019","12:45:58","551921491","test","2","intention_check_negative","204","11","52","0","2500","0","0"
"103019","12:45:58","551921491","test","2","mask_prime_negative","205","12","23","0","708","0","0"
"103019","12:45:58","551921491","test","2","prime_negative","206","12","23","0","101","0","0"
"103019","12:45:58","551921491","test","2","intention_check_negative","207","12","23","0","2500","0","0"
"103019","12:45:58","551921491","test","2","mask_prime_negative","208","10","32","1","637","0","0"
"103019","12:45:58","551921491","test","2","prime_positive","209","10","32","0","101","0","0"
"103019","12:45:58","551921491","test","2","intention_check_positive","210","10","32","0","2500","0","0"
"103019","12:45:58","551921491","test","2","mask_prime_positive","211","8","18","1","1104","0","0"
"103019","12:45:58","551921491","test","2","prime_positive","212","8","18","0","101","0","0"
"103019","12:45:58","551921491","test","2","intention_check_positive","213","8","18","0","2500","0","0"
"103019","12:45:58","551921491","test","2","mask_prime_positive","214","12","24","1","921","0","0"
"103019","12:45:58","551921491","test","2","prime_negative","215","12","24","0","101","0","0"
"103019","12:45:58","551921491","test","2","intention_check_negative","216","12","24","0","2500","0","0"
"103019","12:45:58","551921491","test","2","mask_prime_negative","217","5","54","1","873","0","0"
"103019","12:46:29","275003775","practice","1","prime_negative","3","0","0","0","101","0","0"
"103019","12:46:29","275003775","practice","1","intention_check_negative","4","0","0","0","2500","0","0"
"103019","12:46:29","275003775","practice","1","mask_prime_negative","5","10","25","0","4988","0","0"
"103019","12:46:29","275003775","practice","1","prime_positive","6","10","25","0","101","0","0"
"103019","12:46:29","275003775","practice","1","intention_check_positive","7","10","25","0","2500","0","0"
"103019","12:46:29","275003775","practice","1","mask_prime_positive","8","11","65","1","687","0","0"
"103019","12:46:29","275003775","practice","1","prime_negative","9","11","65","0","101","0","0"
"103019","12:46:29","275003775","practice","1","intention_check_negative","10","11","65","1","943","0","0"
"103019","12:46:29","275003775","practice","1","mask_prime_negative","11","9","15","0","3404","0","0"
"103019","12:46:29","275003775","practice","1","prime_negative","12","9","15","0","101","0","0"
"103019","12:46:29","275003775","practice","1","intention_check_negative","13","9","15","0","2500","0","0"
"103019","12:46:29","275003775","practice","1","mask_prime_negative","14","4","62","1","638","0","0"
"103019","12:46:29","275003775","practice","1","prime_negative","15","4","62","0","101","0","0"
"103019","12:46:29","275003775","practice","1","intention_check_negative","16","4","62","0","2500","0","0"
"103019","12:46:29","275003775","practice","1","mask_prime_negative","17","11","44","0","785","0","0"
"103019","12:46:29","275003775","practice","1","prime_positive","18","11","44","0","101","0","0"
"103019","12:46:29","275003775","practice","1","intention_check_positive","19","11","44","0","2500","0","0"
"103019","12:46:29","275003775","practice","1","mask_prime_positive","20","6","37","1","547","0","0"
"103019","12:46:29","275003775","practice","1","prime_negative","21","6","37","0","101","0","0"
"103019","12:46:29","275003775","practice","1","intention_check_negative","22","6","37","0","2500","0","0"
"103019","12:46:29","275003775","practice","1","mask_prime_negative","23","12","51","0","751","0","0"
"103019","12:46:29","275003775","practice","1","prime_positive","24","12","51","0","101","0","0"
"103019","12:46:29","275003775","practice","1","intention_check_positive","25","12","51","0","2500","0","0"
"103019","12:46:29","275003775","practice","1","mask_prime_positive","26","3","70","1","1054","0","0"
"103019","12:46:29","275003775","practice","1","prime_positive","27","3","70","0","101","0","0"
"103019","12:46:29","275003775","practice","1","intention_check_positive","28","3","70","0","2500","0","0"
"103019","12:46:29","275003775","practice","1","mask_prime_positive","29","10","59","1","519","0","0"
"103019","12:46:29","275003775","practice","1","prime_positive","30","10","59","0","101","0","0"
"103019","12:46:29","275003775","practice","1","intention_check_positive","31","10","59","0","2500","0","0"
"103019","12:46:29","275003775","practice","1","mask_prime_positive","32","12","1","0","503","0","0"
"103019","12:46:29","275003775","test","2","prime_positive","2","12","1","0","101","0","0"
"103019","12:46:29","275003775","test","2","intention_check_positive","3","12","1","0","2500","0","0"
"103019","12:46:29","275003775","test","2","mask_prime_positive","4","8","56","1","926","0","0"
"103019","12:46:29","275003775","test","2","prime_positive","5","8","56","0","101","0","0"
"103019","12:46:29","275003775","test","2","intention_check_positive","6","8","56","0","2500","0","0"
"103019","12:46:29","275003775","test","2","mask_prime_positive","7","2","24","1","711","0","0"
"103019","12:46:29","275003775","test","2","prime_positive","8","2","24","0","101","0","0"
"103019","12:46:29","275003775","test","2","intention_check_positive","9","2","24","0","2500","0","0"
"103019","12:46:29","275003775","test","2","mask_prime_positive","10","7","53","1","1192","0","0"
"103019","12:46:29","275003775","test","2","prime_positive","11","7","53","0","101","0","0"
"103019","12:46:29","275003775","test","2","intention_check_positive","12","7","53","0","2500","0","0"
"103019","12:46:29","275003775","test","2","mask_prime_positive","13","5","67","1","694","0","0"
"103019","12:46:29","275003775","test","2","prime_positive","14","5","67","0","101","0","0"
"103019","12:46:29","275003775","test","2","intention_check_positive","15","5","67","0","2500","0","0"
"103019","12:46:29","275003775","test","2","mask_prime_positive","16","9","58","1","718","0","0"
"103019","12:46:29","275003775","test","2","prime_negative","17","9","58","0","101","0","0"
"103019","12:46:29","275003775","test","2","intention_check_negative","18","9","58","1","2016","0","0"
"103019","12:46:29","275003775","test","2","mask_prime_negative","19","6","64","1","1929","0","0"
"103019","12:46:29","275003775","test","2","prime_positive","20","6","64","0","101","0","0"
"103019","12:46:29","275003775","test","2","intention_check_positive","21","6","64","0","2500","0","0"
"103019","12:46:29","275003775","test","2","mask_prime_positive","22","1","6","1","842","0","0"
"103019","12:46:29","275003775","test","2","prime_negative","23","1","6","0","101","0","0"
"103019","12:46:29","275003775","test","2","intention_check_negative","24","1","6","1","1512","0","0"
"103019","12:46:29","275003775","test","2","mask_prime_negative","25","2","13","0","678","0","0"
"103019","12:46:29","275003775","test","2","prime_negative","26","2","13","0","101","0","0"
"103019","12:46:29","275003775","test","2","intention_check_negative","27","2","13","1","860","0","0"
"103019","12:46:29","275003775","test","2","mask_prime_negative","28","1","46","0","1259","0","0"
"103019","12:46:29","275003775","test","2","prime_negative","29","1","46","0","101","0","0"
"103019","12:46:29","275003775","test","2","intention_check_negative","30","1","46","0","2500","0","0"
"103019","12:46:29","275003775","test","2","mask_prime_negative","31","8","71","1","501","0","0"
"103019","12:46:29","275003775","test","2","prime_negative","32","8","71","0","101","0","0"
"103019","12:46:29","275003775","test","2","intention_check_negative","33","8","71","0","2500","0","0"
"103019","12:46:29","275003775","test","2","mask_prime_negative","34","5","28","0","1248","0","0"
"103019","12:46:29","275003775","test","2","prime_positive","35","5","28","0","101","0","0"
"103019","12:46:29","275003775","test","2","intention_check_positive","36","5","28","0","2500","0","0"
"103019","12:46:29","275003775","test","2","mask_prime_positive","37","4","8","1","863","0","0"
"103019","12:46:29","275003775","test","2","prime_positive","38","4","8","0","101","0","0"
"103019","12:46:29","275003775","test","2","intention_check_positive","39","4","8","0","2500","0","0"
"103019","12:46:29","275003775","test","2","mask_prime_positive","40","1","16","0","603","0","0"
"103019","12:46:29","275003775","test","2","prime_negative","41","1","16","0","101","0","0"
"103019","12:46:29","275003775","test","2","intention_check_negative","42","1","16","0","2500","0","0"
"103019","12:46:29","275003775","test","2","mask_prime_negative","43","7","22","1","746","0","0"
"103019","12:46:29","275003775","test","2","prime_negative","44","7","22","0","101","0","0"
"103019","12:46:29","275003775","test","2","intention_check_negative","45","7","22","1","1016","0","0"
"103019","12:46:29","275003775","test","2","mask_prime_negative","46","3","49","1","779","0","0"
"103019","12:46:29","275003775","test","2","prime_positive","47","3","49","0","101","0","0"
"103019","12:46:29","275003775","test","2","intention_check_positive","48","3","49","0","2500","0","0"
"103019","12:46:29","275003775","test","2","mask_prime_positive","49","9","54","1","671","0","0"
"103019","12:46:29","275003775","test","2","prime_negative","50","9","54","0","101","0","0"
"103019","12:46:29","275003775","test","2","intention_check_negative","51","9","54","0","2500","0","0"
"103019","12:46:29","275003775","test","2","mask_prime_negative","52","1","12","0","465","0","0"
"103019","12:46:29","275003775","test","2","prime_negative","53","1","12","0","101","0","0"
"103019","12:46:29","275003775","test","2","intention_check_negative","54","1","12","0","2500","0","0"
"103019","12:46:29","275003775","test","2","mask_prime_negative","55","8","5","1","626","0","0"
"103019","12:46:29","275003775","test","2","prime_positive","56","8","5","0","101","0","0"
"103019","12:46:29","275003775","test","2","intention_check_positive","57","8","5","1","1657","0","0"
"103019","12:46:29","275003775","test","2","mask_prime_positive","58","2","47","1","711","0","0"
"103019","12:46:29","275003775","test","2","prime_positive","59","2","47","0","101","0","0"
"103019","12:46:29","275003775","test","2","intention_check_positive","60","2","47","0","2500","0","0"
"103019","12:46:29","275003775","test","2","mask_prime_positive","61","11","38","1","889","0","0"
"103019","12:46:29","275003775","test","2","prime_negative","62","11","38","0","101","0","0"
"103019","12:46:29","275003775","test","2","intention_check_negative","63","11","38","0","2500","0","0"
"103019","12:46:29","275003775","test","2","mask_prime_negative","64","9","36","1","644","0","0"
"103019","12:46:29","275003775","test","2","prime_positive","65","9","36","0","101","0","0"
"103019","12:46:29","275003775","test","2","intention_check_positive","66","9","36","0","2500","0","0"
"103019","12:46:29","275003775","test","2","mask_prime_positive","67","10","41","1","646","0","0"
"103019","12:46:29","275003775","test","2","prime_negative","68","10","41","0","101","0","0"
"103019","12:46:29","275003775","test","2","intention_check_negative","69","10","41","1","619","0","0"
"103019","12:46:29","275003775","test","2","mask_prime_negative","70","4","10","1","912","0","0"
"103019","12:46:29","275003775","test","2","prime_negative","71","4","10","0","101","0","0"
"103019","12:46:29","275003775","test","2","intention_check_negative","72","4","10","0","2500","0","0"
"103019","12:46:29","275003775","test","2","mask_prime_negative","73","11","19","1","787","0","0"
"103019","12:46:29","275003775","test","2","prime_negative","74","11","19","0","101","0","0"
"103019","12:46:29","275003775","test","2","intention_check_negative","75","11","19","0","2500","0","0"
"103019","12:46:29","275003775","test","2","mask_prime_negative","76","2","17","1","860","0","0"
"103019","12:46:29","275003775","test","2","prime_positive","77","2","17","0","101","0","0"
"103019","12:46:29","275003775","test","2","intention_check_positive","78","2","17","0","2500","0","0"
"103019","12:46:29","275003775","test","2","mask_prime_positive","79","4","35","0","790","0","0"
"103019","12:46:29","275003775","test","2","prime_negative","80","4","35","0","101","0","0"
"103019","12:46:29","275003775","test","2","intention_check_negative","81","4","35","1","610","0","0"
"103019","12:46:29","275003775","test","2","mask_prime_negative","82","3","42","1","705","0","0"
"103019","12:46:29","275003775","test","2","prime_negative","83","3","42","0","101","0","0"
"103019","12:46:29","275003775","test","2","intention_check_negative","84","3","42","0","2500","0","0"
"103019","12:46:29","275003775","test","2","mask_prime_negative","85","12","29","1","529","0","0"
"103019","12:46:29","275003775","test","2","prime_positive","86","12","29","0","101","0","0"
"103019","12:46:29","275003775","test","2","intention_check_positive","87","12","29","0","2500","0","0"
"103019","12:46:29","275003775","test","2","mask_prime_positive","88","7","52","1","556","0","0"
"103019","12:46:29","275003775","test","2","prime_negative","89","7","52","0","101","0","0"
"103019","12:46:29","275003775","test","2","intention_check_negative","90","7","52","1","1102","0","0"
"103019","12:46:29","275003775","test","2","mask_prime_negative","91","10","66","1","687","0","0"
"103019","12:46:29","275003775","test","2","prime_negative","92","10","66","0","101","0","0"
"103019","12:46:29","275003775","test","2","intention_check_negative","93","10","66","0","2500","0","0"
"103019","12:46:29","275003775","test","2","mask_prime_negative","94","7","21","1","842","0","0"
"103019","12:46:29","275003775","test","2","prime_negative","95","7","21","0","101","0","0"
"103019","12:46:29","275003775","test","2","intention_check_negative","96","7","21","0","2500","0","0"
"103019","12:46:29","275003775","test","2","mask_prime_negative","97","6","4","1","766","0","0"
"103019","12:46:29","275003775","test","2","prime_positive","98","6","4","0","101","0","0"
"103019","12:46:29","275003775","test","2","intention_check_positive","99","6","4","0","2500","0","0"
"103019","12:46:29","275003775","test","2","mask_prime_positive","100","6","72","0","807","0","0"
"103019","12:46:29","275003775","test","2","prime_negative","101","6","72","0","101","0","0"
"103019","12:46:29","275003775","test","2","intention_check_negative","102","6","72","0","2500","0","0"
"103019","12:46:29","275003775","test","2","mask_prime_negative","103","5","20","1","854","0","0"
"103019","12:46:29","275003775","test","2","prime_negative","104","5","20","0","101","0","0"
"103019","12:46:29","275003775","test","2","intention_check_negative","105","5","20","0","2500","0","0"
"103019","12:46:29","275003775","test","2","mask_prime_negative","106","5","3","0","809","0","0"
"103019","12:46:29","275003775","test","2","prime_positive","107","5","3","0","101","0","0"
"103019","12:46:29","275003775","test","2","intention_check_positive","108","5","3","0","2500","0","0"
"103019","12:46:29","275003775","test","2","mask_prime_positive","109","8","30","1","496","0","0"
"103019","12:46:29","275003775","test","2","prime_negative","110","8","30","0","101","0","0"
"103019","12:46:29","275003775","test","2","intention_check_negative","111","8","30","1","2136","0","0"
"103019","12:46:29","275003775","test","2","mask_prime_negative","112","12","26","1","752","0","0"
"103019","12:46:29","275003775","test","2","prime_positive","113","12","26","0","101","0","0"
"103019","12:46:29","275003775","test","2","intention_check_positive","114","12","26","0","2500","0","0"
"103019","12:46:29","275003775","test","2","mask_prime_positive","115","3","7","1","1288","0","0"
"103019","12:46:29","275003775","test","2","prime_positive","116","3","7","0","101","0","0"
"103019","12:46:29","275003775","test","2","intention_check_positive","117","3","7","0","2500","0","0"
"103019","12:46:29","275003775","test","2","mask_prime_positive","118","5","50","0","785","0","0"
"103019","12:46:29","275003775","test","2","prime_positive","119","5","50","0","101","0","0"
"103019","12:46:29","275003775","test","2","intention_check_positive","120","5","50","0","2500","0","0"
"103019","12:46:29","275003775","test","2","mask_prime_positive","121","12","39","1","1025","0","0"
"103019","12:46:29","275003775","test","2","prime_positive","122","12","39","0","101","0","0"
"103019","12:46:29","275003775","test","2","intention_check_positive","123","12","39","0","2500","0","0"
"103019","12:46:29","275003775","test","2","mask_prime_positive","124","1","63","1","617","0","0"
"103019","12:46:29","275003775","test","2","prime_negative","125","1","63","0","101","0","0"
"103019","12:46:29","275003775","test","2","intention_check_negative","126","1","63","1","1206","0","0"
"103019","12:46:29","275003775","test","2","mask_prime_negative","127","3","34","1","413","0","0"
"103019","12:46:29","275003775","test","2","prime_positive","128","3","34","0","101","0","0"
"103019","12:46:29","275003775","test","2","intention_check_positive","129","3","34","0","2500","0","0"
"103019","12:46:29","275003775","test","2","mask_prime_positive","130","11","43","0","658","0","0"
"103019","12:46:29","275003775","test","2","prime_negative","131","11","43","0","101","0","0"
"103019","12:46:29","275003775","test","2","intention_check_negative","132","11","43","0","2500","0","0"
"103019","12:46:29","275003775","test","2","mask_prime_negative","133","8","48","0","612","0","0"
"103019","12:46:29","275003775","test","2","prime_negative","134","8","48","0","101","0","0"
"103019","12:46:29","275003775","test","2","intention_check_negative","135","8","48","1","1295","0","0"
"103019","12:46:29","275003775","test","2","mask_prime_negative","136","2","60","0","413","0","0"
"103019","12:46:29","275003775","test","2","prime_positive","137","2","60","0","101","0","0"
"103019","12:46:29","275003775","test","2","intention_check_positive","138","2","60","0","2500","0","0"
"103019","12:46:29","275003775","test","2","mask_prime_positive","139","7","9","1","802","0","0"
"103019","12:46:29","275003775","test","2","prime_positive","140","7","9","0","101","0","0"
"103019","12:46:29","275003775","test","2","intention_check_positive","141","7","9","0","2500","0","0"
"103019","12:46:29","275003775","test","2","mask_prime_positive","142","5","2","1","797","0","0"
"103019","12:46:29","275003775","test","2","prime_negative","143","5","2","0","101","0","0"
"103019","12:46:29","275003775","test","2","intention_check_negative","144","5","2","0","2500","0","0"
"103019","12:46:29","275003775","test","2","mask_prime_negative","145","6","23","1","775","0","0"
"103019","12:46:29","275003775","test","2","prime_negative","146","6","23","0","101","0","0"
"103019","12:46:29","275003775","test","2","intention_check_negative","147","6","23","0","2500","0","0"
"103019","12:46:29","275003775","test","2","mask_prime_negative","148","9","31","0","1000","0","0"
"103019","12:46:29","275003775","test","2","prime_negative","149","9","31","0","101","0","0"
"103019","12:46:29","275003775","test","2","intention_check_negative","150","9","31","0","2500","0","0"
"103019","12:46:29","275003775","test","2","mask_prime_negative","151","4","32","1","823","0","0"
"103019","12:46:29","275003775","test","2","prime_negative","152","4","32","0","101","0","0"
"103019","12:46:29","275003775","test","2","intention_check_negative","153","4","32","0","2500","0","0"
"103019","12:46:29","275003775","test","2","mask_prime_negative","154","10","69","1","714","0","0"
"103019","12:46:29","275003775","test","2","prime_negative","155","10","69","0","101","0","0"
"103019","12:46:29","275003775","test","2","intention_check_negative","156","10","69","0","2500","0","0"
"103019","12:46:29","275003775","test","2","mask_prime_negative","157","7","40","1","621","0","0"
"103019","12:46:29","275003775","test","2","prime_positive","158","7","40","0","101","0","0"
"103019","12:46:29","275003775","test","2","intention_check_positive","159","7","40","0","2500","0","0"
"103019","12:46:29","275003775","test","2","mask_prime_positive","160","4","14","0","631","0","0"
"103019","12:46:29","275003775","test","2","prime_positive","161","4","14","0","101","0","0"
"103019","12:46:29","275003775","test","2","intention_check_positive","162","4","14","1","735","0","0"
"103019","12:46:29","275003775","test","2","mask_prime_positive","163","3","11","1","2510","0","0"
"103019","12:46:29","275003775","test","2","prime_positive","164","3","11","0","101","0","0"
"103019","12:46:29","275003775","test","2","intention_check_positive","165","3","11","0","2500","0","0"
"103019","12:46:29","275003775","test","2","mask_prime_positive","166","8","27","1","667","0","0"
"103019","12:46:29","275003775","test","2","prime_negative","167","8","27","0","101","0","0"
"103019","12:46:29","275003775","test","2","intention_check_negative","168","8","27","0","2500","0","0"
"103019","12:46:29","275003775","test","2","mask_prime_negative","169","11","55","1","716","0","0"
"103019","12:46:29","275003775","test","2","prime_negative","170","11","55","0","101","0","0"
"103019","12:46:29","275003775","test","2","intention_check_negative","171","11","55","1","1560","0","0"
"103019","12:46:29","275003775","test","2","mask_prime_negative","172","1","68","1","837","0","0"
"103019","12:46:29","275003775","test","2","prime_negative","173","1","68","0","101","0","0"
"103019","12:46:29","275003775","test","2","intention_check_negative","174","1","68","1","1178","0","0"
"103019","12:46:29","275003775","test","2","mask_prime_negative","175","1","57","1","770","0","0"
"103019","12:46:29","275003775","test","2","prime_positive","176","1","57","0","101","0","0"
"103019","12:46:29","275003775","test","2","intention_check_positive","177","1","57","0","2500","0","0"
"103019","12:46:29","275003775","test","2","mask_prime_positive","178","12","45","0","626","0","0"
"103019","12:46:29","275003775","test","2","prime_positive","179","12","45","0","101","0","0"
"103019","12:46:29","275003775","test","2","intention_check_positive","180","12","45","0","2500","0","0"
"103019","12:46:29","275003775","test","2","mask_prime_positive","181","6","33","0","731","0","0"
"103019","12:46:29","275003775","test","2","prime_negative","182","6","33","0","101","0","0"
"103019","12:46:29","275003775","test","2","intention_check_negative","183","6","33","0","2500","0","0"
"103019","12:46:29","275003775","test","2","mask_prime_negative","184","4","18","1","818","0","0"
"103019","12:46:29","275003775","test","2","prime_positive","185","4","18","0","101","0","0"
"103019","12:46:29","275003775","test","2","intention_check_positive","186","4","18","0","2500","0","0"
"103019","12:46:29","275003775","test","2","mask_prime_positive","187","10","61","0","616","0","0"
"103019","12:46:29","275003775","test","2","prime_negative","188","10","61","0","101","0","0"
"103019","12:46:29","275003775","test","2","intention_check_negative","189","10","61","0","2500","0","0"
"103019","12:46:29","275003775","test","2","mask_prime_negative","190","7","68","1","564","0","0"
"103019","12:46:29","275003775","test","2","prime_positive","191","7","68","0","101","0","0"
"103019","12:46:29","275003775","test","2","intention_check_positive","192","7","68","0","2500","0","0"
"103019","12:46:29","275003775","test","2","mask_prime_positive","193","9","38","1","969","0","0"
"103019","12:46:29","275003775","test","2","prime_positive","194","9","38","0","101","0","0"
"103019","12:46:29","275003775","test","2","intention_check_positive","195","9","38","0","2500","0","0"
"103019","12:46:29","275003775","test","2","mask_prime_positive","196","2","50","0","700","0","0"
"103019","12:46:29","275003775","test","2","prime_negative","197","2","50","0","101","0","0"
"103019","12:46:29","275003775","test","2","intention_check_negative","198","2","50","0","2500","0","0"
"103019","12:46:29","275003775","test","2","mask_prime_negative","199","11","14","0","638","0","0"
"103019","12:46:29","275003775","test","2","prime_positive","200","11","14","0","101","0","0"
"103019","12:46:29","275003775","test","2","intention_check_positive","201","11","14","0","2500","0","0"
"103019","12:46:29","275003775","test","2","mask_prime_positive","202","9","51","1","628","0","0"
"103019","12:46:29","275003775","test","2","prime_positive","203","9","51","0","101","0","0"
"103019","12:46:29","275003775","test","2","intention_check_positive","204","9","51","0","2500","0","0"
"103019","12:46:29","275003775","test","2","mask_prime_positive","205","3","34","0","574","0","0"
"103019","12:46:29","275003775","test","2","prime_negative","206","3","34","0","101","0","0"
"103019","12:46:29","275003775","test","2","intention_check_negative","207","3","34","1","667","0","0"
"103019","12:46:29","275003775","test","2","mask_prime_negative","208","9","11","0","446","0","0"
"103019","12:46:29","275003775","test","2","prime_positive","209","9","11","0","101","0","0"
"103019","12:46:29","275003775","test","2","intention_check_positive","210","9","11","0","2500","0","0"
"103019","12:46:29","275003775","test","2","mask_prime_positive","211","8","35","1","624","0","0"
"103019","12:46:29","275003775","test","2","prime_positive","212","8","35","0","101","0","0"
"103019","12:46:29","275003775","test","2","intention_check_positive","213","8","35","0","2500","0","0"
"103019","12:46:29","275003775","test","2","mask_prime_positive","214","7","40","1","734","0","0"
"103019","12:46:29","275003775","test","2","prime_positive","215","7","40","0","101","0","0"
"103019","12:46:29","275003775","test","2","intention_check_positive","216","7","40","0","2500","0","0"
"103019","12:46:29","275003775","test","2","mask_prime_positive","217","4","19","0","1369","0","0"
"103019","12:46:39","751341253","practice","1","prime_positive","3","0","0","0","100","0","0"
"103019","12:46:39","751341253","practice","1","intention_check_positive","4","0","0","0","2500","0","0"
"103019","12:46:39","751341253","practice","1","mask_prime_positive","5","4","52","1","1362","0","0"
"103019","12:46:39","751341253","practice","1","prime_positive","6","4","52","0","100","0","0"
"103019","12:46:39","751341253","practice","1","intention_check_positive","7","4","52","0","2500","0","0"
"103019","12:46:39","751341253","practice","1","mask_prime_positive","8","8","21","0","647","0","0"
"103019","12:46:39","751341253","practice","1","prime_positive","9","8","21","0","100","0","0"
"103019","12:46:39","751341253","practice","1","intention_check_positive","10","8","21","1","1024","0","0"
"103019","12:46:39","751341253","practice","1","mask_prime_positive","11","5","28","1","402","0","0"
"103019","12:46:39","751341253","practice","1","prime_positive","12","5","28","0","100","0","0"
"103019","12:46:39","751341253","practice","1","intention_check_positive","13","5","28","0","2500","0","0"
"103019","12:46:39","751341253","practice","1","mask_prime_positive","14","7","62","0","775","0","0"
"103019","12:46:39","751341253","practice","1","prime_negative","15","7","62","0","100","0","0"
"103019","12:46:39","751341253","practice","1","intention_check_negative","16","7","62","0","2500","0","0"
"103019","12:46:39","751341253","practice","1","mask_prime_negative","17","9","60","0","667","0","0"
"103019","12:46:39","751341253","practice","1","prime_negative","18","9","60","0","100","0","0"
"103019","12:46:39","751341253","practice","1","intention_check_negative","19","9","60","0","2500","0","0"
"103019","12:46:39","751341253","practice","1","mask_prime_negative","20","6","50","1","440","0","0"
"103019","12:46:39","751341253","practice","1","prime_positive","21","6","50","0","100","0","0"
"103019","12:46:39","751341253","practice","1","intention_check_positive","22","6","50","1","1375","0","0"
"103019","12:46:39","751341253","practice","1","mask_prime_positive","23","2","23","0","1389","0","0"
"103019","12:46:39","751341253","practice","1","prime_negative","24","2","23","0","100","0","0"
"103019","12:46:39","751341253","practice","1","intention_check_negative","25","2","23","0","2500","0","0"
"103019","12:46:39","751341253","practice","1","mask_prime_negative","26","3","36","1","504","0","0"
"103019","12:46:39","751341253","practice","1","prime_negative","27","3","36","0","100","0","0"
"103019","12:46:39","751341253","practice","1","intention_check_negative","28","3","36","0","2500","0","0"
"103019","12:46:39","751341253","practice","1","mask_prime_negative","29","2","63","0","509","0","0"
"103019","12:46:39","751341253","practice","1","prime_negative","30","2","63","0","100","0","0"
"103019","12:46:39","751341253","practice","1","intention_check_negative","31","2","63","0","2500","0","0"
"103019","12:46:39","751341253","practice","1","mask_prime_negative","32","12","29","1","1701","0","0"
"103019","12:46:39","751341253","test","2","prime_positive","2","12","29","0","100","0","0"
"103019","12:46:39","751341253","test","2","intention_check_positive","3","12","29","0","2500","0","0"
"103019","12:46:39","751341253","test","2","mask_prime_positive","4","9","53","0","563","0","0"
"103019","12:46:39","751341253","test","2","prime_positive","5","9","53","0","100","0","0"
"103019","12:46:39","751341253","test","2","intention_check_positive","6","9","53","0","2500","0","0"
"103019","12:46:39","751341253","test","2","mask_prime_positive","7","10","4","1","1695","0","0"
"103019","12:46:39","751341253","test","2","prime_positive","8","10","4","0","100","0","0"
"103019","12:46:39","751341253","test","2","intention_check_positive","9","10","4","1","1089","0","0"
"103019","12:46:39","751341253","test","2","mask_prime_positive","10","1","66","0","642","0","0"
"103019","12:46:39","751341253","test","2","prime_positive","11","1","66","0","100","0","0"
"103019","12:46:39","751341253","test","2","intention_check_positive","12","1","66","1","1317","0","0"
"103019","12:46:39","751341253","test","2","mask_prime_positive","13","3","39","1","333","0","0"
"103019","12:46:39","751341253","test","2","prime_positive","14","3","39","0","100","0","0"
"103019","12:46:39","751341253","test","2","intention_check_positive","15","3","39","0","2500","0","0"
"103019","12:46:39","751341253","test","2","mask_prime_positive","16","11","20","0","640","0","0"
"103019","12:46:39","751341253","test","2","prime_negative","17","11","20","0","100","0","0"
"103019","12:46:39","751341253","test","2","intention_check_negative","18","11","20","0","2500","0","0"
"103019","12:46:39","751341253","test","2","mask_prime_negative","19","4","47","1","520","0","0"
"103019","12:46:39","751341253","test","2","prime_positive","20","4","47","0","100","0","0"
"103019","12:46:39","751341253","test","2","intention_check_positive","21","4","47","0","2500","0","0"
"103019","12:46:39","751341253","test","2","mask_prime_positive","22","6","2","1","535","0","0"
"103019","12:46:39","751341253","test","2","prime_negative","23","6","2","0","100","0","0"
"103019","12:46:39","751341253","test","2","intention_check_negative","24","6","2","0","2500","0","0"
"103019","12:46:39","751341253","test","2","mask_prime_negative","25","7","72","0","475","0","0"
"103019","12:46:39","751341253","test","2","prime_positive","26","7","72","0","100","0","0"
"103019","12:46:39","751341253","test","2","intention_check_positive","27","7","72","0","2500","0","0"
"103019","12:46:39","751341253","test","2","mask_prime_positive","28","12","61","1","408","0","0"
"103019","12:46:39","751341253","test","2","prime_negative","29","12","61","0","100","0","0"
"103019","12:46:39","751341253","test","2","intention_check_negative","30","12","61","0","2500","0","0"
"103019","12:46:39","751341253","test","2","mask_prime_negative","31","1","3","0","823","0","0"
"103019","12:46:39","751341253","test","2","prime_negative","32","1","3","0","100","0","0"
"103019","12:46:39","751341253","test","2","intention_check_negative","33","1","3","0","2500","0","0"
"103019","12:46:39","751341253","test","2","mask_prime_negative","34","10","71","0","2627","0","0"
"103019","12:46:39","751341253","test","2","prime_negative","35","10","71","0","100","0","0"
"103019","12:46:39","751341253","test","2","intention_check_negative","36","10","71","0","2500","0","0"
"103019","12:46:39","751341253","test","2","mask_prime_negative","37","11","70","1","556","0","0"
"103019","12:46:39","751341253","test","2","prime_positive","38","11","70","0","100","0","0"
"103019","12:46:39","751341253","test","2","intention_check_positive","39","11","70","0","2500","0","0"
"103019","12:46:39","751341253","test","2","mask_prime_positive","40","12","32","0","609","0","0"
"103019","12:46:39","751341253","test","2","prime_positive","41","12","32","0","100","0","0"
"103019","12:46:39","751341253","test","2","intention_check_positive","42","12","32","1","815","0","0"
"103019","12:46:39","751341253","test","2","mask_prime_positive","43","3","17","1","376","0","0"
"103019","12:46:39","751341253","test","2","prime_negative","44","3","17","0","100","0","0"
"103019","12:46:39","751341253","test","2","intention_check_negative","45","3","17","0","2500","0","0"
"103019","12:46:39","751341253","test","2","mask_prime_negative","46","5","68","0","2654","0","0"
"103019","12:46:39","751341253","test","2","prime_positive","47","5","68","0","100","0","0"
"103019","12:46:39","751341253","test","2","intention_check_positive","48","5","68","0","2500","0","0"
"103019","12:46:39","751341253","test","2","mask_prime_positive","49","2","25","1","695","0","0"
"103019","12:46:39","751341253","test","2","prime_positive","50","2","25","0","100","0","0"
"103019","12:46:39","751341253","test","2","intention_check_positive","51","2","25","0","2500","0","0"
"103019","12:46:39","751341253","test","2","mask_prime_positive","52","7","1","0","466","0","0"
"103019","12:46:39","751341253","test","2","prime_negative","53","7","1","0","100","0","0"
"103019","12:46:39","751341253","test","2","intention_check_negative","54","7","1","0","2500","0","0"
"103019","12:46:39","751341253","test","2","mask_prime_negative","55","8","13","1","606","0","0"
"103019","12:46:39","751341253","test","2","prime_positive","56","8","13","0","100","0","0"
"103019","12:46:39","751341253","test","2","intention_check_positive","57","8","13","0","2500","0","0"
"103019","12:46:39","751341253","test","2","mask_prime_positive","58","8","65","1","936","0","0"
"103019","12:46:39","751341253","test","2","prime_negative","59","8","65","0","100","0","0"
"103019","12:46:39","751341253","test","2","intention_check_negative","60","8","65","0","2500","0","0"
"103019","12:46:39","751341253","test","2","mask_prime_negative","61","9","48","0","676","0","0"
"103019","12:46:39","751341253","test","2","prime_negative","62","9","48","0","100","0","0"
"103019","12:46:39","751341253","test","2","intention_check_negative","63","9","48","0","2500","0","0"
"103019","12:46:39","751341253","test","2","mask_prime_negative","64","6","41","1","1045","0","0"
"103019","12:46:39","751341253","test","2","prime_positive","65","6","41","0","100","0","0"
"103019","12:46:39","751341253","test","2","intention_check_positive","66","6","41","0","2500","0","0"
"103019","12:46:39","751341253","test","2","mask_prime_positive","67","4","69","1","541","0","0"
"103019","12:46:39","751341253","test","2","prime_positive","68","4","69","0","100","0","0"
"103019","12:46:39","751341253","test","2","intention_check_positive","69","4","69","0","2500","0","0"
"103019","12:46:39","751341253","test","2","mask_prime_positive","70","10","9","1","755","0","0"
"103019","12:46:39","751341253","test","2","prime_negative","71","10","9","0","100","0","0"
"103019","12:46:39","751341253","test","2","intention_check_negative","72","10","9","0","2500","0","0"
"103019","12:46:39","751341253","test","2","mask_prime_negative","73","3","38","0","714","0","0"
"103019","12:46:39","751341253","test","2","prime_positive","74","3","38","0","100","0","0"
"103019","12:46:39","751341253","test","2","intention_check_positive","75","3","38","0","2500","0","0"
"103019","12:46:39","751341253","test","2","mask_prime_positive","76","9","67","1","4009","0","0"
"103019","12:46:39","751341253","test","2","prime_positive","77","9","67","0","100","0","0"
"103019","12:46:39","751341253","test","2","intention_check_positive","78","9","67","1","841","0","0"
"103019","12:46:39","751341253","test","2","mask_prime_positive","79","1","56","0","546","0","0"
"103019","12:46:39","751341253","test","2","prime_negative","80","1","56","0","100","0","0"
"103019","12:46:39","751341253","test","2","intention_check_negative","81","1","56","0","2500","0","0"
"103019","12:46:39","751341253","test","2","mask_prime_negative","82","7","6","1","421","0","0"
"103019","12:46:39","751341253","test","2","prime_positive","83","7","6","0","100","0","0"
"103019","12:46:39","751341253","test","2","intention_check_positive","84","7","6","0","2500","0","0"
"103019","12:46:39","751341253","test","2","mask_prime_positive","85","6","45","0","607","0","0"
"103019","12:46:39","751341253","test","2","prime_positive","86","6","45","0","100","0","0"
"103019","12:46:39","751341253","test","2","intention_check_positive","87","6","45","0","2500","0","0"
"103019","12:46:39","751341253","test","2","mask_prime_positive","88","11","22","1","668","0","0"
"103019","12:46:39","751341253","test","2","prime_positive","89","11","22","0","100","0","0"
"103019","12:46:39","751341253","test","2","intention_check_positive","90","11","22","1","576","0","0"
"103019","12:46:39","751341253","test","2","mask_prime_positive","91","5","51","0","2621","0","0"
"103019","12:46:39","751341253","test","2","prime_positive","92","5","51","0","100","0","0"
"103019","12:46:39","751341253","test","2","intention_check_positive","93","5","51","0","2500","0","0"
"103019","12:46:39","751341253","test","2","mask_prime_positive","94","8","16","0","650","0","0"
"103019","12:46:39","751341253","test","2","prime_positive","95","8","16","0","100","0","0"
"103019","12:46:39","751341253","test","2","intention_check_positive","96","8","16","0","2500","0","0"
"103019","12:46:39","751341253","test","2","mask_prime_positive","97","10","40","1","405","0","0"
"103019","12:46:39","751341253","test","2","prime_negative","98","10","40","0","100","0","0"
"103019","12:46:39","751341253","test","2","intention_check_negative","99","10","40","0","2500","0","0"
"103019","12:46:39","751341253","test","2","mask_prime_negative","100","2","58","0","945","0","0"
"103019","12:46:39","751341253","test","2","prime_negative","101","2","58","0","100","0","0"
"103019","12:46:39","751341253","test","2","intention_check_negative","102","2","58","0","2500","0","0"
"103019","12:46:39","751341253","test","2","mask_prime_negative","103","1","37","1","697","0","0"
"103019","12:46:39","751341253","test","2","prime_positive","104","1","37","0","100","0","0"
"103019","12:46:39","751341253","test","2","intention_check_positive","105","1","37","0","2500","0","0"
"103019","12:46:39","751341253","test","2","mask_prime_positive","106","7","12","0","366","0","0"
"103019","12:46:39","751341253","test","2","prime_negative","107","7","12","0","100","0","0"
"103019","12:46:39","751341253","test","2","intention_check_negative","108","7","12","0","2500","0","0"
"103019","12:46:39","751341253","test","2","mask_prime_negative","109","10","8","0","795","0","0"
"103019","12:46:39","751341253","test","2","prime_negative","110","10","8","0","100","0","0"
"103019","12:46:39","751341253","test","2","intention_check_negative","111","10","8","0","2500","0","0"
"103019","12:46:39","751341253","test","2","mask_prime_negative","112","5","24","1","493","0","0"
"103019","12:46:39","751341253","test","2","prime_positive","113","5","24","0","100","0","0"
"103019","12:46:39","751341253","test","2","intention_check_positive","114","5","24","0","2500","0","0"
"103019","12:46:39","751341253","test","2","mask_prime_positive","115","6","55","0","572","0","0"
"103019","12:46:39","751341253","test","2","prime_positive","116","6","55","0","100","0","0"
"103019","12:46:39","751341253","test","2","intention_check_positive","117","6","55","0","2500","0","0"
"103019","12:46:39","751341253","test","2","mask_prime_positive","118","4","27","1","530","0","0"
"103019","12:46:39","751341253","test","2","prime_negative","119","4","27","0","100","0","0"
"103019","12:46:39","751341253","test","2","intention_check_negative","120","4","27","0","2500","0","0"
"103019","12:46:39","751341253","test","2","mask_prime_negative","121","11","49","0","1253","0","0"
"103019","12:46:39","751341253","test","2","prime_negative","122","11","49","0","100","0","0"
"103019","12:46:39","751341253","test","2","intention_check_negative","123","11","49","0","2500","0","0"
"103019","12:46:39","751341253","test","2","mask_prime_negative","124","12","46","1","1889","0","0"
"103019","12:46:39","751341253","test","2","prime_negative","125","12","46","0","100","0","0"
"103019","12:46:39","751341253","test","2","intention_check_negative","126","12","46","0","2500","0","0"
"103019","12:46:39","751341253","test","2","mask_prime_negative","127","4","14","0","592","0","0"
"103019","12:46:39","751341253","test","2","prime_negative","128","4","14","0","100","0","0"
"103019","12:46:39","751341253","test","2","intention_check_negative","129","4","14","0","2500","0","0"
"103019","12:46:39","751341253","test","2","mask_prime_negative","130","8","18","1","532","0","0"
"103019","12:46:39","751341253","test","2","prime_positive","131","8","18","0","100","0","0"
"103019","12:46:39","751341253","test","2","intention_check_positive","132","8","18","0","2500","0","0"
"103019","12:46:39","751341253","test","2","mask_prime_positive","133","5","59","1","1064","0","0"
"103019","12:46:39","751341253","test","2","prime_positive","134","5","59","0","100","0","0"
"103019","12:46:39","751341253","test","2","intention_check_positive","135","5","59","0","2500","0","0"
"103019","12:46:39","751341253","test","2","mask_prime_positive","136","12","44","0","1705","0","0"
"103019","12:46:39","751341253","test","2","prime_negative","137","12","44","0","100","0","0"
"103019","12:46:39","751341253","test","2","intention_check_negative","138","12","44","0","2500","0","0"
"103019","12:46:39","751341253","test","2","mask_prime_negative","139","7","57","1","711","0","0"
"103019","12:46:39","751341253","test","2","prime_positive","140","7","57","0","100","0","0"
"103019","12:46:39","751341253","test","2","intention_check_positive","141","7","57","0","2500","0","0"
"103019","12:46:39","751341253","test","2","mask_prime_positive","142","11","15","0","552","0","0"
"103019","12:46:39","751341253","test","2","prime_negative","143","11","15","0","100","0","0"
"103019","12:46:39","751341253","test","2","intention_check_negative","144","11","15","0","2500","0","0"
"103019","12:46:39","751341253","test","2","mask_prime_negative","145","12","10","1","638","0","0"
"103019","12:46:39","751341253","test","2","prime_negative","146","12","10","0","100","0","0"
"103019","12:46:39","751341253","test","2","intention_check_negative","147","12","10","0","2500","0","0"
"103019","12:46:39","751341253","test","2","mask_prime_negative","148","6","54","0","614","0","0"
"103019","12:46:39","751341253","test","2","prime_positive","149","6","54","0","100","0","0"
"103019","12:46:39","751341253","test","2","intention_check_positive","150","6","54","1","729","0","0"
"103019","12:46:39","751341253","test","2","mask_prime_positive","151","1","7","1","445","0","0"
"103019","12:46:39","751341253","test","2","prime_negative","152","1","7","0","100","0","0"
"103019","12:46:39","751341253","test","2","intention_check_negative","153","1","7","0","2500","0","0"
"103019","12:46:39","751341253","test","2","mask_prime_negative","154","5","11","0","544","0","0"
"103019","12:46:39","751341253","test","2","prime_positive","155","5","11","0","100","0","0"
"103019","12:46:39","751341253","test","2","intention_check_positive","156","5","11","1","1446","0","0"
"103019","12:46:39","751341253","test","2","mask_prime_positive","157","3","26","0","980","0","0"
"103019","12:46:39","751341253","test","2","prime_negative","158","3","26","0","100","0","0"
"103019","12:46:39","751341253","test","2","intention_check_negative","159","3","26","0","2500","0","0"
"103019","12:46:39","751341253","test","2","mask_prime_negative","160","8","42","0","1177","0","0"
"103019","12:46:39","751341253","test","2","prime_negative","161","8","42","0","100","0","0"
"103019","12:46:39","751341253","test","2","intention_check_negative","162","8","42","0","2500","0","0"
"103019","12:46:39","751341253","test","2","mask_prime_negative","163","1","31","0","1338","0","0"
"103019","12:46:39","751341253","test","2","prime_negative","164","1","31","0","100","0","0"
"103019","12:46:39","751341253","test","2","intention_check_negative","165","1","31","0","2500","0","0"
"103019","12:46:39","751341253","test","2","mask_prime_negative","166","11","43","1","1283","0","0"
"103019","12:46:39","751341253","test","2","prime_negative","167","11","43","0","100","0","0"
"103019","12:46:39","751341253","test","2","intention_check_negative","168","11","43","0","2500","0","0"
"103019","12:46:39","751341253","test","2","mask_prime_negative","169","3","35","1","936","0","0"
"103019","12:46:39","751341253","test","2","prime_positive","170","3","35","0","100","0","0"
"103019","12:46:39","751341253","test","2","intention_check_positive","171","3","35","0","2500","0","0"
"103019","12:46:39","751341253","test","2","mask_prime_positive","172","2","19","0","3077","0","0"
"103019","12:46:39","751341253","test","2","prime_negative","173","2","19","0","100","0","0"
"103019","12:46:39","751341253","test","2","intention_check_negative","174","2","19","0","2500","0","0"
"103019","12:46:39","751341253","test","2","mask_prime_negative","175","10","64","0","841","0","0"
"103019","12:46:39","751341253","test","2","prime_positive","176","10","64","0","100","0","0"
"103019","12:46:39","751341253","test","2","intention_check_positive","177","10","64","0","2500","0","0"
"103019","12:46:39","751341253","test","2","mask_prime_positive","178","9","33","0","861","0","0"
"103019","12:46:39","751341253","test","2","prime_negative","179","9","33","0","100","0","0"
"103019","12:46:39","751341253","test","2","intention_check_negative","180","9","33","0","2500","0","0"
"103019","12:46:39","751341253","test","2","mask_prime_negative","181","2","30","1","1167","0","0"
"103019","12:46:39","751341253","test","2","prime_negative","182","2","30","0","100","0","0"
"103019","12:46:39","751341253","test","2","intention_check_negative","183","2","30","0","2500","0","0"
"103019","12:46:39","751341253","test","2","mask_prime_negative","184","9","34","0","824","0","0"
"103019","12:46:39","751341253","test","2","prime_positive","185","9","34","0","100","0","0"
"103019","12:46:39","751341253","test","2","intention_check_positive","186","9","34","0","2500","0","0"
"103019","12:46:39","751341253","test","2","mask_prime_positive","187","2","5","0","774","0","0"
"103019","12:46:39","751341253","test","2","prime_positive","188","2","5","0","100","0","0"
"103019","12:46:39","751341253","test","2","intention_check_positive","189","2","5","0","2500","0","0"
"103019","12:46:39","751341253","test","2","mask_prime_positive","190","8","21","0","795","0","0"
"103019","12:46:39","751341253","test","2","prime_positive","191","8","21","0","100","0","0"
"103019","12:46:39","751341253","test","2","intention_check_positive","192","8","21","0","2500","0","0"
"103019","12:46:39","751341253","test","2","mask_prime_positive","193","10","57","0","966","0","0"
"103019","12:46:39","751341253","test","2","prime_negative","194","10","57","0","100","0","0"
"103019","12:46:39","751341253","test","2","intention_check_negative","195","10","57","0","2500","0","0"
"103019","12:46:39","751341253","test","2","mask_prime_negative","196","4","60","0","3177","0","0"
"103019","12:46:39","751341253","test","2","prime_negative","197","4","60","0","100","0","0"
"103019","12:46:39","751341253","test","2","intention_check_negative","198","4","60","0","2500","0","0"
"103019","12:46:39","751341253","test","2","mask_prime_negative","199","3","20","1","1590","0","0"
"103019","12:46:39","751341253","test","2","prime_negative","200","3","20","0","100","0","0"
"103019","12:46:39","751341253","test","2","intention_check_negative","201","3","20","0","2500","0","0"
"103019","12:46:39","751341253","test","2","mask_prime_negative","202","5","5","0","466","0","0"
"103019","12:46:39","751341253","test","2","prime_negative","203","5","5","0","100","0","0"
"103019","12:46:39","751341253","test","2","intention_check_negative","204","5","5","0","2500","0","0"
"103019","12:46:39","751341253","test","2","mask_prime_negative","205","10","63","0","1626","0","0"
"103019","12:46:39","751341253","test","2","prime_positive","206","10","63","0","100","0","0"
"103019","12:46:39","751341253","test","2","intention_check_positive","207","10","63","1","736","0","0"
"103019","12:46:39","751341253","test","2","mask_prime_positive","208","5","64","0","713","0","0"
"103019","12:46:39","751341253","test","2","prime_positive","209","5","64","0","100","0","0"
"103019","12:46:39","751341253","test","2","intention_check_positive","210","5","64","0","2500","0","0"
"103019","12:46:39","751341253","test","2","mask_prime_positive","211","11","46","1","428","0","0"
"103019","12:46:39","751341253","test","2","prime_negative","212","11","46","0","100","0","0"
"103019","12:46:39","751341253","test","2","intention_check_negative","213","11","46","0","2500","0","0"
"103019","12:46:39","751341253","test","2","mask_prime_negative","214","8","69","1","2534","0","0"
"103019","12:46:39","751341253","test","2","prime_negative","215","8","69","0","100","0","0"
"103019","12:46:39","751341253","test","2","intention_check_negative","216","8","69","0","2500","0","0"
"103019","12:46:39","751341253","test","2","mask_prime_negative","217","11","24","1","904","0","0"
"103019","12:48:26","836278210","practice","1","prime_negative","3","0","0","0","100","0","0"
"103019","12:48:26","836278210","practice","1","intention_check_negative","4","0","0","0","2500","0","0"
"103019","12:48:26","836278210","practice","1","mask_prime_negative","5","4","50","1","2272","0","0"
"103019","12:48:26","836278210","practice","1","prime_negative","6","4","50","0","100","0","0"
"103019","12:48:26","836278210","practice","1","intention_check_negative","7","4","50","0","2500","0","0"
"103019","12:48:26","836278210","practice","1","mask_prime_negative","8","6","30","0","2469","0","0"
"103019","12:48:26","836278210","practice","1","prime_positive","9","6","30","0","100","0","0"
"103019","12:48:26","836278210","practice","1","intention_check_positive","10","6","30","0","2500","0","0"
"103019","12:48:26","836278210","practice","1","mask_prime_positive","11","8","28","1","1298","0","0"
"103019","12:48:26","836278210","practice","1","prime_negative","12","8","28","0","100","0","0"
"103019","12:48:26","836278210","practice","1","intention_check_negative","13","8","28","0","2500","0","0"
"103019","12:48:26","836278210","practice","1","mask_prime_negative","14","9","12","1","1701","0","0"
"103019","12:48:26","836278210","practice","1","prime_positive","15","9","12","0","100","0","0"
"103019","12:48:26","836278210","practice","1","intention_check_positive","16","9","12","0","2500","0","0"
"103019","12:48:26","836278210","practice","1","mask_prime_positive","17","7","14","1","1033","0","0"
"103019","12:48:26","836278210","practice","1","prime_negative","18","7","14","0","100","0","0"
"103019","12:48:26","836278210","practice","1","intention_check_negative","19","7","14","1","1433","0","0"
"103019","12:48:26","836278210","practice","1","mask_prime_negative","20","1","36","1","1399","0","0"
"103019","12:48:26","836278210","practice","1","prime_positive","21","1","36","0","100","0","0"
"103019","12:48:26","836278210","practice","1","intention_check_positive","22","1","36","0","2500","0","0"
"103019","12:48:26","836278210","practice","1","mask_prime_positive","23","9","56","1","927","0","0"
"103019","12:48:26","836278210","practice","1","prime_positive","24","9","56","0","100","0","0"
"103019","12:48:26","836278210","practice","1","intention_check_positive","25","9","56","0","2500","0","0"
"103019","12:48:26","836278210","practice","1","mask_prime_positive","26","10","51","1","362","0","0"
"103019","12:48:26","836278210","practice","1","prime_negative","27","10","51","0","100","0","0"
"103019","12:48:26","836278210","practice","1","intention_check_negative","28","10","51","1","1757","0","0"
"103019","12:48:26","836278210","practice","1","mask_prime_negative","29","10","41","1","908","0","0"
"103019","12:48:26","836278210","practice","1","prime_positive","30","10","41","0","100","0","0"
"103019","12:48:26","836278210","practice","1","intention_check_positive","31","10","41","0","2500","0","0"
"103019","12:48:26","836278210","practice","1","mask_prime_positive","32","12","43","1","632","0","0"
"103019","12:48:26","836278210","test","2","prime_positive","2","12","43","0","100","0","0"
"103019","12:48:26","836278210","test","2","intention_check_positive","3","12","43","0","2500","0","0"
"103019","12:48:26","836278210","test","2","mask_prime_positive","4","2","1","1","742","0","0"
"103019","12:48:26","836278210","test","2","prime_negative","5","2","1","0","100","0","0"
"103019","12:48:26","836278210","test","2","intention_check_negative","6","2","1","1","1370","0","0"
"103019","12:48:26","836278210","test","2","mask_prime_negative","7","12","70","1","801","0","0"
"103019","12:48:26","836278210","test","2","prime_negative","8","12","70","0","100","0","0"
"103019","12:48:26","836278210","test","2","intention_check_negative","9","12","70","1","1938","0","0"
"103019","12:48:26","836278210","test","2","mask_prime_negative","10","7","66","1","976","0","0"
"103019","12:48:26","836278210","test","2","prime_positive","11","7","66","0","100","0","0"
"103019","12:48:26","836278210","test","2","intention_check_positive","12","7","66","0","2500","0","0"
"103019","12:48:26","836278210","test","2","mask_prime_positive","13","3","48","1","945","0","0"
"103019","12:48:26","836278210","test","2","prime_negative","14","3","48","0","100","0","0"
"103019","12:48:26","836278210","test","2","intention_check_negative","15","3","48","1","1581","0","0"
"103019","12:48:26","836278210","test","2","mask_prime_negative","16","2","71","1","1100","0","0"
"103019","12:48:26","836278210","test","2","prime_negative","17","2","71","0","100","0","0"
"103019","12:48:26","836278210","test","2","intention_check_negative","18","2","71","0","2500","0","0"
"103019","12:48:26","836278210","test","2","mask_prime_negative","19","11","9","1","623","0","0"
"103019","12:48:26","836278210","test","2","prime_negative","20","11","9","0","100","0","0"
"103019","12:48:26","836278210","test","2","intention_check_negative","21","11","9","1","1264","0","0"
"103019","12:48:26","836278210","test","2","mask_prime_negative","22","3","25","1","830","0","0"
"103019","12:48:26","836278210","test","2","prime_positive","23","3","25","0","100","0","0"
"103019","12:48:26","836278210","test","2","intention_check_positive","24","3","25","0","2500","0","0"
"103019","12:48:26","836278210","test","2","mask_prime_positive","25","4","57","1","917","0","0"
"103019","12:48:26","836278210","test","2","prime_negative","26","4","57","0","100","0","0"
"103019","12:48:26","836278210","test","2","intention_check_negative","27","4","57","1","1089","0","0"
"103019","12:48:26","836278210","test","2","mask_prime_negative","28","8","23","1","872","0","0"
"103019","12:48:26","836278210","test","2","prime_negative","29","8","23","0","100","0","0"
"103019","12:48:26","836278210","test","2","intention_check_negative","30","8","23","1","1262","0","0"
"103019","12:48:26","836278210","test","2","mask_prime_negative","31","5","55","1","1181","0","0"
"103019","12:48:26","836278210","test","2","prime_negative","32","5","55","0","100","0","0"
"103019","12:48:26","836278210","test","2","intention_check_negative","33","5","55","1","1415","0","0"
"103019","12:48:26","836278210","test","2","mask_prime_negative","34","5","6","1","677","0","0"
"103019","12:48:26","836278210","test","2","prime_positive","35","5","6","0","100","0","0"
"103019","12:48:26","836278210","test","2","intention_check_positive","36","5","6","0","2500","0","0"
"103019","12:48:26","836278210","test","2","mask_prime_positive","37","6","40","1","490","0","0"
"103019","12:48:26","836278210","test","2","prime_positive","38","6","40","0","100","0","0"
"103019","12:48:26","836278210","test","2","intention_check_positive","39","6","40","0","2500","0","0"
"103019","12:48:26","836278210","test","2","mask_prime_positive","40","1","45","1","767","0","0"
"103019","12:48:26","836278210","test","2","prime_positive","41","1","45","0","100","0","0"
"103019","12:48:26","836278210","test","2","intention_check_positive","42","1","45","1","1609","0","0"
"103019","12:48:26","836278210","test","2","mask_prime_positive","43","5","11","1","712","0","0"
"103019","12:48:26","836278210","test","2","prime_positive","44","5","11","0","100","0","0"
"103019","12:48:26","836278210","test","2","intention_check_positive","45","5","11","0","2500","0","0"
"103019","12:48:26","836278210","test","2","mask_prime_positive","46","11","29","1","635","0","0"
"103019","12:48:26","836278210","test","2","prime_negative","47","11","29","0","100","0","0"
"103019","12:48:26","836278210","test","2","intention_check_negative","48","11","29","1","1043","0","0"
"103019","12:48:26","836278210","test","2","mask_prime_negative","49","7","38","1","514","0","0"
"103019","12:48:26","836278210","test","2","prime_negative","50","7","38","0","100","0","0"
"103019","12:48:26","836278210","test","2","intention_check_negative","51","7","38","1","1030","0","0"
"103019","12:48:26","836278210","test","2","mask_prime_negative","52","4","49","1","501","0","0"
"103019","12:48:26","836278210","test","2","prime_positive","53","4","49","0","100","0","0"
"103019","12:48:26","836278210","test","2","intention_check_positive","54","4","49","0","2500","0","0"
"103019","12:48:26","836278210","test","2","mask_prime_positive","55","6","58","0","633","0","0"
"103019","12:48:26","836278210","test","2","prime_negative","56","6","58","0","100","0","0"
"103019","12:48:26","836278210","test","2","intention_check_negative","57","6","58","1","1000","0","0"
"103019","12:48:26","836278210","test","2","mask_prime_negative","58","1","64","0","1519","0","0"
"103019","12:48:26","836278210","test","2","prime_negative","59","1","64","0","100","0","0"
"103019","12:48:26","836278210","test","2","intention_check_negative","60","1","64","1","1675","0","0"
"103019","12:48:26","836278210","test","2","mask_prime_negative","61","6","8","0","1137","0","0"
"103019","12:48:26","836278210","test","2","prime_negative","62","6","8","0","100","0","0"
"103019","12:48:26","836278210","test","2","intention_check_negative","63","6","8","1","934","0","0"
"103019","12:48:26","836278210","test","2","mask_prime_negative","64","10","46","1","668","0","0"
"103019","12:48:26","836278210","test","2","prime_positive","65","10","46","0","100","0","0"
"103019","12:48:26","836278210","test","2","intention_check_positive","66","10","46","0","2500","0","0"
"103019","12:48:26","836278210","test","2","mask_prime_positive","67","3","37","1","529","0","0"
"103019","12:48:26","836278210","test","2","prime_negative","68","3","37","0","100","0","0"
"103019","12:48:26","836278210","test","2","intention_check_negative","69","3","37","0","2500","0","0"
"103019","12:48:26","836278210","test","2","mask_prime_negative","70","9","18","0","732","0","0"
"103019","12:48:26","836278210","test","2","prime_negative","71","9","18","0","100","0","0"
"103019","12:48:26","836278210","test","2","intention_check_negative","72","9","18","1","944","0","0"
"103019","12:48:26","836278210","test","2","mask_prime_negative","73","8","39","1","614","0","0"
"103019","12:48:26","836278210","test","2","prime_negative","74","8","39","0","100","0","0"
"103019","12:48:26","836278210","test","2","intention_check_negative","75","8","39","1","831","0","0"
"103019","12:48:26","836278210","test","2","mask_prime_negative","76","2","68","1","982","0","0"
"103019","12:48:26","836278210","test","2","prime_negative","77","2","68","0","100","0","0"
"103019","12:48:26","836278210","test","2","intention_check_negative","78","2","68","0","2500","0","0"
"103019","12:48:26","836278210","test","2","mask_prime_negative","79","12","53","0","1182","0","0"
"103019","12:48:26","836278210","test","2","prime_positive","80","12","53","0","100","0","0"
"103019","12:48:26","836278210","test","2","intention_check_positive","81","12","53","0","2500","0","0"
"103019","12:48:26","836278210","test","2","mask_prime_positive","82","1","27","1","718","0","0"
"103019","12:48:26","836278210","test","2","prime_positive","83","1","27","0","100","0","0"
"103019","12:48:26","836278210","test","2","intention_check_positive","84","1","27","0","2500","0","0"
"103019","12:48:26","836278210","test","2","mask_prime_positive","85","11","33","1","705","0","0"
"103019","12:48:26","836278210","test","2","prime_positive","86","11","33","0","100","0","0"
"103019","12:48:26","836278210","test","2","intention_check_positive","87","11","33","0","2500","0","0"
"103019","12:48:26","836278210","test","2","mask_prime_positive","88","8","65","0","693","0","0"
"103019","12:48:26","836278210","test","2","prime_positive","89","8","65","0","100","0","0"
"103019","12:48:26","836278210","test","2","intention_check_positive","90","8","65","0","2500","0","0"
"103019","12:48:26","836278210","test","2","mask_prime_positive","91","7","59","0","778","0","0"
"103019","12:48:26","836278210","test","2","prime_negative","92","7","59","0","100","0","0"
"103019","12:48:26","836278210","test","2","intention_check_negative","93","7","59","1","948","0","0"
"103019","12:48:26","836278210","test","2","mask_prime_negative","94","3","17","1","1634","0","0"
"103019","12:48:26","836278210","test","2","prime_positive","95","3","17","0","100","0","0"
"103019","12:48:26","836278210","test","2","intention_check_positive","96","3","17","0","2500","0","0"
"103019","12:48:26","836278210","test","2","mask_prime_positive","97","2","60","1","1025","0","0"
"103019","12:48:26","836278210","test","2","prime_negative","98","2","60","0","100","0","0"
"103019","12:48:26","836278210","test","2","intention_check_negative","99","2","60","0","2500","0","0"
"103019","12:48:26","836278210","test","2","mask_prime_negative","100","11","16","0","640","0","0"
"103019","12:48:26","836278210","test","2","prime_positive","101","11","16","0","100","0","0"
"103019","12:48:26","836278210","test","2","intention_check_positive","102","11","16","0","2500","0","0"
"103019","12:48:26","836278210","test","2","mask_prime_positive","103","10","62","1","1222","0","0"
"103019","12:48:26","836278210","test","2","prime_positive","104","10","62","0","100","0","0"
"103019","12:48:26","836278210","test","2","intention_check_positive","105","10","62","0","2500","0","0"
"103019","12:48:26","836278210","test","2","mask_prime_positive","106","4","42","1","1861","0","0"
"103019","12:48:26","836278210","test","2","prime_positive","107","4","42","0","100","0","0"
"103019","12:48:26","836278210","test","2","intention_check_positive","108","4","42","0","2500","0","0"
"103019","12:48:26","836278210","test","2","mask_prime_positive","109","12","3","1","603","0","0"
"103019","12:48:26","836278210","test","2","prime_positive","110","12","3","0","100","0","0"
"103019","12:48:26","836278210","test","2","intention_check_positive","111","12","3","0","2500","0","0"
"103019","12:48:26","836278210","test","2","mask_prime_positive","112","9","20","1","891","0","0"
"103019","12:48:26","836278210","test","2","prime_negative","113","9","20","0","100","0","0"
"103019","12:48:26","836278210","test","2","intention_check_negative","114","9","20","0","2500","0","0"
"103019","12:48:26","836278210","test","2","mask_prime_negative","115","7","13","1","743","0","0"
"103019","12:48:26","836278210","test","2","prime_negative","116","7","13","0","100","0","0"
"103019","12:48:26","836278210","test","2","intention_check_negative","117","7","13","1","1387","0","0"
"103019","12:48:26","836278210","test","2","mask_prime_negative","118","8","67","0","1545","0","0"
"103019","12:48:26","836278210","test","2","prime_positive","119","8","67","0","100","0","0"
"103019","12:48:26","836278210","test","2","intention_check_positive","120","8","67","0","2500","0","0"
"103019","12:48:26","836278210","test","2","mask_prime_positive","121","5","61","0","764","0","0"
"103019","12:48:26","836278210","test","2","prime_negative","122","5","61","0","100","0","0"
"103019","12:48:26","836278210","test","2","intention_check_negative","123","5","61","0","2500","0","0"
"103019","12:48:26","836278210","test","2","mask_prime_negative","124","9","4","0","1518","0","0"
"103019","12:48:26","836278210","test","2","prime_negative","125","9","4","0","100","0","0"
"103019","12:48:26","836278210","test","2","intention_check_negative","126","9","4","1","1410","0","0"
"103019","12:48:26","836278210","test","2","mask_prime_negative","127","10","31","0","1240","0","0"
"103019","12:48:26","836278210","test","2","prime_negative","128","10","31","0","100","0","0"
"103019","12:48:26","836278210","test","2","intention_check_negative","129","10","31","1","1072","0","0"
"103019","12:48:26","836278210","test","2","mask_prime_negative","130","3","35","1","1263","0","0"
"103019","12:48:26","836278210","test","2","prime_positive","131","3","35","0","100","0","0"
"103019","12:48:26","836278210","test","2","intention_check_positive","132","3","35","0","2500","0","0"
"103019","12:48:26","836278210","test","2","mask_prime_positive","133","6","10","0","764","0","0"
"103019","12:48:26","836278210","test","2","prime_positive","134","6","10","0","100","0","0"
"103019","12:48:26","836278210","test","2","intention_check_positive","135","6","10","0","2500","0","0"
"103019","12:48:26","836278210","test","2","mask_prime_positive","136","8","32","1","750","0","0"
"103019","12:48:26","836278210","test","2","prime_positive","137","8","32","0","100","0","0"
"103019","12:48:26","836278210","test","2","intention_check_positive","138","8","32","0","2500","0","0"
"103019","12:48:26","836278210","test","2","mask_prime_positive","139","1","72","1","864","0","0"
"103019","12:48:26","836278210","test","2","prime_positive","140","1","72","0","100","0","0"
"103019","12:48:26","836278210","test","2","intention_check_positive","141","1","72","0","2500","0","0"
"103019","12:48:26","836278210","test","2","mask_prime_positive","142","12","19","1","797","0","0"
"103019","12:48:26","836278210","test","2","prime_negative","143","12","19","0","100","0","0"
"103019","12:48:26","836278210","test","2","intention_check_negative","144","12","19","0","2500","0","0"
"103019","12:48:26","836278210","test","2","mask_prime_negative","145","11","21","1","694","0","0"
"103019","12:48:26","836278210","test","2","prime_positive","146","11","21","0","100","0","0"
"103019","12:48:26","836278210","test","2","intention_check_positive","147","11","21","0","2500","0","0"
"103019","12:48:26","836278210","test","2","mask_prime_positive","148","4","63","0","1106","0","0"
"103019","12:48:26","836278210","test","2","prime_positive","149","4","63","0","100","0","0"
"103019","12:48:26","836278210","test","2","intention_check_positive","150","4","63","0","2500","0","0"
"103019","12:48:26","836278210","test","2","mask_prime_positive","151","2","34","0","862","0","0"
"103019","12:48:26","836278210","test","2","prime_positive","152","2","34","0","100","0","0"
"103019","12:48:26","836278210","test","2","intention_check_positive","153","2","34","0","2500","0","0"
"103019","12:48:26","836278210","test","2","mask_prime_positive","154","3","69","0","700","0","0"
"103019","12:48:26","836278210","test","2","prime_negative","155","3","69","0","100","0","0"
"103019","12:48:26","836278210","test","2","intention_check_negative","156","3","69","1","857","0","0"
"103019","12:48:26","836278210","test","2","mask_prime_negative","157","1","2","1","711","0","0"
"103019","12:48:26","836278210","test","2","prime_negative","158","1","2","0","100","0","0"
"103019","12:48:26","836278210","test","2","intention_check_negative","159","1","2","1","1340","0","0"
"103019","12:48:26","836278210","test","2","mask_prime_negative","160","4","5","1","1699","0","0"
"103019","12:48:26","836278210","test","2","prime_negative","161","4","5","0","100","0","0"
"103019","12:48:26","836278210","test","2","intention_check_negative","162","4","5","1","984","0","0"
"103019","12:48:26","836278210","test","2","mask_prime_negative","163","2","54","1","623","0","0"
"103019","12:48:26","836278210","test","2","prime_positive","164","2","54","0","100","0","0"
"103019","12:48:26","836278210","test","2","intention_check_positive","165","2","54","0","2500","0","0"
"103019","12:48:26","836278210","test","2","mask_prime_positive","166","5","47","1","1342","0","0"
"103019","12:48:26","836278210","test","2","prime_negative","167","5","47","0","100","0","0"
"103019","12:48:26","836278210","test","2","intention_check_negative","168","5","47","0","2500","0","0"
"103019","12:48:26","836278210","test","2","mask_prime_negative","169","5","24","1","656","0","0"
"103019","12:48:26","836278210","test","2","prime_positive","170","5","24","0","100","0","0"
"103019","12:48:26","836278210","test","2","intention_check_positive","171","5","24","0","2500","0","0"
"103019","12:48:26","836278210","test","2","mask_prime_positive","172","7","52","0","1934","0","0"
"103019","12:48:26","836278210","test","2","prime_negative","173","7","52","0","100","0","0"
"103019","12:48:26","836278210","test","2","intention_check_negative","174","7","52","0","2500","0","0"
"103019","12:48:26","836278210","test","2","mask_prime_negative","175","12","22","1","584","0","0"
"103019","12:48:26","836278210","test","2","prime_negative","176","12","22","0","100","0","0"
"103019","12:48:26","836278210","test","2","intention_check_negative","177","12","22","0","2500","0","0"
"103019","12:48:26","836278210","test","2","mask_prime_negative","178","6","44","0","968","0","0"
"103019","12:48:26","836278210","test","2","prime_negative","179","6","44","0","100","0","0"
"103019","12:48:26","836278210","test","2","intention_check_negative","180","6","44","0","2500","0","0"
"103019","12:48:26","836278210","test","2","mask_prime_negative","181","5","15","1","689","0","0"
"103019","12:48:26","836278210","test","2","prime_positive","182","5","15","0","100","0","0"
"103019","12:48:26","836278210","test","2","intention_check_positive","183","5","15","0","2500","0","0"
"103019","12:48:26","836278210","test","2","mask_prime_positive","184","10","26","1","654","0","0"
"103019","12:48:26","836278210","test","2","prime_positive","185","10","26","0","100","0","0"
"103019","12:48:26","836278210","test","2","intention_check_positive","186","10","26","0","2500","0","0"
"103019","12:48:26","836278210","test","2","mask_prime_positive","187","9","7","1","604","0","0"
"103019","12:48:26","836278210","test","2","prime_negative","188","9","7","0","100","0","0"
"103019","12:48:26","836278210","test","2","intention_check_negative","189","9","7","0","2500","0","0"
"103019","12:48:26","836278210","test","2","mask_prime_negative","190","12","9","1","547","0","0"
"103019","12:48:26","836278210","test","2","prime_negative","191","12","9","0","100","0","0"
"103019","12:48:26","836278210","test","2","intention_check_negative","192","12","9","1","1191","0","0"
"103019","12:48:26","836278210","test","2","mask_prime_negative","193","2","66","1","645","0","0"
"103019","12:48:26","836278210","test","2","prime_positive","194","2","66","0","100","0","0"
"103019","12:48:26","836278210","test","2","intention_check_positive","195","2","66","0","2500","0","0"
"103019","12:48:26","836278210","test","2","mask_prime_positive","196","11","52","1","620","0","0"
"103019","12:48:26","836278210","test","2","prime_positive","197","11","52","0","100","0","0"
"103019","12:48:26","836278210","test","2","intention_check_positive","198","11","52","0","2500","0","0"
"103019","12:48:26","836278210","test","2","mask_prime_positive","199","4","11","1","539","0","0"
"103019","12:48:26","836278210","test","2","prime_positive","200","4","11","0","100","0","0"
"103019","12:48:26","836278210","test","2","intention_check_positive","201","4","11","0","2500","0","0"
"103019","12:48:26","836278210","test","2","mask_prime_positive","202","6","50","1","861","0","0"
"103019","12:48:26","836278210","test","2","prime_positive","203","6","50","0","100","0","0"
"103019","12:48:26","836278210","test","2","intention_check_positive","204","6","50","0","2500","0","0"
"103019","12:48:26","836278210","test","2","mask_prime_positive","205","10","2","1","467","0","0"
"103019","12:48:26","836278210","test","2","prime_negative","206","10","2","0","100","0","0"
"103019","12:48:26","836278210","test","2","intention_check_negative","207","10","2","0","2500","0","0"
"103019","12:48:26","836278210","test","2","mask_prime_negative","208","11","53","0","776","0","0"
"103019","12:48:26","836278210","test","2","prime_negative","209","11","53","0","100","0","0"
"103019","12:48:26","836278210","test","2","intention_check_negative","210","11","53","0","2500","0","0"
"103019","12:48:26","836278210","test","2","mask_prime_negative","211","9","61","0","857","0","0"
"103019","12:48:26","836278210","test","2","prime_positive","212","9","61","0","100","0","0"
"103019","12:48:26","836278210","test","2","intention_check_positive","213","9","61","0","2500","0","0"
"103019","12:48:26","836278210","test","2","mask_prime_positive","214","2","8","1","935","0","0"
"103019","12:48:26","836278210","test","2","prime_positive","215","2","8","0","100","0","0"
"103019","12:48:26","836278210","test","2","intention_check_positive","216","2","8","0","2500","0","0"
"103019","12:48:26","836278210","test","2","mask_prime_positive","217","8","60","1","4497","0","0"
"103019","12:48:48","113583025","practice","1","prime_negative","3","0","0","0","101","0","0"
"103019","12:48:48","113583025","practice","1","intention_check_negative","4","0","0","0","2500","0","0"
"103019","12:48:48","113583025","practice","1","mask_prime_negative","5","9","24","1","4524","0","0"
"103019","12:48:48","113583025","practice","1","prime_positive","6","9","24","0","101","0","0"
"103019","12:48:48","113583025","practice","1","intention_check_positive","7","9","24","0","2500","0","0"
"103019","12:48:48","113583025","practice","1","mask_prime_positive","8","4","54","1","4073","0","0"
"103019","12:48:48","113583025","practice","1","prime_negative","9","4","54","0","101","0","0"
"103019","12:48:48","113583025","practice","1","intention_check_negative","10","4","54","0","2500","0","0"
"103019","12:48:48","113583025","practice","1","mask_prime_negative","11","4","49","1","3676","0","0"
"103019","12:48:48","113583025","practice","1","prime_positive","12","4","49","0","101","0","0"
"103019","12:48:48","113583025","practice","1","intention_check_positive","13","4","49","1","1578","0","0"
"103019","12:48:48","113583025","practice","1","mask_prime_positive","14","5","72","1","1727","0","0"
"103019","12:48:48","113583025","practice","1","prime_positive","15","5","72","0","101","0","0"
"103019","12:48:48","113583025","practice","1","intention_check_positive","16","5","72","0","2500","0","0"
