date,time,group,subject,build,blocknum,trialnum,blockcode,trialcode,pretrialpause,posttrialpause,windowcenter,trialduration,trialtimeout,blocktimeout,response,correct,latency,inwindow
071218,17:13:32,692271252,638642545,4.0.10.0,1,1,demographics,ProlificCode,0,0,0,0,0,0,5ad0422dfb109b0001a30f35,1,4760,0
071218,17:13:32,692271252,638642545,4.0.10.0,1,2,demographics,age,0,0,0,0,0,0,27,1,3693,0
071218,17:13:32,692271252,638642545,4.0.10.0,1,3,demographics,gender,0,0,0,0,0,0,female,1,3700,0
071218,13:14:52,144448834,812337667,4.0.10.0,1,1,demographics,ProlificCode,0,0,0,0,0,0,59be1fac3a9ab60001119c1a,1,2414,0
071218,13:14:52,144448834,812337667,4.0.10.0,1,2,demographics,age,0,0,0,0,0,0,23,1,1441,0
071218,13:14:52,144448834,812337667,4.0.10.0,1,3,demographics,gender,0,0,0,0,0,0,Male,1,2576,0
071218,17:13:59,894680509,914788834,4.0.10.0,1,1,demographics,ProlificCode,0,0,0,0,0,0,595c064a647a040001dd3432,1,19243,0
071218,17:13:59,894680509,914788834,4.0.10.0,1,2,demographics,age,0,0,0,0,0,0,32,1,3346,0
071218,17:13:59,894680509,914788834,4.0.10.0,1,3,demographics,gender,0,0,0,0,0,0,Female,1,5255,0
071318,02:14:15,520348156,394829856,4.0.10.0,1,1,demographics,ProlificCode,0,0,0,0,0,0,5ab4ad1d0527ba0001c1699c,1,8384,0
071318,02:14:15,520348156,394829856,4.0.10.0,1,2,demographics,age,0,0,0,0,0,0,43,1,2726,0
071318,02:14:15,520348156,394829856,4.0.10.0,1,3,demographics,gender,0,0,0,0,0,0,Male,1,4168,0
071218,09:13:46,465906317,591424609,4.0.10.0,1,1,demographics,ProlificCode,0,0,0,0,0,0, 5b152e16444cef0001cb0231,1,28108,0
071218,09:13:46,465906317,591424609,4.0.10.0,1,2,demographics,age,0,0,0,0,0,0,42,1,4438,0
071218,09:13:46,465906317,591424609,4.0.10.0,1,3,demographics,gender,0,0,0,0,0,0,Male,1,5731,0
071218,12:14:37,43018451,558262323,4.0.10.0,1,1,demographics,ProlificCode,0,0,0,0,0,0,5b1c9e3e44127b00013fe24d,1,16925,0
071218,12:14:37,43018451,558262323,4.0.10.0,1,2,demographics,age,0,0,0,0,0,0,24,1,2688,0
071218,12:14:37,43018451,558262323,4.0.10.0,1,3,demographics,gender,0,0,0,0,0,0,Female,1,2530,0
071218,17:13:43,859467744,913685378,4.0.10.0,1,1,demographics,ProlificCode,0,0,0,0,0,0,5b2b5bed34ffd00001b4d42e,1,73611,0
071218,17:13:43,859467744,913685378,4.0.10.0,1,2,demographics,age,0,0,0,0,0,0,31,1,3244,0
071218,17:13:43,859467744,913685378,4.0.10.0,1,3,demographics,gender,0,0,0,0,0,0,Female,1,10302,0
071218,17:15:31,382881248,26406307,4.0.10.0,1,1,demographics,ProlificCode,0,0,0,0,0,0,5a7d92e9527fd00001467fe4,1,3669,0
071218,17:15:31,382881248,26406307,4.0.10.0,1,2,demographics,age,0,0,0,0,0,0,26,1,5164,0
071218,17:15:31,382881248,26406307,4.0.10.0,1,3,demographics,gender,0,0,0,0,0,0,female,1,3329,0
071218,10:15:48,414818160,58343219,4.0.10.0,1,1,demographics,ProlificCode,0,0,0,0,0,0,56f55bc0736c79000c223b3d,1,3390,0
071218,10:15:48,414818160,58343219,4.0.10.0,1,2,demographics,age,0,0,0,0,0,0,30,1,2553,0
071218,10:15:48,414818160,58343219,4.0.10.0,1,3,demographics,gender,0,0,0,0,0,0,female,1,2990,0
071218,17:16:27,217793317,701662372,4.0.10.0,1,1,demographics,ProlificCode,0,0,0,0,0,0,5b25214be0ef0b00018577d3,1,17780,0
071218,17:16:27,217793317,701662372,4.0.10.0,1,2,demographics,age,0,0,0,0,0,0,20,1,3075,0
071218,17:16:27,217793317,701662372,4.0.10.0,1,3,demographics,gender,0,0,0,0,0,0,female,1,3358,0
071318,02:16:12,801769060,445294133,4.0.10.0,1,1,demographics,ProlificCode,0,0,0,0,0,0,5b2891e77f78160001465fe8 ,1,26575,0
071318,02:16:12,801769060,445294133,4.0.10.0,1,2,demographics,age,0,0,0,0,0,0,20,1,3271,0
071318,02:16:12,801769060,445294133,4.0.10.0,1,3,demographics,gender,0,0,0,0,0,0,Male,1,8746,0
071218,17:16:46,672295949,852060263,4.0.10.0,1,1,demographics,ProlificCode,0,0,0,0,0,0,572624fb0e21cd0010ce8941,1,7123,0
071218,17:16:46,672295949,852060263,4.0.10.0,1,2,demographics,age,0,0,0,0,0,0,60,1,6970,0
071218,17:16:46,672295949,852060263,4.0.10.0,1,3,demographics,gender,0,0,0,0,0,0,male,1,8582,0
071218,17:17:17,107099414,771002537,4.0.10.0,1,1,demographics,ProlificCode,0,0,0,0,0,0,5b27f6f496531a0001fd5324,1,3922,0
071218,17:17:17,107099414,771002537,4.0.10.0,1,2,demographics,age,0,0,0,0,0,0,33,1,2772,0
071218,17:17:17,107099414,771002537,4.0.10.0,1,3,demographics,gender,0,0,0,0,0,0,Female,1,3675,0
071218,17:13:37,185748229,542521283,4.0.10.0,1,1,demographics,ProlificCode,0,0,0,0,0,0,56815ef3c5767f00121d2088,1,17151,0
071218,17:13:37,185748229,542521283,4.0.10.0,1,2,demographics,age,0,0,0,0,0,0,20,1,2081,0
071218,17:13:37,185748229,542521283,4.0.10.0,1,3,demographics,gender,0,0,0,0,0,0,female,1,2767,0
071218,17:16:06,608582565,483064273,4.0.10.0,1,1,demographics,ProlificCode,0,0,0,0,0,0,59317c2cf1b3f00001963e1a,1,6460,0
071218,17:16:06,608582565,483064273,4.0.10.0,1,2,demographics,age,0,0,0,0,0,0,28,1,2995,0
071218,17:16:06,608582565,483064273,4.0.10.0,1,3,demographics,gender,0,0,0,0,0,0,female,1,4096,0
071218,17:18:08,687015995,866780310,4.0.10.0,1,1,demographics,ProlificCode,0,0,0,0,0,0,588e5054ca4f6700019cfc02,1,8376,0
071218,17:18:08,687015995,866780310,4.0.10.0,1,2,demographics,age,0,0,0,0,0,0,38,1,4856,0
071218,17:18:08,687015995,866780310,4.0.10.0,1,3,demographics,gender,0,0,0,0,0,0,female,1,8430,0
071218,12:18:47,387964086,262445782,4.0.10.0,1,1,demographics,ProlificCode,0,0,0,0,0,0,5ac7d15fe1546900019c1fac,1,5789,0
071218,12:18:47,387964086,262445782,4.0.10.0,1,2,demographics,age,0,0,0,0,0,0,29,1,2654,0
071218,12:18:47,387964086,262445782,4.0.10.0,1,3,demographics,gender,0,0,0,0,0,0,Male,1,3063,0
071218,12:19:45,348884913,223366611,4.0.10.0,1,1,demographics,ProlificCode,0,0,0,0,0,0,58effc65c31d4d00015aa5b9,1,15930,0
071218,12:19:45,348884913,223366611,4.0.10.0,1,2,demographics,age,0,0,0,0,0,0,44,1,6280,0
071218,12:19:45,348884913,223366611,4.0.10.0,1,3,demographics,gender,0,0,0,0,0,0,female,1,4422,0
071218,17:19:58,9095154,957902800,4.0.10.0,1,1,demographics,ProlificCode,0,0,0,0,0,0,,1,42448,0
071218,17:20:54,753836367,397361440,4.0.10.0,1,1,demographics,ProlificCode,0,0,0,0,0,0,5aeafeeaf68b9a0001af372b,1,26050,0
071218,17:20:54,753836367,397361440,4.0.10.0,1,2,demographics,age,0,0,0,0,0,0,43,1,3814,0
071218,17:20:54,753836367,397361440,4.0.10.0,1,3,demographics,gender,0,0,0,0,0,0,Male,1,5476,0
071218,17:21:15,9095154,957902800,4.0.10.0,1,1,demographics,ProlificCode,0,0,0,0,0,0,5a53bb6376d1c60001aac0fb,1,3253,0
071218,17:21:15,9095154,957902800,4.0.10.0,1,2,demographics,age,0,0,0,0,0,0,38,1,4786,0
071218,17:21:15,9095154,957902800,4.0.10.0,1,3,demographics,gender,0,0,0,0,0,0,female,1,5784,0
071218,12:21:09,873144905,661998462,4.0.10.0,1,1,demographics,ProlificCode,0,0,0,0,0,0,5b286187a776110001b1f551,1,23062,0
071218,12:21:09,873144905,661998462,4.0.10.0,1,2,demographics,age,0,0,0,0,0,0,28,1,4046,0
071218,12:21:09,873144905,661998462,4.0.10.0,1,3,demographics,gender,0,0,0,0,0,0,Female,1,6154,0
071218,17:21:48,141991241,394903654,4.0.10.0,1,1,demographics,ProlificCode,0,0,0,0,0,0,59f4ed50680a95000122adfb,1,4959,0
071218,17:21:48,141991241,394903654,4.0.10.0,1,2,demographics,age,0,0,0,0,0,0,18,1,3034,0
071218,17:21:48,141991241,394903654,4.0.10.0,1,3,demographics,gender,0,0,0,0,0,0,male,1,3534,0
071218,11:22:45,69400800,963962438,4.0.10.0,1,1,demographics,ProlificCode,0,0,0,0,0,0,5b28c2a5e0183700019e12e1,1,11067,0
071218,11:22:45,69400800,963962438,4.0.10.0,1,2,demographics,age,0,0,0,0,0,0,18,1,3945,0
071218,11:22:45,69400800,963962438,4.0.10.0,1,3,demographics,gender,0,0,0,0,0,0,M,1,3723,0
071218,17:26:44,242838992,117320685,4.0.10.0,1,1,demographics,ProlificCode,0,0,0,0,0,0,57725d2dd8e8880001b2fb13,1,6063,0
071218,17:26:44,242838992,117320685,4.0.10.0,1,2,demographics,age,0,0,0,0,0,0,43,1,3589,0
071218,17:26:44,242838992,117320685,4.0.10.0,1,3,demographics,gender,0,0,0,0,0,0,female,1,9154,0
071218,17:22:56,414968725,204120402,4.0.10.0,1,1,demographics,ProlificCode,0,0,0,0,0,0,5a149085df3fa800015c47b1,1,21734,0
071218,17:22:56,414968725,204120402,4.0.10.0,1,2,demographics,age,0,0,0,0,0,0,29,1,6022,0
071218,17:22:56,414968725,204120402,4.0.10.0,1,3,demographics,gender,0,0,0,0,0,0,female,1,8589,0
071218,12:29:40,226973181,94734650,4.0.10.0,1,1,demographics,ProlificCode,0,0,0,0,0,0,57659aaa7805730001ecfc7e,1,10838,0
071218,12:29:40,226973181,94734650,4.0.10.0,1,2,demographics,age,0,0,0,0,0,0,28,1,3221,0
071218,12:29:40,226973181,94734650,4.0.10.0,1,3,demographics,gender,0,0,0,0,0,0,male,1,4007,0
071218,10:25:15,994042380,861803864,4.0.10.0,1,1,demographics,ProlificCode,0,0,0,0,0,0,5adfcfaecd58990001e4bc84,1,3694,0
071218,10:25:15,994042380,861803864,4.0.10.0,1,2,demographics,age,0,0,0,0,0,0,47,1,3616,0
071218,10:25:15,994042380,861803864,4.0.10.0,1,3,demographics,gender,0,0,0,0,0,0,female,1,3524,0
071218,12:25:38,489047305,899768245,4.0.10.0,1,1,demographics,ProlificCode,0,0,0,0,0,0,5b180d87db971600013d34db,1,4001,0
071218,12:25:38,489047305,899768245,4.0.10.0,1,2,demographics,age,0,0,0,0,0,0,25,1,3279,0
071218,12:25:38,489047305,899768245,4.0.10.0,1,3,demographics,gender,0,0,0,0,0,0,Male,1,3577,0
071218,17:25:50,15990936,835928491,4.0.10.0,1,1,demographics,ProlificCode,0,0,0,0,0,0,5aeafeeaf68b9a0001af372b,1,3728,0
071218,17:25:50,15990936,835928491,4.0.10.0,1,2,demographics,age,0,0,0,0,0,0,43,1,3240,0
071218,17:25:50,15990936,835928491,4.0.10.0,1,3,demographics,gender,0,0,0,0,0,0,Male,1,3837,0
071218,12:25:41,330635914,429354031,4.0.10.0,1,1,demographics,ProlificCode,0,0,0,0,0,0,5b18a8bd68a5ed0001734a38,1,21395,0
071218,12:25:41,330635914,429354031,4.0.10.0,1,2,demographics,age,0,0,0,0,0,0,29,1,3739,0
071218,12:25:41,330635914,429354031,4.0.10.0,1,3,demographics,gender,0,0,0,0,0,0,Male,1,4030,0
071218,12:28:28,957378853,313555679,4.0.10.0,1,1,demographics,ProlificCode,0,0,0,0,0,0,,1,29386,0
071218,12:29:39,957378853,313555679,4.0.10.0,1,1,demographics,ProlificCode,0,0,0,0,0,0,5a6daefce70ca900017ade78,1,6244,0
071218,12:29:39,957378853,313555679,4.0.10.0,1,2,demographics,age,0,0,0,0,0,0,61,1,6397,0
071218,12:29:39,957378853,313555679,4.0.10.0,1,3,demographics,gender,0,0,0,0,0,0,Female,1,7155,0
071218,17:30:10,196358035,75712481,4.0.10.0,1,1,demographics,ProlificCode,0,0,0,0,0,0,597e0aa515837000016ae8db,1,5272,0
071218,17:30:10,196358035,75712481,4.0.10.0,1,2,demographics,age,0,0,0,0,0,0,59,1,6160,0
071218,17:30:10,196358035,75712481,4.0.10.0,1,3,demographics,gender,0,0,0,0,0,0,female,1,8212,0
071218,17:32:26,81148714,875173135,4.0.10.0,1,1,demographics,ProlificCode,0,0,0,0,0,0,5ae735bef1ad3f00012b16e7,1,4079,0
071218,17:32:26,81148714,875173135,4.0.10.0,1,2,demographics,age,0,0,0,0,0,0,23,1,3149,0
071218,17:32:26,81148714,875173135,4.0.10.0,1,3,demographics,gender,0,0,0,0,0,0,female,1,5616,0
071218,17:30:36,906369043,262843992,4.0.10.0,1,1,demographics,ProlificCode,0,0,0,0,0,0,5adf170beb604000015393f7,1,8229,0
071218,17:30:36,906369043,262843992,4.0.10.0,1,2,demographics,age,0,0,0,0,0,0,19,1,3172,0
071218,17:30:36,906369043,262843992,4.0.10.0,1,3,demographics,gender,0,0,0,0,0,0,male,1,4382,0
071218,17:30:41,830194433,928614438,4.0.10.0,1,1,demographics,ProlificCode,0,0,0,0,0,0,57f73fdb8079d200017d7af6,1,3867,0
071218,17:30:41,830194433,928614438,4.0.10.0,1,2,demographics,age,0,0,0,0,0,0,45,1,2935,0
071218,17:30:41,830194433,928614438,4.0.10.0,1,3,demographics,gender,0,0,0,0,0,0,Male,1,3370,0
071218,12:31:00,996701683,47894036,4.0.10.0,1,1,demographics,ProlificCode,0,0,0,0,0,0,5847399f75d2b20001fd446f,1,8839,0
071218,12:31:00,996701683,47894036,4.0.10.0,1,2,demographics,age,0,0,0,0,0,0,42,1,3355,0
071218,12:31:00,996701683,47894036,4.0.10.0,1,3,demographics,gender,0,0,0,0,0,0,male,1,4323,0
071218,09:24:20,425601030,477382281,4.0.10.0,1,1,demographics,ProlificCode,0,0,0,0,0,0,5b0305430a353f000159d406,1,41937,0
071218,09:24:20,425601030,477382281,4.0.10.0,1,2,demographics,age,0,0,0,0,0,0,45,1,2449,0
071218,09:24:20,425601030,477382281,4.0.10.0,1,3,demographics,gender,0,0,0,0,0,0,,1,379108,0
071218,17:31:32,571674148,385189625,4.0.10.0,1,1,demographics,ProlificCode,0,0,0,0,0,0,5a6f4f3c9cdcf6000193e06f,1,5169,0
071218,17:31:32,571674148,385189625,4.0.10.0,1,2,demographics,age,0,0,0,0,0,0,55,1,3176,0
071218,17:31:32,571674148,385189625,4.0.10.0,1,3,demographics,gender,0,0,0,0,0,0,Female,1,5607,0
071218,18:31:32,48990701,2671117,4.0.10.0,1,1,demographics,ProlificCode,0,0,0,0,0,0,59977f4205a0e30001f1fedf,1,3332,0
071218,18:31:32,48990701,2671117,4.0.10.0,1,2,demographics,age,0,0,0,0,0,0,26,1,3861,0
071218,18:31:32,48990701,2671117,4.0.10.0,1,3,demographics,gender,0,0,0,0,0,0,female,1,5690,0
071218,17:31:22,179167063,363804110,4.0.10.0,1,1,demographics,ProlificCode,0,0,0,0,0,0,5987030cfd8cca,1,59224,0
071218,12:32:33,154636733,108317138,4.0.10.0,1,1,demographics,ProlificCode,0,0,0,0,0,0,5aea85ab831584000180a1f6@email.prolific.ac,1,5597,0
071218,12:32:33,154636733,108317138,4.0.10.0,1,2,demographics,age,0,0,0,0,0,0,30,1,3653,0
071218,12:32:33,154636733,108317138,4.0.10.0,1,3,demographics,gender,0,0,0,0,0,0,Male,1,3354,0
071218,17:32:42,140656213,327140720,4.0.10.0,1,1,demographics,ProlificCode,0,0,0,0,0,0,5987030cfd8cca00015cbc26,1,4181,0
071218,17:32:42,140656213,327140720,4.0.10.0,1,2,demographics,age,0,0,0,0,0,0,54,1,4627,0
071218,17:32:42,140656213,327140720,4.0.10.0,1,3,demographics,gender,0,0,0,0,0,0,Female,1,5439,0
071218,17:33:09,823502536,545637406,4.0.10.0,1,1,demographics,ProlificCode,0,0,0,0,0,0,5aeaba90ba2926000102f62c,1,18483,0
071218,17:33:09,823502536,545637406,4.0.10.0,1,2,demographics,age,0,0,0,0,0,0,28,1,3226,0
071218,17:33:09,823502536,545637406,4.0.10.0,1,3,demographics,gender,0,0,0,0,0,0,male,1,3170,0
071218,17:33:54,415998661,853519774,4.0.10.0,1,1,demographics,ProlificCode,0,0,0,0,0,0,5a54b5b48e62590001759953,1,3853,0
071218,17:33:54,415998661,853519774,4.0.10.0,1,2,demographics,age,0,0,0,0,0,0,45,1,2603,0
071218,17:33:54,415998661,853519774,4.0.10.0,1,3,demographics,gender,0,0,0,0,0,0,female,1,4427,0
071218,17:35:02,421197261,858718373,4.0.10.0,1,1,demographics,ProlificCode,0,0,0,0,0,0,599489368acf1e0001597065,1,6454,0
071218,17:35:02,421197261,858718373,4.0.10.0,1,2,demographics,age,0,0,0,0,0,0,39,1,5488,0
071218,17:35:02,421197261,858718373,4.0.10.0,1,3,demographics,gender,0,0,0,0,0,0,female,1,6166,0
071218,17:36:36,557971777,584800320,4.0.10.0,1,1,demographics,ProlificCode,0,0,0,0,0,0,5b12f22cc85dc40001622abb,1,17393,0
071218,17:36:36,557971777,584800320,4.0.10.0,1,2,demographics,age,0,0,0,0,0,0,29,1,3592,0
071218,17:36:36,557971777,584800320,4.0.10.0,1,3,demographics,gender,0,0,0,0,0,0,Female,1,3941,0
071218,17:36:51,58194634,854655436,4.0.10.0,1,1,demographics,ProlificCode,0,0,0,0,0,0,5698045b8d9be6000a879f95,1,4788,0
071218,17:36:51,58194634,854655436,4.0.10.0,1,2,demographics,age,0,0,0,0,0,0,42,1,2454,0
071218,17:36:51,58194634,854655436,4.0.10.0,1,3,demographics,gender,0,0,0,0,0,0,female,1,5372,0
071218,17:39:05,252602671,127084362,4.0.10.0,1,1,demographics,ProlificCode,0,0,0,0,0,0,5995e41ecf1d1700016efc01,1,6208,0
071218,17:39:05,252602671,127084362,4.0.10.0,1,2,demographics,age,0,0,0,0,0,0,38,1,3934,0
071218,17:39:05,252602671,127084362,4.0.10.0,1,3,demographics,gender,0,0,0,0,0,0,female,1,5833,0
071218,11:39:26,761856920,93379167,4.0.10.0,1,1,demographics,ProlificCode,0,0,0,0,0,0,5b035ba7293d310001026678,1,27990,0
071218,11:39:26,761856920,93379167,4.0.10.0,1,2,demographics,age,0,0,0,0,0,0,20,1,3259,0
071218,11:39:26,761856920,93379167,4.0.10.0,1,3,demographics,gender,0,0,0,0,0,0,Female,1,7341,0
071218,09:42:30,975149446,185997782,4.0.10.0,1,1,demographics,ProlificCode,0,0,0,0,0,0,,1,16158,0
071218,09:43:08,975149446,185997782,4.0.10.0,1,1,demographics,ProlificCode,0,0,0,0,0,0,5a2b6990a3a51200019584ca,1,3962,0
071218,09:43:08,975149446,185997782,4.0.10.0,1,2,demographics,age,0,0,0,0,0,0,27,1,5246,0
071218,09:43:08,975149446,185997782,4.0.10.0,1,3,demographics,gender,0,0,0,0,0,0,female,1,5124,0
071218,10:46:42,262749097,161885371,4.0.10.0,1,1,demographics,ProlificCode,0,0,0,0,0,0,55b8113efdf99b4633359b7b,1,5560,0
071218,10:46:42,262749097,161885371,4.0.10.0,1,2,demographics,age,0,0,0,0,0,0,29,1,2682,0
071218,10:46:42,262749097,161885371,4.0.10.0,1,3,demographics,gender,0,0,0,0,0,0,male,1,2667,0
071218,17:46:49,336511343,930365004,4.0.10.0,1,1,demographics,ProlificCode,0,0,0,0,0,0,,1,22952,0
071218,17:47:00,463383243,57535045,4.0.10.0,1,1,demographics,ProlificCode,0,0,0,0,0,0,572915440802f2000e3f1afe,1,10227,0
071218,17:47:00,463383243,57535045,4.0.10.0,1,2,demographics,age,0,0,0,0,0,0,62,1,3757,0
071218,17:47:00,463383243,57535045,4.0.10.0,1,3,demographics,gender,0,0,0,0,0,0,Male,1,4302,0
071218,17:47:36,336511343,930365004,4.0.10.0,1,1,demographics,ProlificCode,0,0,0,0,0,0,56a7da16c89737000b22953c,1,5319,0
071218,17:47:36,336511343,930365004,4.0.10.0,1,2,demographics,age,0,0,0,0,0,0,55,1,2727,0
071218,17:47:36,336511343,930365004,4.0.10.0,1,3,demographics,gender,0,0,0,0,0,0,female,1,4231,0
071218,12:48:46,771829425,892474971,4.0.10.0,1,1,demographics,ProlificCode,0,0,0,0,0,0,5adce337066c510001d41804,1,5718,0
071218,12:48:46,771829425,892474971,4.0.10.0,1,2,demographics,age,0,0,0,0,0,0,42,1,3451,0
071218,12:48:46,771829425,892474971,4.0.10.0,1,3,demographics,gender,0,0,0,0,0,0,Female,1,7081,0
071218,17:48:33,658242651,709744420,4.0.10.0,1,1,demographics,ProlificCode,0,0,0,0,0,0,5b2aa3dbc293b900017330cd,1,39683,0
071218,17:48:33,658242651,709744420,4.0.10.0,1,2,demographics,age,0,0,0,0,0,0,26,1,4952,0
071218,17:48:33,658242651,709744420,4.0.10.0,1,3,demographics,gender,0,0,0,0,0,0,M,1,2629,0
071218,17:49:40,463383243,57535045,4.0.10.0,1,1,demographics,ProlificCode,0,0,0,0,0,0,572915440802f2000e3f1afe,1,7039,0
071218,17:49:40,463383243,57535045,4.0.10.0,1,2,demographics,age,0,0,0,0,0,0,62,1,6324,0
071218,17:49:40,463383243,57535045,4.0.10.0,1,3,demographics,gender,0,0,0,0,0,0,Male,1,4609,0
071218,17:57:24,762920572,664202456,4.0.10.0,1,1,demographics,ProlificCode,0,0,0,0,0,0,5b1d7984aaaa8500012565c4,1,14898,0
071218,17:57:24,762920572,664202456,4.0.10.0,1,2,demographics,age,0,0,0,0,0,0,51,1,6758,0
071218,17:57:24,762920572,664202456,4.0.10.0,1,3,demographics,gender,0,0,0,0,0,0,female,1,13263,0
071218,13:00:55,924525077,823370571,4.0.10.0,1,1,demographics,ProlificCode,0,0,0,0,0,0,5ac2a84e5cd10500016219e9,1,15552,0
071218,13:00:55,924525077,823370571,4.0.10.0,1,2,demographics,age,0,0,0,0,0,0,18,1,2472,0
071218,13:00:55,924525077,823370571,4.0.10.0,1,3,demographics,gender,0,0,0,0,0,0,Female,1,3213,0
071218,13:01:31,55870968,266719282,4.0.10.0,1,1,demographics,ProlificCode,0,0,0,0,0,0,5aea99fcd9f2be0001933d5a,1,5178,0
071218,13:01:31,55870968,266719282,4.0.10.0,1,2,demographics,age,0,0,0,0,0,0,43,1,2983,0
071218,13:01:31,55870968,266719282,4.0.10.0,1,3,demographics,gender,0,0,0,0,0,0,male,1,3677,0
071218,18:02:21,153620103,642361916,4.0.10.0,1,1,demographics,ProlificCode,0,0,0,0,0,0,5ae587a358af2400010a3e56,1,11031,0
071218,18:02:21,153620103,642361916,4.0.10.0,1,2,demographics,age,0,0,0,0,0,0,43,1,5595,0
071218,18:02:21,153620103,642361916,4.0.10.0,1,3,demographics,gender,0,0,0,0,0,0,male,1,5649,0
071218,12:06:41,592649369,339148027,4.0.10.0,1,1,demographics,ProlificCode,0,0,0,0,0,0,5b2299f731d0080001ba048b,1,50688,0
071218,12:06:41,592649369,339148027,4.0.10.0,1,2,demographics,age,0,0,0,0,0,0,28,1,5815,0
071218,12:06:41,592649369,339148027,4.0.10.0,1,3,demographics,gender,0,0,0,0,0,0,female,1,4318,0
071218,18:16:47,343713316,773925284,4.0.10.0,1,1,demographics,ProlificCode,0,0,0,0,0,0,5a1ab0577542890001aa7fc1,1,6106,0
071218,18:16:47,343713316,773925284,4.0.10.0,1,2,demographics,age,0,0,0,0,0,0,56,1,5464,0
071218,18:16:47,343713316,773925284,4.0.10.0,1,3,demographics,gender,0,0,0,0,0,0,female,1,5863,0
071218,10:17:09,471146881,808130772,4.0.10.0,1,1,demographics,ProlificCode,0,0,0,0,0,0,5b0739faa84dcf0001bef230,1,19216,0
071218,10:17:09,471146881,808130772,4.0.10.0,1,2,demographics,age,0,0,0,0,0,0,44,1,3788,0
071218,10:17:09,471146881,808130772,4.0.10.0,1,3,demographics,gender,0,0,0,0,0,0,male,1,11119,0
071218,13:18:07,20859812,451071792,4.0.10.0,1,1,demographics,ProlificCode,0,0,0,0,0,0,5b20299854eabf00013e6f3e,1,6634,0
071218,13:18:07,20859812,451071792,4.0.10.0,1,2,demographics,age,0,0,0,0,0,0,27,1,4830,0
071218,13:18:07,20859812,451071792,4.0.10.0,1,3,demographics,gender,0,0,0,0,0,0,Female,1,5660,0
071218,18:32:07,125567296,152984742,4.0.10.0,1,1,demographics,ProlificCode,0,0,0,0,0,0,5996f68a9039240001432124,1,3962,0
071218,18:32:07,125567296,152984742,4.0.10.0,1,2,demographics,age,0,0,0,0,0,0,30,1,3220,0
071218,18:32:07,125567296,152984742,4.0.10.0,1,3,demographics,gender,0,0,0,0,0,0,female,1,3812,0
071218,10:31:58,553994642,429065259,4.0.10.0,1,1,demographics,ProlificCode,0,0,0,0,0,0,,1,51115,0
071218,13:33:21,379194905,246956380,4.0.10.0,1,1,demographics,ProlificCode,0,0,0,0,0,0,58eeb055f4ce600001016048,1,19284,0
071218,13:33:21,379194905,246956380,4.0.10.0,1,2,demographics,age,0,0,0,0,0,0,34,1,5091,0
071218,13:33:21,379194905,246956380,4.0.10.0,1,3,demographics,gender,0,0,0,0,0,0,male,1,3137,0
071218,20:49:19,387456815,572093872,4.0.10.0,1,1,demographics,ProlificCode,0,0,0,0,0,0,5ac82835e734400001da5602,1,194875,0
071218,20:49:19,387456815,572093872,4.0.10.0,1,2,demographics,age,0,0,0,0,0,0,53,1,5684,0
071218,20:49:19,387456815,572093872,4.0.10.0,1,3,demographics,gender,0,0,0,0,0,0,female,1,7361,0
071318,04:12:47,682513415,561569758,4.0.10.0,1,1,demographics,ProlificCode,0,0,0,0,0,0,5b245c2e007d870001c7915f,1,2881,0
071318,04:12:47,682513415,561569758,4.0.10.0,1,2,demographics,age,0,0,0,0,0,0,18,1,3203,0
071318,04:12:47,682513415,561569758,4.0.10.0,1,3,demographics,gender,0,0,0,0,0,0,Male,1,3977,0
071318,09:13:26,94426121,762314955,4.0.10.0,1,1,demographics,ProlificCode,0,0,0,0,0,0,55c495d2fdf99b2dcabb691,1,42144,0
071318,09:13:26,94426121,762314955,4.0.10.0,1,2,demographics,age,0,0,0,0,0,0,22,1,2846,0
071318,09:13:26,94426121,762314955,4.0.10.0,1,3,demographics,gender,0,0,0,0,0,0,female,1,4231,0
071318,09:13:56,322767391,143003079,4.0.10.0,1,1,demographics,ProlificCode,0,0,0,0,0,0,5a7871aeb093f80001a75e5c,1,11573,0
071318,09:13:56,322767391,143003079,4.0.10.0,1,2,demographics,age,0,0,0,0,0,0,27,1,3578,0
071318,09:13:56,322767391,143003079,4.0.10.0,1,3,demographics,gender,0,0,0,0,0,0,Female,1,6647,0
071318,09:14:47,693500637,201733516,4.0.10.0,1,1,demographics,ProlificCode,0,0,0,0,0,0,5981788bcbaa2900016d50d4,1,6232,0
071318,09:14:47,693500637,201733516,4.0.10.0,1,2,demographics,age,0,0,0,0,0,0,39,1,3452,0
071318,09:14:47,693500637,201733516,4.0.10.0,1,3,demographics,gender,0,0,0,0,0,0,male,1,5104,0
071318,09:14:34,211753514,774232367,4.0.10.0,1,1,demographics,ProlificCode,0,0,0,0,0,0,5b1d42f2c9d3cb0001104afd ,1,78477,0
071318,09:14:34,211753514,774232367,4.0.10.0,1,2,demographics,age,0,0,0,0,0,0,46,1,5926,0
071318,09:14:34,211753514,774232367,4.0.10.0,1,3,demographics,gender,0,0,0,0,0,0,Female,1,4293,0
071318,09:13:56,499668086,684305139,4.0.10.0,1,1,demographics,ProlificCode,0,0,0,0,0,0,   5a0d302d7542890001aa716a,1,189123,0
071318,04:25:09,324910183,145145870,4.0.10.0,1,1,demographics,ProlificCode,0,0,0,0,0,0,570b7f8fb9b52b00102d9723,1,11015,0
071318,04:25:09,324910183,145145870,4.0.10.0,1,2,demographics,age,0,0,0,0,0,0,49,1,9001,0
071318,04:25:09,324910183,145145870,4.0.10.0,1,3,demographics,gender,0,0,0,0,0,0,female,1,17607,0
071318,11:00:39,122269793,485464938,4.0.10.0,1,1,demographics,ProlificCode,0,0,0,0,0,0,59bba6a60ac77f0001f053ba,1,25316,0
071318,11:00:39,122269793,485464938,4.0.10.0,1,2,demographics,age,0,0,0,0,0,0,35,1,4307,0
071318,11:00:39,122269793,485464938,4.0.10.0,1,3,demographics,gender,0,0,0,0,0,0,famele,1,7156,0
071318,10:03:31,884149673,857321127,4.0.10.0,1,1,demographics,ProlificCode,0,0,0,0,0,0,5b0fe50f444cef0001caa108,1,5105,0
071318,10:03:31,884149673,857321127,4.0.10.0,1,2,demographics,age,0,0,0,0,0,0,33,1,6153,0
071318,10:03:31,884149673,857321127,4.0.10.0,1,3,demographics,gender,0,0,0,0,0,0,female,1,6462,0
071318,11:01:09,601663890,93431029,4.0.10.0,1,1,demographics,ProlificCode,0,0,0,0,0,0,57fb76a8bd8a970001fde35d,1,12200,0
071318,11:01:09,601663890,93431029,4.0.10.0,1,2,demographics,age,0,0,0,0,0,0,36,1,3174,0
071318,11:01:09,601663890,93431029,4.0.10.0,1,3,demographics,gender,0,0,0,0,0,0,female,1,5924,0
071318,11:25:29,542721708,960162870,4.0.10.0,1,1,demographics,ProlificCode,0,0,0,0,0,0,5a3eb14c817d1800018d05e8,1,9365,0
071318,11:25:29,542721708,960162870,4.0.10.0,1,2,demographics,age,0,0,0,0,0,0,27,1,3603,0
071318,11:25:29,542721708,960162870,4.0.10.0,1,3,demographics,gender,0,0,0,0,0,0,female,1,3657,0
071318,13:59:49,223472318,250889764,4.0.10.0,1,1,demographics,ProlificCode,0,0,0,0,0,0,5acfdb527677430001c8f1e9,1,13716,0
071318,13:59:49,223472318,250889764,4.0.10.0,1,2,demographics,age,0,0,0,0,0,0,20,1,2803,0
071318,13:59:49,223472318,250889764,4.0.10.0,1,3,demographics,gender,0,0,0,0,0,0,Female,1,4153,0
071318,13:56:59,403367574,887825549,4.0.10.0,1,1,demographics,ProlificCode,0,0,0,0,0,0,5af5c6a850008e00018b3441,1,5449,0
071318,13:56:59,403367574,887825549,4.0.10.0,1,2,demographics,age,0,0,0,0,0,0,20,1,2757,0
071318,13:56:59,403367574,887825549,4.0.10.0,1,3,demographics,gender,0,0,0,0,0,0,Male,1,2247,0
071318,13:56:51,658840024,759994530,4.0.10.0,1,1,demographics,ProlificCode,0,0,0,0,0,0,5a4931a81ba496000102b321,1,13711,0
071318,13:56:51,658840024,759994530,4.0.10.0,1,2,demographics,age,0,0,0,0,0,0,20,1,4683,0
071318,13:56:51,658840024,759994530,4.0.10.0,1,3,demographics,gender,0,0,0,0,0,0,Female,1,6281,0
071318,13:57:14,407951283,892409260,4.0.10.0,1,1,demographics,ProlificCode,0,0,0,0,0,0,58bebf658c2fd60001b9767a,1,3373,0
071318,13:57:14,407951283,892409260,4.0.10.0,1,2,demographics,age,0,0,0,0,0,0,39,1,4009,0
071318,13:57:14,407951283,892409260,4.0.10.0,1,3,demographics,gender,0,0,0,0,0,0,male,1,5419,0
071318,13:57:18,600709361,779884746,4.0.10.0,1,1,demographics,ProlificCode,0,0,0,0,0,0,5af4af9d48ecff0001353b99,1,11090,0
071318,13:57:18,600709361,779884746,4.0.10.0,1,2,demographics,age,0,0,0,0,0,0,19,1,3203,0
071318,13:57:18,600709361,779884746,4.0.10.0,1,3,demographics,gender,0,0,0,0,0,0,Male,1,4384,0
071318,14:57:53,957886621,984715165,4.0.10.0,1,1,demographics,ProlificCode,0,0,0,0,0,0,598b108e504c5200011964a1,1,5217,0
071318,14:57:53,957886621,984715165,4.0.10.0,1,2,demographics,age,0,0,0,0,0,0,32,1,2966,0
071318,14:57:53,957886621,984715165,4.0.10.0,1,3,demographics,gender,0,0,0,0,0,0,Female,1,3148,0
071318,13:58:17,403367574,887825549,4.0.10.0,1,1,demographics,ProlificCode,0,0,0,0,0,0,5af5c6a850008e00018b3441,1,2443,0
071318,13:58:17,403367574,887825549,4.0.10.0,1,2,demographics,age,0,0,0,0,0,0,20,1,4150,0
071318,13:58:17,403367574,887825549,4.0.10.0,1,3,demographics,gender,0,0,0,0,0,0,male,1,2335,0
071318,13:58:22,845612815,946767322,4.0.10.0,1,1,demographics,ProlificCode,0,0,0,0,0,0,59874b634875a80001c9a2fc,1,8450,0
071318,13:58:22,845612815,946767322,4.0.10.0,1,2,demographics,age,0,0,0,0,0,0,39 ,1,7985,0
071318,13:58:22,845612815,946767322,4.0.10.0,1,3,demographics,gender,0,0,0,0,0,0,Female,1,9374,0
071318,08:58:18,765762048,97873212,4.0.10.0,1,1,demographics,ProlificCode,0,0,0,0,0,0,5a7db51c2a842c0001fc7657,1,21336,0
071318,08:58:18,765762048,97873212,4.0.10.0,1,2,demographics,age,0,0,0,0,0,0,19,1,3715,0
071318,08:58:18,765762048,97873212,4.0.10.0,1,3,demographics,gender,0,0,0,0,0,0,Female,1,4930,0
071318,13:57:51,804193163,526328031,4.0.10.0,1,1,demographics,ProlificCode,0,0,0,0,0,0,5b27b81293707800011eabdd,1,55793,0
071318,13:57:51,804193163,526328031,4.0.10.0,1,2,demographics,age,0,0,0,0,0,0,39,1,2882,0
071318,13:57:51,804193163,526328031,4.0.10.0,1,3,demographics,gender,0,0,0,0,0,0,female,1,3756,0
071318,13:58:36,803469143,599341053,4.0.10.0,1,1,demographics,ProlificCode,0,0,0,0,0,0,5ad35bcdfb109b0001a32b20,1,12433,0
071318,13:58:36,803469143,599341053,4.0.10.0,1,2,demographics,age,0,0,0,0,0,0,44,1,3728,0
071318,13:58:36,803469143,599341053,4.0.10.0,1,3,demographics,gender,0,0,0,0,0,0,male,1,3032,0
071318,08:59:02,599176622,157371667,4.0.10.0,1,1,demographics,ProlificCode,0,0,0,0,0,0,59c10e885c50560001df9302,1,15948,0
071318,08:59:02,599176622,157371667,4.0.10.0,1,2,demographics,age,0,0,0,0,0,0,33,1,4187,0
071318,08:59:02,599176622,157371667,4.0.10.0,1,3,demographics,gender,0,0,0,0,0,0,male,1,7495,0
071318,14:00:40,407951283,892409260,4.0.10.0,1,1,demographics,ProlificCode,0,0,0,0,0,0,58bebf658c2fd60001b9767a,1,4077,0
071318,14:00:40,407951283,892409260,4.0.10.0,1,2,demographics,age,0,0,0,0,0,0,39,1,3779,0
071318,14:00:40,407951283,892409260,4.0.10.0,1,3,demographics,gender,0,0,0,0,0,0,male,1,7118,0
071318,14:04:38,553957922,349829824,4.0.10.0,1,1,demographics,ProlificCode,0,0,0,0,0,0,57160a57cd6ea20011dae249,1,2310,0
071318,14:04:38,553957922,349829824,4.0.10.0,1,2,demographics,age,0,0,0,0,0,0,29,1,3385,0
071318,14:04:38,553957922,349829824,4.0.10.0,1,3,demographics,gender,0,0,0,0,0,0,male,1,2459,0
071318,09:04:38,765762048,97873212,4.0.10.0,1,1,demographics,ProlificCode,0,0,0,0,0,0,5a7db51c2a842c0001fc7657,1,3447,0
071318,09:04:38,765762048,97873212,4.0.10.0,1,2,demographics,age,0,0,0,0,0,0,19,1,3783,0
071318,09:04:38,765762048,97873212,4.0.10.0,1,3,demographics,gender,0,0,0,0,0,0,Female,1,3615,0
071318,14:09:18,542721708,960162870,4.0.10.0,1,1,demographics,ProlificCode,0,0,0,0,0,0,5a3eb14c817d1800018d05e8,1,21426,0
071318,14:09:18,542721708,960162870,4.0.10.0,1,2,demographics,age,0,0,0,0,0,0,27,1,2856,0
071318,14:09:18,542721708,960162870,4.0.10.0,1,3,demographics,gender,0,0,0,0,0,0,female,1,4867,0
071318,14:48:00,369640566,782065153,4.0.10.0,1,1,demographics,ProlificCode,0,0,0,0,0,0,56eb00e515ef53000b46726c,1,5160,0
071318,14:48:00,369640566,782065153,4.0.10.0,1,2,demographics,age,0,0,0,0,0,0,45,1,16044,0
071318,14:48:00,369640566,782065153,4.0.10.0,1,3,demographics,gender,0,0,0,0,0,0,female,1,11027,0
071218,16:13:21,848463422,55027911,4.0.10.0,1,1,demographics,ProlificCode,0,0,0,0,0,0,56069571d7def2000eb731f7,1,3576,0
071218,16:13:21,848463422,55027911,4.0.10.0,1,2,demographics,age,0,0,0,0,0,0,40,1,2336,0
071218,16:13:21,848463422,55027911,4.0.10.0,1,3,demographics,gender,0,0,0,0,0,0,m,1,1432,0
071218,11:13:46,214834459,35659067,4.0.10.0,1,1,demographics,ProlificCode,0,0,0,0,0,0,5a88efcc2a842c0001fcd65b,1,24986,0
071218,11:13:46,214834459,35659067,4.0.10.0,1,2,demographics,age,0,0,0,0,0,0,19,1,3431,0
071218,11:13:46,214834459,35659067,4.0.10.0,1,3,demographics,gender,0,0,0,0,0,0,Female,1,4568,0
071218,16:14:23,354827178,838696243,4.0.10.0,1,1,demographics,ProlificCode,0,0,0,0,0,0,5b1193f02b765e00010ebd8a,1,7939,0
071218,16:14:23,354827178,838696243,4.0.10.0,1,2,demographics,age,0,0,0,0,0,0,28,1,4475,0
071218,16:14:23,354827178,838696243,4.0.10.0,1,3,demographics,gender,0,0,0,0,0,0,Female,1,5530,0
071218,11:15:01,128127096,921562599,4.0.10.0,1,1,demographics,ProlificCode,0,0,0,0,0,0,5a88efcc2a842c0001fcd65b,1,5225,0
071218,11:15:01,128127096,921562599,4.0.10.0,1,2,demographics,age,0,0,0,0,0,0,19,1,2635,0
071218,11:15:01,128127096,921562599,4.0.10.0,1,3,demographics,gender,0,0,0,0,0,0,Female,1,3013,0
071218,11:16:27,128127096,921562599,4.0.10.0,1,1,demographics,ProlificCode,0,0,0,0,0,0,5a88efcc2a842c0001fcd65b,1,3930,0
071218,11:16:27,128127096,921562599,4.0.10.0,1,2,demographics,age,0,0,0,0,0,0,19,1,3592,0
071218,11:16:27,128127096,921562599,4.0.10.0,1,3,demographics,gender,0,0,0,0,0,0,Female,1,3049,0
071218,16:17:09,515248424,183137276,4.0.10.0,1,1,demographics,ProlificCode,0,0,0,0,0,0,5983b86106cd1f0001f8e283,1,7001,0
071218,16:17:09,515248424,183137276,4.0.10.0,1,2,demographics,age,0,0,0,0,0,0,38,1,3602,0
071218,16:17:09,515248424,183137276,4.0.10.0,1,3,demographics,gender,0,0,0,0,0,0,Female,1,4055,0
071218,10:16:53,574210406,242688177,4.0.10.0,1,1,demographics,ProlificCode,0,0,0,0,0,0,5aecce56c09cd900015d7ed5,1,18915,0
071218,10:16:53,574210406,242688177,4.0.10.0,1,2,demographics,age,0,0,0,0,0,0,25,1,4095,0
071218,10:16:53,574210406,242688177,4.0.10.0,1,3,demographics,gender,0,0,0,0,0,0,Male,1,5821,0
071218,16:17:14,703918719,293786693,4.0.10.0,1,1,demographics,ProlificCode,0,0,0,0,0,0,5a59c1dfeedc32000142835a,1,36619,0
071218,16:17:14,703918719,293786693,4.0.10.0,1,2,demographics,age,0,0,0,0,0,0,49,1,3708,0
071218,16:17:14,703918719,293786693,4.0.10.0,1,3,demographics,gender,0,0,0,0,0,0,Female,1,4405,0
071218,12:47:44,202835742,386883880,4.0.10.0,1,1,demographics,ProlificCode,0,0,0,0,0,0,5ab1470124ba100001a0456a,1,34655,0
071218,12:47:44,202835742,386883880,4.0.10.0,1,2,demographics,age,0,0,0,0,0,0,60,1,5768,0
071218,12:47:44,202835742,386883880,4.0.10.0,1,3,demographics,gender,0,0,0,0,0,0,male,1,6240,0
071218,11:18:59,830440203,651264817,4.0.10.0,1,1,demographics,ProlificCode,0,0,0,0,0,0,5b23e3a26137550001a42101,1,13727,0
071218,11:18:59,830440203,651264817,4.0.10.0,1,2,demographics,age,0,0,0,0,0,0,39,1,2627,0
071218,11:18:59,830440203,651264817,4.0.10.0,1,3,demographics,gender,0,0,0,0,0,0,female,1,3016,0
071218,16:20:37,42263210,604742078,4.0.10.0,1,1,demographics,ProlificCode,0,0,0,0,0,0,5a577d25eedc320001425fd2,1,2227,0
071218,16:20:37,42263210,604742078,4.0.10.0,1,2,demographics,age,0,0,0,0,0,0,28,1,2848,0
071218,16:20:37,42263210,604742078,4.0.10.0,1,3,demographics,gender,0,0,0,0,0,0,Female,1,3204,0
071218,16:20:49,168571909,188996986,4.0.10.0,1,1,demographics,ProlificCode,0,0,0,0,0,0,5a57c18e8e6259000175d625,1,8223,0
071218,16:20:49,168571909,188996986,4.0.10.0,1,2,demographics,age,0,0,0,0,0,0,21,1,4653,0
071218,16:20:49,168571909,188996986,4.0.10.0,1,3,demographics,gender,0,0,0,0,0,0,Female,1,4235,0
071218,16:21:17,984318860,235085710,4.0.10.0,1,1,demographics,ProlificCode,0,0,0,0,0,0,5a5f7c21ac56240001543340,1,19335,0
071218,16:21:17,984318860,235085710,4.0.10.0,1,2,demographics,age,0,0,0,0,0,0,33,1,1901,0
071218,16:21:17,984318860,235085710,4.0.10.0,1,3,demographics,gender,0,0,0,0,0,0,Female,1,3729,0
071218,16:23:54,984318860,235085710,4.0.10.0,1,1,demographics,ProlificCode,0,0,0,0,0,0,5a5f7c21ac56240001543340,1,1967,0
071218,16:23:54,984318860,235085710,4.0.10.0,1,2,demographics,age,0,0,0,0,0,0,33,1,2144,0
071218,16:23:54,984318860,235085710,4.0.10.0,1,3,demographics,gender,0,0,0,0,0,0,Female,1,3816,0
071218,16:23:18,386358373,413775828,4.0.10.0,1,1,demographics,ProlificCode,0,0,0,0,0,0,,1,33654,0
071218,11:25:21,182135475,904270315,4.0.10.0,1,1,demographics,ProlificCode,0,0,0,0,0,0,5ad49bdfec723b0001f50ebe,1,7184,0
071218,11:25:21,182135475,904270315,4.0.10.0,1,2,demographics,age,0,0,0,0,0,0,37,1,3158,0
071218,11:25:21,182135475,904270315,4.0.10.0,1,3,demographics,gender,0,0,0,0,0,0,male,1,5414,0
071218,11:24:56,429997601,483328186,4.0.10.0,1,1,demographics,ProlificCode,0,0,0,0,0,0,55c22710fdf99b3896f71080,1,16391,0
071218,11:24:56,429997601,483328186,4.0.10.0,1,2,demographics,age,0,0,0,0,0,0,40,1,3700,0
071218,11:24:56,429997601,483328186,4.0.10.0,1,3,demographics,gender,0,0,0,0,0,0,male,1,3431,0
071218,11:25:42,63669529,964951392,4.0.10.0,1,1,demographics,ProlificCode,0,0,0,0,0,0,5b05c01800af700001595d77,1,5556,0
071218,11:25:42,63669529,964951392,4.0.10.0,1,2,demographics,age,0,0,0,0,0,0,23,1,2274,0
071218,11:25:42,63669529,964951392,4.0.10.0,1,3,demographics,gender,0,0,0,0,0,0,Female,1,3409,0
071218,11:54:12,988879703,168644019,4.0.10.0,1,1,demographics,ProlificCode,0,0,0,0,0,0,5a65f13013898300014b5651,1,3198,0
071218,11:54:12,988879703,168644019,4.0.10.0,1,2,demographics,age,0,0,0,0,0,0,22,1,2882,0
071218,11:54:12,988879703,168644019,4.0.10.0,1,3,demographics,gender,0,0,0,0,0,0,female,1,2892,0
071218,11:27:14,182135475,904270315,4.0.10.0,1,1,demographics,ProlificCode,0,0,0,0,0,0,5ad49bdfec723b0001f50ebe,1,2560,0
071218,11:27:14,182135475,904270315,4.0.10.0,1,2,demographics,age,0,0,0,0,0,0,37,1,2720,0
071218,11:27:14,182135475,904270315,4.0.10.0,1,3,demographics,gender,0,0,0,0,0,0,male,1,4200,0
071218,11:27:27,429997601,483328186,4.0.10.0,1,1,demographics,ProlificCode,0,0,0,0,0,0,55c22710fdf99b3896f71080,1,3335,0
071218,11:27:27,429997601,483328186,4.0.10.0,1,2,demographics,age,0,0,0,0,0,0,40,1,4057,0
071218,11:27:27,429997601,483328186,4.0.10.0,1,3,demographics,gender,0,0,0,0,0,0,male,1,1708,0
071218,11:27:11,54877366,538746433,4.0.10.0,1,1,demographics,ProlificCode,0,0,0,0,0,0,5b0a38d230d5620001551e0d,1,5369,0
071218,11:27:11,54877366,538746433,4.0.10.0,1,2,demographics,age,0,0,0,0,0,0,25,1,5762,0
071218,11:27:11,54877366,538746433,4.0.10.0,1,3,demographics,gender,0,0,0,0,0,0,Male,1,4132,0
071218,11:56:22,988879703,168644019,4.0.10.0,1,1,demographics,ProlificCode,0,0,0,0,0,0, 5a65f13013898300014b5651 ,1,2850,0
071218,11:56:22,988879703,168644019,4.0.10.0,1,2,demographics,age,0,0,0,0,0,0,49,1,3906,0
071218,11:56:22,988879703,168644019,4.0.10.0,1,3,demographics,gender,0,0,0,0,0,0,female,1,1869,0
071218,11:27:45,687293507,640973929,4.0.10.0,1,1,demographics,ProlificCode,0,0,0,0,0,0,5a9de95c873cda00010d192c,1,60328,0
071218,11:27:45,687293507,640973929,4.0.10.0,1,2,demographics,age,0,0,0,0,0,0,21,1,3352,0
071218,11:27:45,687293507,640973929,4.0.10.0,1,3,demographics,gender,0,0,0,0,0,0,F,1,3060,0
071218,10:28:31,983755299,467624381,4.0.10.0,1,1,demographics,ProlificCode,0,0,0,0,0,0,5b134b6abd9c31000156d4ff,1,28584,0
071218,10:28:31,983755299,467624381,4.0.10.0,1,2,demographics,age,0,0,0,0,0,0,26,1,4320,0
071218,10:28:31,983755299,467624381,4.0.10.0,1,3,demographics,gender,0,0,0,0,0,0,female,1,5759,0
071218,16:28:49,923909836,282821167,4.0.10.0,1,1,demographics,ProlificCode,0,0,0,0,0,0,582b666168d3ce000159cae3,1,6936,0
071218,16:28:49,923909836,282821167,4.0.10.0,1,2,demographics,age,0,0,0,0,0,0,48,1,3409,0
071218,16:28:49,923909836,282821167,4.0.10.0,1,3,demographics,gender,0,0,0,0,0,0,male,1,4775,0
071218,10:30:23,902456789,492324762,4.0.10.0,1,1,demographics,ProlificCode,0,0,0,0,0,0,5986181277201f0001f13c7d,1,5397,0
071218,10:30:23,902456789,492324762,4.0.10.0,1,2,demographics,age,0,0,0,0,0,0,53,1,9836,0
071218,10:30:23,902456789,492324762,4.0.10.0,1,3,demographics,gender,0,0,0,0,0,0,female,1,6647,0
071218,10:33:09,983755299,467624381,4.0.10.0,1,1,demographics,ProlificCode,0,0,0,0,0,0,5b134b6abd9c31000156d4ff,1,5115,0
071218,10:33:09,983755299,467624381,4.0.10.0,1,2,demographics,age,0,0,0,0,0,0,26,1,3284,0
071218,10:33:09,983755299,467624381,4.0.10.0,1,3,demographics,gender,0,0,0,0,0,0,female,1,3263,0
071218,11:34:28,290971467,91716124,4.0.10.0,1,1,demographics,ProlificCode,0,0,0,0,0,0,57d6b1718e00270001b430cc,1,21211,0
071218,11:34:28,290971467,91716124,4.0.10.0,1,2,demographics,age,0,0,0,0,0,0,34,1,2385,0
071218,11:34:28,290971467,91716124,4.0.10.0,1,3,demographics,gender,0,0,0,0,0,0,Male,1,4047,0
071218,16:35:32,818384788,917102915,4.0.10.0,1,1,demographics,ProlificCode,0,0,0,0,0,0,5acfa614b02aca0001271100,1,3502,0
071218,16:35:32,818384788,917102915,4.0.10.0,1,2,demographics,age,0,0,0,0,0,0,35,1,6276,0
071218,16:35:32,818384788,917102915,4.0.10.0,1,3,demographics,gender,0,0,0,0,0,0,male,1,3605,0
071218,16:34:40,387456815,572093872,4.0.10.0,1,1,demographics,ProlificCode,0,0,0,0,0,0,5ac82835e734400001da5602,1,76551,0
071218,16:34:40,387456815,572093872,4.0.10.0,1,2,demographics,age,0,0,0,0,0,0,53,1,6291,0
071218,16:34:40,387456815,572093872,4.0.10.0,1,3,demographics,gender,0,0,0,0,0,0,female,1,12363,0
071218,11:36:00,835828023,550951876,4.0.10.0,1,1,demographics,ProlificCode,0,0,0,0,0,0,5ab3db4b892136000182d629,1,8061,0
071218,11:36:00,835828023,550951876,4.0.10.0,1,2,demographics,age,0,0,0,0,0,0,21,1,3696,0
071218,11:36:00,835828023,550951876,4.0.10.0,1,3,demographics,gender,0,0,0,0,0,0,Female,1,4339,0
071218,16:36:44,847952058,727604649,4.0.10.0,1,1,demographics,ProlificCode,0,0,0,0,0,0,56b0b7206399f9000fd8cc80,1,4861,0
071218,16:36:44,847952058,727604649,4.0.10.0,1,2,demographics,age,0,0,0,0,0,0,54,1,4745,0
071218,16:36:44,847952058,727604649,4.0.10.0,1,3,demographics,gender,0,0,0,0,0,0,Female,1,6698,0
071218,16:36:52,891811249,169676400,4.0.10.0,1,1,demographics,ProlificCode,0,0,0,0,0,0,55d59b888ce09000057d4a55,1,12968,0
071218,16:36:52,891811249,169676400,4.0.10.0,1,2,demographics,age,0,0,0,0,0,0,57,1,5225,0
071218,16:36:52,891811249,169676400,4.0.10.0,1,3,demographics,gender,0,0,0,0,0,0,man,1,4769,0
071218,11:39:22,335078861,672062759,4.0.10.0,1,1,demographics,ProlificCode,0,0,0,0,0,0,558de4bffdf99b0cad9683ba,1,9950,0
071218,11:39:22,335078861,672062759,4.0.10.0,1,2,demographics,age,0,0,0,0,0,0,59,1,3648,0
071218,11:39:22,335078861,672062759,4.0.10.0,1,3,demographics,gender,0,0,0,0,0,0,female,1,5352,0
071218,10:39:56,16788438,117942941,4.0.10.0,1,1,demographics,ProlificCode,0,0,0,0,0,0,5a9ae74a6219a30001d349fe,1,9048,0
071218,10:39:56,16788438,117942941,4.0.10.0,1,2,demographics,age,0,0,0,0,0,0,19,1,2378,0
071218,10:39:56,16788438,117942941,4.0.10.0,1,3,demographics,gender,0,0,0,0,0,0,Male,1,4166,0
071218,16:40:38,820466223,105051600,4.0.10.0,1,1,demographics,ProlificCode,0,0,0,0,0,0,5aec214c12985100015aa1a6,1,14972,0
071218,16:40:38,820466223,105051600,4.0.10.0,1,2,demographics,age,0,0,0,0,0,0,29,1,3131,0
071218,16:40:38,820466223,105051600,4.0.10.0,1,3,demographics,gender,0,0,0,0,0,0,female,1,5091,0
071218,11:40:52,335078861,672062759,4.0.10.0,1,1,demographics,ProlificCode,0,0,0,0,0,0,558de4bffdf99b0cad9683ba,1,3287,0
071218,11:40:52,335078861,672062759,4.0.10.0,1,2,demographics,age,0,0,0,0,0,0,59,1,3125,0
071218,11:40:52,335078861,672062759,4.0.10.0,1,3,demographics,gender,0,0,0,0,0,0,female,1,6209,0
071218,16:40:49,824528212,109411715,4.0.10.0,1,1,demographics,ProlificCode,0,0,0,0,0,0,57bdba0770808a00012d9810,1,88014,0
071218,16:40:49,824528212,109411715,4.0.10.0,1,2,demographics,age,0,0,0,0,0,0,63,1,3581,0
071218,16:40:49,824528212,109411715,4.0.10.0,1,3,demographics,gender,0,0,0,0,0,0,female,1,4802,0
071218,11:42:14,278972691,153454388,4.0.10.0,1,1,demographics,ProlificCode,0,0,0,0,0,0,5a88c80f5292b80001231844,1,4647,0
071218,11:42:14,278972691,153454388,4.0.10.0,1,2,demographics,age,0,0,0,0,0,0,28,1,2467,0
071218,11:42:14,278972691,153454388,4.0.10.0,1,3,demographics,gender,0,0,0,0,0,0,male,1,3750,0
071218,16:42:27,492231266,519369227,4.0.10.0,1,1,demographics,ProlificCode,0,0,0,0,0,0,59a800138ae07f0001b134c8,1,3141,0
071218,16:42:27,492231266,519369227,4.0.10.0,1,2,demographics,age,0,0,0,0,0,0,47,1,4547,0
071218,16:42:27,492231266,519369227,4.0.10.0,1,3,demographics,gender,0,0,0,0,0,0,female,1,4583,0
071218,11:42:48,754969752,39555132,4.0.10.0,1,1,demographics,ProlificCode,0,0,0,0,0,0,5aec68bf7e56330001681c98,1,4667,0
071218,11:42:48,754969752,39555132,4.0.10.0,1,2,demographics,age,0,0,0,0,0,0,29,1,2723,0
071218,11:42:48,754969752,39555132,4.0.10.0,1,3,demographics,gender,0,0,0,0,0,0,Male,1,3450,0
071218,18:42:34,745953226,878191753,4.0.10.0,1,1,demographics,ProlificCode,0,0,0,0,0,0,595be27b558c93000171c943 ,1,79132,0
071218,18:42:34,745953226,878191753,4.0.10.0,1,2,demographics,age,0,0,0,0,0,0,34,1,3870,0
071218,18:42:34,745953226,878191753,4.0.10.0,1,3,demographics,gender,0,0,0,0,0,0,male,1,2960,0
071218,16:44:53,912764514,403942731,4.0.10.0,1,1,demographics,ProlificCode,0,0,0,0,0,0,59ff1c18844c7a00015e3d94,1,5050,0
071218,16:44:53,912764514,403942731,4.0.10.0,1,2,demographics,age,0,0,0,0,0,0,43,1,4808,0
071218,16:44:53,912764514,403942731,4.0.10.0,1,3,demographics,gender,0,0,0,0,0,0,male,1,4902,0
071218,11:44:39,421127885,217588699,4.0.10.0,1,1,demographics,ProlificCode,0,0,0,0,0,0,5b0df5ea1e55760001b98fff,1,30201,0
071218,11:44:39,421127885,217588699,4.0.10.0,1,2,demographics,age,0,0,0,0,0,0,30,1,3641,0
071218,11:44:39,421127885,217588699,4.0.10.0,1,3,demographics,gender,0,0,0,0,0,0,male,1,3474,0
071218,18:45:40,745953226,878191753,4.0.10.0,1,1,demographics,ProlificCode,0,0,0,0,0,0,595be27b558c93000171c943 ,1,3396,0
071218,18:45:40,745953226,878191753,4.0.10.0,1,2,demographics,age,0,0,0,0,0,0,34,1,2647,0
071218,18:45:40,745953226,878191753,4.0.10.0,1,3,demographics,gender,0,0,0,0,0,0,male,1,2659,0
071218,16:45:54,925629406,132510654,4.0.10.0,1,1,demographics,ProlificCode,0,0,0,0,0,0,5b262c8f8ecf3f00016177b2,1,4437,0
071218,16:45:54,925629406,132510654,4.0.10.0,1,2,demographics,age,0,0,0,0,0,0,30,1,3233,0
071218,16:45:54,925629406,132510654,4.0.10.0,1,3,demographics,gender,0,0,0,0,0,0,female,1,5372,0
071218,11:43:39,247601558,63553405,4.0.10.0,1,1,demographics,ProlificCode,0,0,0,0,0,0,59cc63e8916c4d0001094774,1,16515,0
071218,11:43:39,247601558,63553405,4.0.10.0,1,2,demographics,age,0,0,0,0,0,0,42,1,5150,0
071218,11:43:39,247601558,63553405,4.0.10.0,1,3,demographics,gender,0,0,0,0,0,0,female,1,3933,0
071218,11:46:17,61976408,115605122,4.0.10.0,1,1,demographics,ProlificCode,0,0,0,0,0,0,559002fefdf99b3f7aada38f,1,10360,0
071218,11:46:17,61976408,115605122,4.0.10.0,1,2,demographics,age,0,0,0,0,0,0,34,1,3375,0
071218,11:46:17,61976408,115605122,4.0.10.0,1,3,demographics,gender,0,0,0,0,0,0,Male,1,4119,0
071218,08:46:11,843963319,719033942,4.0.10.0,1,1,demographics,ProlificCode,0,0,0,0,0,0,5aeb591908e2f0000108327e,1,21578,0
071218,08:46:11,843963319,719033942,4.0.10.0,1,2,demographics,age,0,0,0,0,0,0,34,1,3582,0
071218,08:46:11,843963319,719033942,4.0.10.0,1,3,demographics,gender,0,0,0,0,0,0,male,1,3411,0
071218,16:47:45,920738427,795809044,4.0.10.0,1,1,demographics,ProlificCode,0,0,0,0,0,0,59ff1c18844c7a00015e3d94,1,5899,0
071218,16:47:45,920738427,795809044,4.0.10.0,1,2,demographics,age,0,0,0,0,0,0,43,1,3239,0
071218,16:47:45,920738427,795809044,4.0.10.0,1,3,demographics,gender,0,0,0,0,0,0,male,1,8821,0
071218,16:47:58,718173514,943848000,4.0.10.0,1,1,demographics,ProlificCode,0,0,0,0,0,0,5a27f0c0df86d80001455d13,1,4137,0
071218,16:47:58,718173514,943848000,4.0.10.0,1,2,demographics,age,0,0,0,0,0,0,35,1,2850,0
071218,16:47:58,718173514,943848000,4.0.10.0,1,3,demographics,gender,0,0,0,0,0,0,Female,1,3973,0
071218,11:47:59,899137125,773928249,4.0.10.0,1,1,demographics,ProlificCode,0,0,0,0,0,0,5b0b77a9d282ff00015b7531,1,3347,0
071218,11:47:59,899137125,773928249,4.0.10.0,1,2,demographics,age,0,0,0,0,0,0,22,1,2238,0
071218,11:47:59,899137125,773928249,4.0.10.0,1,3,demographics,gender,0,0,0,0,0,0,Male,1,3853,0
071218,16:47:55,330730898,661377369,4.0.10.0,1,1,demographics,ProlificCode,0,0,0,0,0,0,,1,53886,0
071218,16:49:19,330730898,661377369,4.0.10.0,1,1,demographics,ProlificCode,0,0,0,0,0,0,5a5a4bc8e0cf3d0001267426,1,7222,0
071218,16:49:19,330730898,661377369,4.0.10.0,1,2,demographics,age,0,0,0,0,0,0,55,1,4911,0
071218,16:49:19,330730898,661377369,4.0.10.0,1,3,demographics,gender,0,0,0,0,0,0,Female,1,6130,0
071218,11:49:12,899137125,773928249,4.0.10.0,1,1,demographics,ProlificCode,0,0,0,0,0,0,5b0b77a9d282ff00015b7531,1,7248,0
071218,11:49:12,899137125,773928249,4.0.10.0,1,2,demographics,age,0,0,0,0,0,0,22,1,1848,0
071218,11:49:12,899137125,773928249,4.0.10.0,1,3,demographics,gender,0,0,0,0,0,0,Male,1,2788,0
071218,16:47:02,905846531,4564664,4.0.10.0,1,1,demographics,ProlificCode,0,0,0,0,0,0,5b2a4fc47297750001c76c5d,1,17988,0
071218,16:47:02,905846531,4564664,4.0.10.0,1,2,demographics,age,0,0,0,0,0,0,25,1,3704,0
071218,16:47:02,905846531,4564664,4.0.10.0,1,3,demographics,gender,0,0,0,0,0,0,Female,1,5092,0
071218,09:50:05,200237172,99082660,4.0.10.0,1,1,demographics,ProlificCode,0,0,0,0,0,0,59279629990b8600014acc05,1,9213,0
071218,09:50:05,200237172,99082660,4.0.10.0,1,2,demographics,age,0,0,0,0,0,0,38,1,3822,0
071218,09:50:05,200237172,99082660,4.0.10.0,1,3,demographics,gender,0,0,0,0,0,0,male,1,4048,0
071218,10:50:20,755240669,68261646,4.0.10.0,1,1,demographics,ProlificCode,0,0,0,0,0,0,585844882cf4a400015b436a,1,4401,0
071218,10:50:20,755240669,68261646,4.0.10.0,1,2,demographics,age,0,0,0,0,0,0,56,1,3468,0
071218,10:50:20,755240669,68261646,4.0.10.0,1,3,demographics,gender,0,0,0,0,0,0,Female,1,4214,0
071218,09:50:57,260395592,7483157,4.0.10.0,1,1,demographics,ProlificCode,0,0,0,0,0,0,5b1c986fc9d3cb0001104268,1,4637,0
071218,09:50:57,260395592,7483157,4.0.10.0,1,2,demographics,age,0,0,0,0,0,0,33,1,3243,0
071218,09:50:57,260395592,7483157,4.0.10.0,1,3,demographics,gender,0,0,0,0,0,0,Female,1,2841,0
071218,16:52:09,381219479,433913745,4.0.10.0,1,1,demographics,ProlificCode,0,0,0,0,0,0,59d543bd719adb0001235cd6,1,2930,0
071218,16:52:09,381219479,433913745,4.0.10.0,1,2,demographics,age,0,0,0,0,0,0,29,1,3435,0
071218,16:52:09,381219479,433913745,4.0.10.0,1,3,demographics,gender,0,0,0,0,0,0,female,1,5577,0
071218,11:51:59,113589497,602920235,4.0.10.0,1,1,demographics,ProlificCode,0,0,0,0,0,0,58dde4b495b4740001733749,1,63042,0
071218,11:51:59,113589497,602920235,4.0.10.0,1,2,demographics,age,0,0,0,0,0,0,22,1,2238,0
071218,11:51:59,113589497,602920235,4.0.10.0,1,3,demographics,gender,0,0,0,0,0,0,female,1,3377,0
071218,10:53:27,849050083,716811565,4.0.10.0,1,1,demographics,ProlificCode,0,0,0,0,0,0,585844882cf4a400015b436a,1,4614,0
071218,10:53:27,849050083,716811565,4.0.10.0,1,2,demographics,age,0,0,0,0,0,0,56,1,3844,0
071218,10:53:27,849050083,716811565,4.0.10.0,1,3,demographics,gender,0,0,0,0,0,0,Female,1,4157,0
071218,16:53:56,583897215,146376097,4.0.10.0,1,1,demographics,ProlificCode,0,0,0,0,0,0,5aecb87ac09cd900015d7d7b,1,4923,0
071218,16:53:56,583897215,146376097,4.0.10.0,1,2,demographics,age,0,0,0,0,0,0,26,1,3715,0
071218,16:53:56,583897215,146376097,4.0.10.0,1,3,demographics,gender,0,0,0,0,0,0,Male,1,2948,0
071218,10:50:18,121340817,610671551,4.0.10.0,1,1,demographics,ProlificCode,0,0,0,0,0,0,57187708a459c10013107e81,1,27545,0
071218,10:50:18,121340817,610671551,4.0.10.0,1,2,demographics,age,0,0,0,0,0,0,52,1,6886,0
071218,10:50:18,121340817,610671551,4.0.10.0,1,3,demographics,gender,0,0,0,0,0,0,Male,1,7534,0
071218,11:53:09,394362642,261248365,4.0.10.0,1,1,demographics,ProlificCode,0,0,0,0,0,0,582afed4ce3a0e00010b3245,1,85207,0
071218,11:53:09,394362642,261248365,4.0.10.0,1,2,demographics,age,0,0,0,0,0,0,65,1,4082,0
071218,11:53:09,394362642,261248365,4.0.10.0,1,3,demographics,gender,0,0,0,0,0,0,female,1,4966,0
071218,11:55:34,253549635,968375333,4.0.10.0,1,1,demographics,ProlificCode,0,0,0,0,0,0,5b2ac81895c5690001107e3d,1,9557,0
071218,11:55:34,253549635,968375333,4.0.10.0,1,2,demographics,age,0,0,0,0,0,0,18,1,2731,0
071218,11:55:34,253549635,968375333,4.0.10.0,1,3,demographics,gender,0,0,0,0,0,0,male,1,2494,0
071218,16:56:14,567981381,978113407,4.0.10.0,1,1,demographics,ProlificCode,0,0,0,0,0,0,5b2104c69ffb8a00018404d6,1,20020,0
071218,16:56:14,567981381,978113407,4.0.10.0,1,2,demographics,age,0,0,0,0,0,0,34,1,4396,0
071218,16:56:14,567981381,978113407,4.0.10.0,1,3,demographics,gender,0,0,0,0,0,0,Female,1,6526,0
071218,11:56:37,454572017,333926469,4.0.10.0,1,1,demographics,ProlificCode,0,0,0,0,0,0,5ae4ceb43ab2fb0001ef1f04,1,18362,0
071218,11:56:37,454572017,333926469,4.0.10.0,1,2,demographics,age,0,0,0,0,0,0,20,1,3513,0
071218,11:56:37,454572017,333926469,4.0.10.0,1,3,demographics,gender,0,0,0,0,0,0,woman,1,5895,0
071218,10:57:31,22971117,233819433,4.0.10.0,1,1,demographics,ProlificCode,0,0,0,0,0,0,55a43333fdf99b7da1908d9b,1,8167,0
071218,10:57:31,22971117,233819433,4.0.10.0,1,2,demographics,age,0,0,0,0,0,0,40,1,3965,0
071218,10:57:31,22971117,233819433,4.0.10.0,1,3,demographics,gender,0,0,0,0,0,0,Female,1,3309,0
071218,16:57:19,385271324,947750185,4.0.10.0,1,1,demographics,ProlificCode,0,0,0,0,0,0,5a4c334121bfa00001081a4e,1,5781,0
071218,16:57:19,385271324,947750185,4.0.10.0,1,2,demographics,age,0,0,0,0,0,0,50,1,4444,0
071218,16:57:19,385271324,947750185,4.0.10.0,1,3,demographics,gender,0,0,0,0,0,0,Male,1,7013,0
071218,11:58:07,180115522,663686450,4.0.10.0,1,1,demographics,ProlificCode,0,0,0,0,0,0,76561198248680796,1,13708,0
071218,11:58:07,180115522,663686450,4.0.10.0,1,2,demographics,age,0,0,0,0,0,0,38,1,2054,0
071218,11:58:07,180115522,663686450,4.0.10.0,1,3,demographics,gender,0,0,0,0,0,0,Male,1,15690,0
071218,16:58:49,567981381,978113407,4.0.10.0,1,1,demographics,ProlificCode,0,0,0,0,0,0,5b2104c69ffb8a00018404d6,1,4766,0
071218,16:58:49,567981381,978113407,4.0.10.0,1,2,demographics,age,0,0,0,0,0,0,34,1,4533,0
071218,16:58:49,567981381,978113407,4.0.10.0,1,3,demographics,gender,0,0,0,0,0,0,Female,1,6119,0
071218,16:59:53,567981381,978113407,4.0.10.0,1,1,demographics,ProlificCode,0,0,0,0,0,0,5b2104c69ffb8a00018404d6,1,3655,0
071218,16:59:53,567981381,978113407,4.0.10.0,1,2,demographics,age,0,0,0,0,0,0,34,1,4484,0
071218,16:59:53,567981381,978113407,4.0.10.0,1,3,demographics,gender,0,0,0,0,0,0,Female,1,4737,0
071218,16:59:52,858791929,350559063,4.0.10.0,1,1,demographics,ProlificCode,0,0,0,0,0,0,585353b91c68630001f528ba,1,5236,0
071218,16:59:52,858791929,350559063,4.0.10.0,1,2,demographics,age,0,0,0,0,0,0,46,1,4220,0
071218,16:59:52,858791929,350559063,4.0.10.0,1,3,demographics,gender,0,0,0,0,0,0,female,1,5013,0
071218,12:00:34,417790804,902248783,4.0.10.0,1,1,demographics,ProlificCode,0,0,0,0,0,0,5aeb692c87deb600012b632e,1,22779,0
071218,12:00:34,417790804,902248783,4.0.10.0,1,2,demographics,age,0,0,0,0,0,0,33,1,2137,0
071218,12:00:34,417790804,902248783,4.0.10.0,1,3,demographics,gender,0,0,0,0,0,0,male,1,4264,0
071218,17:00:24,946213169,299902251,4.0.10.0,1,1,demographics,ProlificCode,0,0,0,0,0,0,595398234d56070001645fd9,1,5829,0
071218,17:00:24,946213169,299902251,4.0.10.0,1,2,demographics,age,0,0,0,0,0,0,45,1,3588,0
071218,17:00:24,946213169,299902251,4.0.10.0,1,3,demographics,gender,0,0,0,0,0,0,female,1,6114,0
071218,17:01:58,720965922,279160971,4.0.10.0,1,1,demographics,ProlificCode,0,0,0,0,0,0,591c70f8f399850001c51444,1,6221,0
071218,17:01:58,720965922,279160971,4.0.10.0,1,2,demographics,age,0,0,0,0,0,0,45,1,3241,0
071218,17:01:58,720965922,279160971,4.0.10.0,1,3,demographics,gender,0,0,0,0,0,0,female,1,5679,0
071218,12:02:40,666798885,178057064,4.0.10.0,1,1,demographics,ProlificCode,0,0,0,0,0,0,5af1c24d5bbd0b00015eca8b,1,7230,0
071218,12:02:40,666798885,178057064,4.0.10.0,1,2,demographics,age,0,0,0,0,0,0,23,1,4220,0
071218,12:02:40,666798885,178057064,4.0.10.0,1,3,demographics,gender,0,0,0,0,0,0,Male,1,7907,0
071218,09:03:04,161901279,367876828,4.0.10.0,1,1,demographics,ProlificCode,0,0,0,0,0,0,58ae45f35e63bf00013b530e,1,9148,0
071218,09:03:04,161901279,367876828,4.0.10.0,1,2,demographics,age,0,0,0,0,0,0,24,1,2453,0
071218,09:03:04,161901279,367876828,4.0.10.0,1,3,demographics,gender,0,0,0,0,0,0,female,1,3041,0
071218,17:03:20,720965922,279160971,4.0.10.0,1,1,demographics,ProlificCode,0,0,0,0,0,0,591c70f8f399850001c51444,1,4097,0
071218,17:03:20,720965922,279160971,4.0.10.0,1,2,demographics,age,0,0,0,0,0,0,45,1,3176,0
071218,17:03:20,720965922,279160971,4.0.10.0,1,3,demographics,gender,0,0,0,0,0,0,female,1,6908,0
071218,09:04:05,981820635,930039379,4.0.10.0,1,1,demographics,ProlificCode,0,0,0,0,0,0,54bf47a8fdf99b15608c506e,1,19352,0
071218,09:04:05,981820635,930039379,4.0.10.0,1,2,demographics,age,0,0,0,0,0,0,30,1,15694,0
071218,09:04:05,981820635,930039379,4.0.10.0,1,3,demographics,gender,0,0,0,0,0,0,Male,1,2970,0
071218,12:03:20,536521964,484453874,4.0.10.0,1,1,demographics,ProlificCode,0,0,0,0,0,0,583cb922df5e9f0001d9670b,1,91439,0
071218,12:03:20,536521964,484453874,4.0.10.0,1,2,demographics,age,0,0,0,0,0,0,28,1,4716,0
071218,12:03:20,536521964,484453874,4.0.10.0,1,3,demographics,gender,0,0,0,0,0,0,female,1,4312,0
071218,09:05:33,674201279,232396325,4.0.10.0,1,1,demographics,ProlificCode,0,0,0,0,0,0,5a9ac2e31ade740001b8fe2b,1,21574,0
071218,09:05:33,674201279,232396325,4.0.10.0,1,2,demographics,age,0,0,0,0,0,0,33,1,3108,0
071218,09:05:33,674201279,232396325,4.0.10.0,1,3,demographics,gender,0,0,0,0,0,0,Male,1,4078,0
071218,12:05:44,83122570,129442144,4.0.10.0,1,1,demographics,ProlificCode,0,0,0,0,0,0,55595b70fdf99b387ae30d2b,1,3806,0
071218,12:05:44,83122570,129442144,4.0.10.0,1,2,demographics,age,0,0,0,0,0,0,31,1,2571,0
071218,12:05:44,83122570,129442144,4.0.10.0,1,3,demographics,gender,0,0,0,0,0,0,Female,1,4334,0
071218,12:06:46,171372301,117743572,4.0.10.0,1,1,demographics,ProlificCode,0,0,0,0,0,0,5589541bfdf99b6bd0601674,1,4190,0
071218,12:06:46,171372301,117743572,4.0.10.0,1,2,demographics,age,0,0,0,0,0,0,35,1,2543,0
071218,12:06:46,171372301,117743572,4.0.10.0,1,3,demographics,gender,0,0,0,0,0,0,male,1,2229,0
071218,11:06:12,998224406,818460103,4.0.10.0,1,1,demographics,ProlificCode,0,0,0,0,0,0,5730df76dd66170008d9acf9,1,27878,0
071218,11:06:12,998224406,818460103,4.0.10.0,1,2,demographics,age,0,0,0,0,0,0,31,1,2101,0
071218,11:06:12,998224406,818460103,4.0.10.0,1,3,demographics,gender,0,0,0,0,0,0,Male ,1,3870,0
071218,17:07:26,929315496,723749382,4.0.10.0,1,1,demographics,ProlificCode,0,0,0,0,0,0,5a8b528b000dab,1,50751,0
071218,17:07:26,929315496,723749382,4.0.10.0,1,2,demographics,age,0,0,0,0,0,0,23,1,2746,0
071218,17:07:26,929315496,723749382,4.0.10.0,1,3,demographics,gender,0,0,0,0,0,0,female,1,4405,0
071218,12:08:29,171372301,117743572,4.0.10.0,1,1,demographics,ProlificCode,0,0,0,0,0,0,5589541bfdf99b6bd0601674,1,3504,0
071218,12:08:29,171372301,117743572,4.0.10.0,1,2,demographics,age,0,0,0,0,0,0,35,1,2045,0
071218,12:08:29,171372301,117743572,4.0.10.0,1,3,demographics,gender,0,0,0,0,0,0,male ,1,3396,0
071218,17:08:52,513402600,532616537,4.0.10.0,1,1,demographics,ProlificCode,0,0,0,0,0,0,5ab7d3cef69e940001d8ebe7,1,3625,0
071218,17:08:52,513402600,532616537,4.0.10.0,1,2,demographics,age,0,0,0,0,0,0,18,1,2566,0
071218,17:08:52,513402600,532616537,4.0.10.0,1,3,demographics,gender,0,0,0,0,0,0,male,1,3125,0
071218,12:08:55,171372301,117743572,4.0.10.0,1,1,demographics,ProlificCode,0,0,0,0,0,0,5589541bfdf99b6bd0601674,1,3567,0
071218,12:08:55,171372301,117743572,4.0.10.0,1,2,demographics,age,0,0,0,0,0,0,35,1,2477,0
071218,12:08:55,171372301,117743572,4.0.10.0,1,3,demographics,gender,0,0,0,0,0,0,male,1,1831,0
071218,17:08:47,867242980,813025343,4.0.10.0,1,1,demographics,ProlificCode,0,0,0,0,0,0,53666a91fdf99b66dcecf87c,1,6228,0
071218,17:08:47,867242980,813025343,4.0.10.0,1,2,demographics,age,0,0,0,0,0,0,23,1,2352,0
071218,17:08:47,867242980,813025343,4.0.10.0,1,3,demographics,gender,0,0,0,0,0,0,Male,1,4383,0
071218,09:08:48,465906317,591424609,4.0.10.0,1,1,demographics,ProlificCode,0,0,0,0,0,0,5b152e16444cef0001cb0231,1,5859,0
071218,09:08:48,465906317,591424609,4.0.10.0,1,2,demographics,age,0,0,0,0,0,0,42,1,4753,0
071218,09:08:48,465906317,591424609,4.0.10.0,1,3,demographics,gender,0,0,0,0,0,0,male,1,5465,0
071218,17:09:32,793430907,540518491,4.0.10.0,1,1,demographics,ProlificCode,0,0,0,0,0,0,57cdec21648ff400016668fc,1,6604,0
071218,17:09:32,793430907,540518491,4.0.10.0,1,2,demographics,age,0,0,0,0,0,0,27,1,5627,0
071218,17:09:32,793430907,540518491,4.0.10.0,1,3,demographics,gender,0,0,0,0,0,0,Female,1,6057,0
071218,17:10:01,994884518,940387388,4.0.10.0,1,1,demographics,ProlificCode,0,0,0,0,0,0,5a8be5aef1408d000176b343,1,9217,0
071218,17:10:01,994884518,940387388,4.0.10.0,1,2,demographics,age,0,0,0,0,0,0,64,1,5696,0
071218,17:10:01,994884518,940387388,4.0.10.0,1,3,demographics,gender,0,0,0,0,0,0,Male,1,6302,0
071218,12:11:06,147901757,788990416,4.0.10.0,1,1,demographics,ProlificCode,0,0,0,0,0,0,5afd96d587fe510001b3c27e,1,13547,0
071218,12:11:06,147901757,788990416,4.0.10.0,1,2,demographics,age,0,0,0,0,0,0,32,1,3817,0
071218,12:11:06,147901757,788990416,4.0.10.0,1,3,demographics,gender,0,0,0,0,0,0,Male,1,3875,0
071318,02:11:37,778474425,286707310,4.0.10.0,1,1,demographics,ProlificCode,0,0,0,0,0,0,5ab4ad1d0527ba0001c1699c,1,4785,0
071318,02:11:37,778474425,286707310,4.0.10.0,1,2,demographics,age,0,0,0,0,0,0,43,1,2585,0
071318,02:11:37,778474425,286707310,4.0.10.0,1,3,demographics,gender,0,0,0,0,0,0,Male,1,4150,0
071218,17:11:36,383589017,946067883,4.0.10.0,1,1,demographics,ProlificCode,0,0,0,0,0,0,5af12a81e1b5b8000148a792,1,10192,0
071218,17:11:36,383589017,946067883,4.0.10.0,1,2,demographics,age,0,0,0,0,0,0,31,1,3054,0
071218,17:11:36,383589017,946067883,4.0.10.0,1,3,demographics,gender,0,0,0,0,0,0,Male,1,3735,0
071218,17:11:29,101821230,664300092,4.0.10.0,1,1,demographics,ProlificCode,0,0,0,0,0,0,5ad46cf45b53cb0001f35da5,1,3077,0
071218,17:11:29,101821230,664300092,4.0.10.0,1,2,demographics,age,0,0,0,0,0,0,38,1,15327,0
071218,17:11:29,101821230,664300092,4.0.10.0,1,3,demographics,gender,0,0,0,0,0,0,Female,1,6958,0
071218,12:11:20,950628494,592306091,4.0.10.0,1,1,demographics,ProlificCode,0,0,0,0,0,0,5b0df5bde9270900013bdf7f,1,27211,0
071218,12:11:20,950628494,592306091,4.0.10.0,1,2,demographics,age,0,0,0,0,0,0,30,1,9027,0
071218,12:11:20,950628494,592306091,4.0.10.0,1,3,demographics,gender,0,0,0,0,0,0,male,1,4972,0
071218,15:13:16,45790130,787416013,4.0.10.0,1,1,demographics,ProlificCode,0,0,0,0,0,0,57fb71185babd2000141049a,1,3053,0
071218,15:13:16,45790130,787416013,4.0.10.0,1,2,demographics,age,0,0,0,0,0,0,38,1,2910,0
071218,15:13:16,45790130,787416013,4.0.10.0,1,3,demographics,gender,0,0,0,0,0,0,Male,1,3077,0
071218,15:14:06,94479736,148697371,4.0.10.0,1,1,demographics,ProlificCode,0,0,0,0,0,0,5b20f457bdf4e1000163d450,1,9016,0
071218,15:14:06,94479736,148697371,4.0.10.0,1,2,demographics,age,0,0,0,0,0,0,33,1,2264,0
071218,15:14:06,94479736,148697371,4.0.10.0,1,3,demographics,gender,0,0,0,0,0,0,Male,1,3284,0
071218,15:17:26,697148441,493020342,4.0.10.0,1,1,demographics,ProlificCode,0,0,0,0,0,0,5a631237c0d836000107af9c,1,5483,0
071218,15:17:26,697148441,493020342,4.0.10.0,1,2,demographics,age,0,0,0,0,0,0,33,1,6678,0
071218,15:17:26,697148441,493020342,4.0.10.0,1,3,demographics,gender,0,0,0,0,0,0,female,1,4627,0
071218,15:18:55,761197788,424504674,4.0.10.0,1,1,demographics,ProlificCode,0,0,0,0,0,0,5ab4a793892136000182dd3a,1,4143,0
071218,15:18:55,761197788,424504674,4.0.10.0,1,2,demographics,age,0,0,0,0,0,0,28,1,3048,0
071218,15:18:55,761197788,424504674,4.0.10.0,1,3,demographics,gender,0,0,0,0,0,0,female,1,4042,0
071218,15:22:27,832467329,883659666,4.0.10.0,1,1,demographics,ProlificCode,0,0,0,0,0,0,56e1bb4e6ce054000b3ffcaf,1,5052,0
071218,15:22:27,832467329,883659666,4.0.10.0,1,2,demographics,age,0,0,0,0,0,0,30,1,2766,0
071218,15:22:27,832467329,883659666,4.0.10.0,1,3,demographics,gender,0,0,0,0,0,0,male,1,3969,0
071218,15:22:52,558161958,46903798,4.0.10.0,1,1,demographics,ProlificCode,0,0,0,0,0,0,59d4b6ae4bf7000128a6404c,1,14982,0
071218,15:22:52,558161958,46903798,4.0.10.0,1,2,demographics,age,0,0,0,0,0,0,60,1,4278,0
071218,15:22:52,558161958,46903798,4.0.10.0,1,3,demographics,gender,0,0,0,0,0,0,female,1,6042,0
071218,15:28:40,131692243,488167179,4.0.10.0,1,1,demographics,ProlificCode,0,0,0,0,0,0,5a69a13063394a000155e07f,1,4920,0
071218,15:28:40,131692243,488167179,4.0.10.0,1,2,demographics,age,0,0,0,0,0,0,32,1,2277,0
071218,15:28:40,131692243,488167179,4.0.10.0,1,3,demographics,gender,0,0,0,0,0,0,female,1,3209,0
071218,15:29:38,750647352,28512505,4.0.10.0,1,1,demographics,ProlificCode,0,0,0,0,0,0,54df343bfdf99b772d994a76,1,14232,0
071218,15:29:38,750647352,28512505,4.0.10.0,1,2,demographics,age,0,0,0,0,0,0,35,1,10869,0
071218,15:29:38,750647352,28512505,4.0.10.0,1,3,demographics,gender,0,0,0,0,0,0,Female,1,5134,0
071218,15:31:58,590826703,74695784,4.0.10.0,1,1,demographics,ProlificCode,0,0,0,0,0,0,5b0283c5293d31000102506b,1,12485,0
071218,15:31:58,590826703,74695784,4.0.10.0,1,2,demographics,age,0,0,0,0,0,0,29,1,2696,0
071218,15:31:58,590826703,74695784,4.0.10.0,1,3,demographics,gender,0,0,0,0,0,0,male,1,2307,0
071218,15:33:00,857942750,752504405,4.0.10.0,1,1,demographics,ProlificCode,0,0,0,0,0,0,,1,11950,0
071218,15:33:25,857942750,752504405,4.0.10.0,1,1,demographics,ProlificCode,0,0,0,0,0,0,56addda15ea7aa000bbdfbd1,1,2050,0
071218,15:33:25,857942750,752504405,4.0.10.0,1,2,demographics,age,0,0,0,0,0,0,39,1,2263,0
071218,15:33:25,857942750,752504405,4.0.10.0,1,3,demographics,gender,0,0,0,0,0,0,f,1,2436,0
071218,15:33:28,590826703,74695784,4.0.10.0,1,1,demographics,ProlificCode,0,0,0,0,0,0,5b0283c5293d31000102506b,1,3570,0
071218,15:33:28,590826703,74695784,4.0.10.0,1,2,demographics,age,0,0,0,0,0,0,29,1,53950,0
071218,15:33:28,590826703,74695784,4.0.10.0,1,3,demographics,gender,0,0,0,0,0,0,male,1,21360,0
071218,15:38:48,628784538,682413259,4.0.10.0,1,1,demographics,ProlificCode,0,0,0,0,0,0,5abe7c59f69e940001d94530,1,14513,0
071218,15:38:48,628784538,682413259,4.0.10.0,1,2,demographics,age,0,0,0,0,0,0,26,1,2948,0
071218,15:38:48,628784538,682413259,4.0.10.0,1,3,demographics,gender,0,0,0,0,0,0,female,1,3951,0
071218,10:39:29,117844292,606586116,4.0.10.0,1,1,demographics,ProlificCode,0,0,0,0,0,0,5b1828bb506a840001ae1261,1,4789,0
071218,10:39:29,117844292,606586116,4.0.10.0,1,2,demographics,age,0,0,0,0,0,0,28,1,2650,0
071218,10:39:29,117844292,606586116,4.0.10.0,1,3,demographics,gender,0,0,0,0,0,0,Female,1,2813,0
071218,09:42:01,130661988,560873965,4.0.10.0,1,1,demographics,ProlificCode,0,0,0,0,0,0,58f76757fb4d7500014af761,1,16553,0
071218,09:42:01,130661988,560873965,4.0.10.0,1,2,demographics,age,0,0,0,0,0,0,26,1,3539,0
071218,09:42:01,130661988,560873965,4.0.10.0,1,3,demographics,gender,0,0,0,0,0,0,Female,1,3983,0
071218,16:48:57,196470792,938096670,4.0.10.0,1,1,demographics,ProlificCode,0,0,0,0,0,0,55c8f221fdf99b2db9fc6ba4,1,4904,0
071218,16:48:57,196470792,938096670,4.0.10.0,1,2,demographics,age,0,0,0,0,0,0,26,1,3546,0
071218,16:48:57,196470792,938096670,4.0.10.0,1,3,demographics,gender,0,0,0,0,0,0,Male,1,4009,0
071218,15:50:46,852726307,496840284,4.0.10.0,1,1,demographics,ProlificCode,0,0,0,0,0,0,5a5e2645e0cf3d000126a4af,1,25607,0
071218,15:50:46,852726307,496840284,4.0.10.0,1,2,demographics,age,0,0,0,0,0,0,26,1,4735,0
071218,15:50:46,852726307,496840284,4.0.10.0,1,3,demographics,gender,0,0,0,0,0,0,Female ,1,6678,0
071218,10:51:06,90788605,423794130,4.0.10.0,1,1,demographics,ProlificCode,0,0,0,0,0,0,,1,20229,0
071218,10:51:50,90788605,423794130,4.0.10.0,1,1,demographics,ProlificCode,0,0,0,0,0,0,5a9c76db89de8200013f14b7,1,7218,0
071218,10:51:50,90788605,423794130,4.0.10.0,1,2,demographics,age,0,0,0,0,0,0,45,1,3691,0
071218,10:51:50,90788605,423794130,4.0.10.0,1,3,demographics,gender,0,0,0,0,0,0,Female,1,6260,0
071218,15:53:43,307261225,407826805,4.0.10.0,1,1,demographics,ProlificCode,0,0,0,0,0,0,5978de6ca0b66b0001ea6bca,1,4265,0
071218,15:53:43,307261225,407826805,4.0.10.0,1,2,demographics,age,0,0,0,0,0,0,23,1,2989,0
071218,15:53:43,307261225,407826805,4.0.10.0,1,3,demographics,gender,0,0,0,0,0,0,Male,1,3284,0
071218,15:54:46,307261225,407826805,4.0.10.0,1,1,demographics,ProlificCode,0,0,0,0,0,0,5978de6ca0b66b0001ea6bca,1,1263,0
071218,15:54:46,307261225,407826805,4.0.10.0,1,2,demographics,age,0,0,0,0,0,0,23,1,1428,0
071218,15:54:46,307261225,407826805,4.0.10.0,1,3,demographics,gender,0,0,0,0,0,0,Male,1,2225,0
071218,15:56:22,435053026,489270658,4.0.10.0,1,1,demographics,ProlificCode,0,0,0,0,0,0,59790cac6269ab0001789706,1,7638,0
071218,15:56:22,435053026,489270658,4.0.10.0,1,2,demographics,age,0,0,0,0,0,0,42,1,3349,0
071218,15:56:22,435053026,489270658,4.0.10.0,1,3,demographics,gender,0,0,0,0,0,0,Female,1,5388,0
071218,15:57:29,783468118,377619931,4.0.10.0,1,1,demographics,ProlificCode,0,0,0,0,0,0,59b6b49259f3df0001e086e5,1,8445,0
071218,15:57:29,783468118,377619931,4.0.10.0,1,2,demographics,age,0,0,0,0,0,0,26,1,3475,0
071218,15:57:29,783468118,377619931,4.0.10.0,1,3,demographics,gender,0,0,0,0,0,0,male,1,3528,0
071218,09:59:45,846694006,593781581,4.0.10.0,1,1,demographics,ProlificCode,0,0,0,0,0,0,5acab7e7e1099600016abc69,1,4990,0
071218,09:59:45,846694006,593781581,4.0.10.0,1,2,demographics,age,0,0,0,0,0,0,24,1,6664,0
071218,09:59:45,846694006,593781581,4.0.10.0,1,3,demographics,gender,0,0,0,0,0,0,male,1,3950,0
071218,16:02:16,526192182,624910305,4.0.10.0,1,1,demographics,ProlificCode,0,0,0,0,0,0,5ac72bbf1667e40001d8787a,1,3323,0
071218,16:02:16,526192182,624910305,4.0.10.0,1,2,demographics,age,0,0,0,0,0,0,39,1,3955,0
071218,16:02:16,526192182,624910305,4.0.10.0,1,3,demographics,gender,0,0,0,0,0,0,female,1,9365,0
071218,16:02:45,336116221,83203792,4.0.10.0,1,1,demographics,ProlificCode,0,0,0,0,0,0,59346cc74ecc2d0001e7e41e,1,3261,0
071218,16:02:45,336116221,83203792,4.0.10.0,1,2,demographics,age,0,0,0,0,0,0,24,1,3329,0
071218,16:02:45,336116221,83203792,4.0.10.0,1,3,demographics,gender,0,0,0,0,0,0,male,1,4289,0
071218,11:05:24,627371688,64892823,4.0.10.0,1,1,demographics,ProlificCode,0,0,0,0,0,0,,1,25860,0
071218,11:06:21,627371688,64892823,4.0.10.0,1,1,demographics,ProlificCode,0,0,0,0,0,0,568ed143e3ef9e000ca20973,1,3264,0
071218,11:06:21,627371688,64892823,4.0.10.0,1,2,demographics,age,0,0,0,0,0,0,40,1,3250,0
071218,11:06:21,627371688,64892823,4.0.10.0,1,3,demographics,gender,0,0,0,0,0,0,female,1,6509,0
071218,11:07:37,627371688,64892823,4.0.10.0,1,1,demographics,ProlificCode,0,0,0,0,0,0,568ed143e3ef9e000ca20973,1,2524,0
071218,11:07:37,627371688,64892823,4.0.10.0,1,2,demographics,age,0,0,0,0,0,0,40,1,2635,0
071218,11:07:37,627371688,64892823,4.0.10.0,1,3,demographics,gender,0,0,0,0,0,0,female,1,4147,0
071218,16:09:20,323863338,530427812,4.0.10.0,1,1,demographics,ProlificCode,0,0,0,0,0,0,56069571d7def2000eb731f7,1,3846,0
071218,16:09:20,323863338,530427812,4.0.10.0,1,2,demographics,age,0,0,0,0,0,0,40,1,3602,0
071218,16:09:20,323863338,530427812,4.0.10.0,1,3,demographics,gender,0,0,0,0,0,0,m,1,2425,0
071318,01:10:48,463061784,595598426,4.0.10.0,1,1,demographics,ProlificCode,0,0,0,0,0,0,5b20745b3522660001b4812c,1,63356,0
071318,01:10:48,463061784,595598426,4.0.10.0,1,2,demographics,age,0,0,0,0,0,0,31,1,4015,0
071318,01:10:48,463061784,595598426,4.0.10.0,1,3,demographics,gender,0,0,0,0,0,0,Female,1,3784,0
071218,16:12:04,322117296,117989195,4.0.10.0,1,1,demographics,ProlificCode,0,0,0,0,0,0,59b51dd49f80a10001e826a1,1,4820,0
071218,16:12:04,322117296,117989195,4.0.10.0,1,2,demographics,age,0,0,0,0,0,0,38,1,5283,0
071218,16:12:04,322117296,117989195,4.0.10.0,1,3,demographics,gender,0,0,0,0,0,0,Male,1,4848,0
