date,time,subject,blockcode,blocknum,prime_type,trialnum,values.primestim,values.targetstim,correct,latency,trial.prime_positive.totalpercentcorrect,trial.prime_negative.totalpercentcorrect,influenced
71218,15:14:29,148697371,test,2,1,2,4,139,1,1236,100,0,0
71218,15:14:29,148697371,test,2,1,4,10,168,1,1917,100,0,1
71218,15:14:29,148697371,test,2,1,6,8,2,1,2618,100,0,1
71218,15:14:29,148697371,test,2,0,8,12,40,0,1948,100,0,1
71218,15:14:29,148697371,test,2,1,10,3,58,1,984,100,0,1
71218,15:14:29,148697371,test,2,1,12,6,103,1,586,100,0,1
71218,15:14:29,148697371,test,2,0,14,1,69,0,2268,100,0,1
71218,15:14:29,148697371,test,2,1,16,7,61,1,1997,100,0,1
71218,15:14:29,148697371,test,2,0,18,9,199,0,1576,100,0,1
71218,15:14:29,148697371,test,2,1,20,2,98,1,611,100,0,1
71218,15:14:29,148697371,test,2,1,22,9,43,1,741,100,0,1
71218,15:14:29,148697371,test,2,0,24,4,48,0,770,100,0,1
71218,15:14:29,148697371,test,2,0,26,11,164,1,2525,100,20,0
71218,15:14:29,148697371,test,2,1,28,7,117,1,691,100,20,1
71218,15:14:29,148697371,test,2,0,30,6,83,0,2401,100,16,1
71218,15:14:29,148697371,test,2,0,32,7,114,0,1340,100,14,1
71218,15:14:29,148697371,test,2,0,34,9,115,0,753,100,12,1
71218,15:14:29,148697371,test,2,0,36,7,136,0,797,100,11,1
71218,15:14:29,148697371,test,2,0,38,11,11,0,2967,100,10,0
71218,15:14:29,148697371,test,2,1,40,3,161,1,459,100,10,1
71218,15:14:29,148697371,test,2,1,42,4,77,1,1155,100,10,1
71218,15:14:29,148697371,test,2,0,44,6,126,0,895,100,9,1
71218,15:14:29,148697371,test,2,1,46,8,1,1,582,100,9,1
71218,15:14:29,148697371,test,2,0,48,1,192,0,463,100,8,1
71218,15:14:29,148697371,test,2,0,50,2,186,0,593,100,7,1
71218,15:14:29,148697371,test,2,1,52,12,63,1,1140,100,7,0
71218,15:14:29,148697371,test,2,1,54,2,150,1,1248,100,7,1
71218,15:14:29,148697371,test,2,1,56,1,19,1,345,100,7,1
71218,15:14:29,148697371,test,2,0,58,5,148,0,518,100,7,1
71218,15:14:29,148697371,test,2,0,60,12,38,0,603,100,6,1
71218,15:14:29,148697371,test,2,1,62,10,36,1,1405,100,6,1
71218,15:14:29,148697371,test,2,1,64,11,132,1,831,100,6,1
71218,15:14:29,148697371,test,2,1,66,6,64,1,329,100,6,1
71218,15:14:29,148697371,test,2,0,68,10,154,0,1335,100,6,1
71218,15:14:29,148697371,test,2,0,70,4,198,0,764,100,5,1
71218,15:14:29,148697371,test,2,1,72,5,87,1,1655,100,5,1
71218,15:14:29,148697371,test,2,1,74,10,56,1,784,100,5,1
71218,15:14:29,148697371,test,2,1,76,1,137,1,394,100,5,1
71218,15:14:29,148697371,test,2,1,78,9,128,1,405,100,5,1
71218,15:14:29,148697371,test,2,0,80,3,158,0,2094,100,5,1
71218,15:14:29,148697371,test,2,0,82,8,49,0,2197,100,5,1
71218,15:14:29,148697371,test,2,0,84,12,72,0,473,100,5,1
71218,15:14:29,148697371,test,2,1,86,7,194,1,545,100,5,1
71218,15:14:29,148697371,test,2,0,88,10,174,0,485,100,4,1
71218,15:14:29,148697371,test,2,1,90,3,68,1,604,100,4,1
71218,15:14:29,148697371,test,2,1,92,2,73,1,622,100,4,1
71218,15:14:29,148697371,test,2,1,94,5,134,1,415,100,4,1
71218,15:14:29,148697371,test,2,1,96,6,47,1,345,100,4,1
71218,15:14:29,148697371,test,2,1,98,12,18,1,518,100,4,1
71218,15:14:29,148697371,test,2,1,100,4,113,1,572,100,4,1
71218,15:14:29,148697371,test,2,0,102,9,8,0,559,100,4,1
71218,15:14:29,148697371,test,2,0,104,5,125,0,419,100,4,1
71218,15:14:29,148697371,test,2,0,106,4,32,0,428,100,4,1
71218,15:14:29,148697371,test,2,0,108,7,78,0,709,100,4,1
71218,15:14:29,148697371,test,2,0,110,6,12,0,467,100,3,1
71218,15:14:29,148697371,test,2,0,112,2,44,0,459,100,3,1
71218,15:14:29,148697371,test,2,0,114,3,16,0,595,100,3,1
71218,15:14:29,148697371,test,2,0,116,8,123,0,517,100,3,1
71218,15:14:29,148697371,test,2,0,118,11,165,0,666,100,3,1
71218,15:14:29,148697371,test,2,0,120,1,140,0,842,100,3,1
71218,15:14:29,148697371,test,2,0,122,10,35,0,323,100,3,1
71218,15:14:29,148697371,test,2,0,124,6,23,0,400,100,3,1
71218,15:14:29,148697371,test,2,0,126,8,119,0,458,100,2,1
71218,15:14:29,148697371,test,2,1,128,11,142,1,722,100,2,1
71218,15:14:29,148697371,test,2,0,130,4,163,0,399,100,2,1
71218,15:14:29,148697371,test,2,0,132,2,92,0,761,100,2,1
71218,15:14:29,148697371,test,2,1,134,8,57,1,406,100,2,1
71218,15:14:29,148697371,test,2,1,136,10,93,1,272,100,2,1
71218,15:14:29,148697371,test,2,0,138,11,191,0,304,100,2,1
71218,15:14:29,148697371,test,2,1,140,9,15,1,415,100,2,1
71218,15:14:29,148697371,test,2,1,142,4,122,1,425,100,2,1
71218,15:14:29,148697371,test,2,0,144,9,173,1,434,100,5,1
71218,15:14:29,148697371,test,2,0,146,1,157,0,1324,100,5,1
71218,15:14:29,148697371,test,2,0,148,7,59,0,930,100,5,1
71218,15:14:29,148697371,test,2,1,150,3,185,1,551,100,5,1
71218,15:14:29,148697371,test,2,0,152,5,111,0,620,100,4,1
71218,15:14:29,148697371,test,2,0,154,3,24,0,814,100,4,1
71218,15:14:29,148697371,test,2,1,156,7,96,1,680,100,4,1
71218,15:14:29,148697371,test,2,1,158,5,97,1,616,100,4,1
71218,15:14:29,148697371,test,2,0,160,12,146,0,362,100,4,1
71218,15:14:29,148697371,test,2,1,162,11,107,1,311,100,4,1
71218,15:14:29,148697371,test,2,1,164,1,7,1,517,100,4,1
71218,15:14:29,148697371,test,2,0,166,4,90,0,410,100,4,1
71218,15:14:29,148697371,test,2,1,168,8,156,1,533,100,4,1
71218,15:14:29,148697371,test,2,1,170,2,179,1,442,100,4,1
71218,15:14:29,148697371,test,2,0,172,6,133,0,499,100,4,1
71218,15:14:29,148697371,test,2,0,174,12,10,0,410,100,4,1
71218,15:14:29,148697371,test,2,1,176,6,177,1,516,100,4,1
71218,15:14:29,148697371,test,2,0,178,3,25,0,426,100,4,1
71218,15:14:29,148697371,test,2,0,180,5,100,0,307,100,4,1
71218,15:14:29,148697371,test,2,1,182,12,105,1,1441,100,4,0
71218,15:14:29,148697371,test,2,1,184,8,54,1,1538,100,4,1
71218,15:14:29,148697371,test,2,0,186,7,74,0,639,100,4,1
71218,15:14:29,148697371,test,2,1,188,4,71,0,2304,97,4,0
71218,15:14:29,148697371,test,2,1,190,7,79,1,1135,97,4,0
71218,15:14:29,148697371,test,2,1,192,6,152,1,1019,97,4,1
71218,15:14:29,148697371,test,2,0,194,9,80,0,765,97,4,1
71218,15:14:29,148697371,test,2,1,196,9,175,1,1418,97,4,0
71218,15:14:29,148697371,test,2,1,198,2,51,1,1531,97,4,1
71218,15:14:29,148697371,test,2,0,200,11,65,0,2057,97,3,1
71218,15:14:29,148697371,test,2,1,202,5,34,0,1010,96,3,0
71218,15:14:29,148697371,test,2,0,204,2,62,0,1252,96,3,1
71218,15:14:29,148697371,test,2,1,206,1,30,1,796,96,3,1
71218,15:14:29,148697371,test,2,1,208,12,176,1,663,96,3,1
71218,15:14:29,148697371,test,2,0,210,8,120,0,2744,96,3,1
71218,15:14:29,148697371,test,2,0,212,10,130,0,550,96,3,1
71218,15:14:29,148697371,test,2,1,214,10,9,1,1643,96,3,0
71218,15:14:29,148697371,test,2,0,216,1,42,0,2244,96,3,1
71218,15:14:29,148697371,test,2,0,218,5,109,1,1638,96,5,0
71218,15:14:29,148697371,test,2,1,220,11,14,1,2062,96,5,1
71218,15:14:29,148697371,test,2,1,222,3,188,1,1016,96,5,1
71218,15:14:29,148697371,test,2,1,224,10,160,1,858,96,5,0
71218,15:14:29,148697371,test,2,1,226,12,195,1,1553,96,5,0
71218,15:14:29,148697371,test,2,0,228,3,189,0,1501,96,5,1
71218,15:14:29,148697371,test,2,1,230,3,27,1,860,96,5,1
71218,15:14:29,148697371,test,2,0,232,4,184,0,1140,96,5,1
71218,15:14:29,148697371,test,2,1,234,7,95,1,1489,96,5,0
71218,15:14:29,148697371,test,2,1,236,9,104,1,816,96,5,0
71218,15:14:29,148697371,test,2,0,238,12,84,0,1512,96,5,0
71218,15:14:29,148697371,test,2,0,240,1,53,0,1366,96,5,1
71218,15:13:32,787416013,test,2,0,2,7,34,0,694,0,0,0
71218,15:13:32,787416013,test,2,0,4,10,82,0,645,0,0,0
71218,15:13:32,787416013,test,2,1,6,10,155,1,581,100,0,0
71218,15:13:32,787416013,test,2,0,8,4,164,0,717,100,0,0
71218,15:13:32,787416013,test,2,1,10,7,116,1,459,100,0,0
71218,15:13:32,787416013,test,2,0,12,6,5,0,838,100,0,0
71218,15:13:32,787416013,test,2,1,14,6,36,0,694,66,0,0
71218,15:13:32,787416013,test,2,0,16,8,195,0,830,66,0,0
71218,15:13:32,787416013,test,2,0,18,12,8,1,659,66,16,0
71218,15:13:32,787416013,test,2,0,20,5,159,0,777,66,14,0
71218,15:13:32,787416013,test,2,0,22,12,177,1,771,66,25,0
71218,15:13:32,787416013,test,2,1,24,4,183,0,787,50,25,0
71218,15:13:32,787416013,test,2,1,26,5,38,1,647,60,25,0
71218,15:13:32,787416013,test,2,0,28,6,42,0,840,60,22,0
71218,15:13:32,787416013,test,2,0,30,10,131,0,791,60,20,0
71218,15:13:32,787416013,test,2,0,32,8,149,1,486,60,27,0
71218,15:13:32,787416013,test,2,1,34,9,200,1,803,66,27,0
71218,15:13:32,787416013,test,2,0,36,1,80,0,656,66,25,0
71218,15:13:32,787416013,test,2,1,38,3,143,0,679,57,25,0
71218,15:13:32,787416013,test,2,1,40,9,108,1,674,62,25,0
71218,15:13:32,787416013,test,2,1,42,12,60,0,776,55,25,0
71218,15:13:32,787416013,test,2,0,44,4,24,1,875,55,30,0
71218,15:13:32,787416013,test,2,0,46,9,19,0,541,55,28,0
71218,15:13:32,787416013,test,2,1,48,7,103,1,571,60,28,0
71218,15:13:32,787416013,test,2,0,50,3,26,0,636,60,26,0
71218,15:13:32,787416013,test,2,0,52,7,186,1,489,60,31,0
71218,15:13:32,787416013,test,2,0,54,5,21,0,660,60,29,0
71218,15:13:32,787416013,test,2,0,56,2,31,0,483,60,27,0
71218,15:13:32,787416013,test,2,0,58,11,180,1,429,60,31,0
71218,15:13:32,787416013,test,2,0,60,1,12,0,605,60,30,0
71218,15:13:32,787416013,test,2,0,62,7,126,0,870,60,28,0
71218,15:13:32,787416013,test,2,1,64,5,198,1,1041,63,28,0
71218,15:13:32,787416013,test,2,0,66,3,184,1,688,63,31,0
71218,15:13:32,787416013,test,2,0,68,5,150,0,535,63,30,0
71218,15:13:32,787416013,test,2,1,70,8,45,0,802,58,30,0
71218,15:13:32,787416013,test,2,1,72,3,90,0,757,53,30,0
71218,15:13:32,787416013,test,2,0,74,4,13,1,515,53,33,0
71218,15:13:32,787416013,test,2,0,76,11,154,0,707,53,32,0
71218,15:13:32,787416013,test,2,0,78,10,4,0,633,53,30,0
71218,15:13:32,787416013,test,2,0,80,6,167,1,656,53,33,0
71218,15:13:32,787416013,test,2,1,82,4,44,0,622,50,33,0
71218,15:13:32,787416013,test,2,0,84,8,32,0,543,50,32,0
71218,15:13:32,787416013,test,2,0,86,12,134,1,515,50,34,0
71218,15:13:32,787416013,test,2,0,88,2,30,0,441,50,33,0
71218,15:13:32,787416013,test,2,1,90,1,122,1,615,53,33,0
71218,15:13:32,787416013,test,2,1,92,6,49,0,504,50,33,0
71218,15:13:32,787416013,test,2,0,94,9,118,1,477,50,35,0
71218,15:13:32,787416013,test,2,1,96,2,94,0,522,47,35,0
71218,15:13:32,787416013,test,2,1,98,11,146,1,587,50,35,0
71218,15:13:32,787416013,test,2,1,100,10,174,0,540,47,35,0
71218,15:13:32,787416013,test,2,1,102,6,158,1,391,50,35,0
71218,15:13:32,787416013,test,2,0,104,12,58,0,483,50,34,0
71218,15:13:32,787416013,test,2,0,106,5,83,0,596,50,33,0
71218,15:13:32,787416013,test,2,1,108,7,7,0,667,47,33,0
71218,15:13:32,787416013,test,2,0,110,8,68,1,580,47,35,0
71218,15:13:32,787416013,test,2,1,112,1,182,1,809,50,35,0
71218,15:13:32,787416013,test,2,1,114,4,52,0,467,47,35,0
71218,15:13:32,787416013,test,2,0,116,10,76,0,589,47,34,0
71218,15:13:32,787416013,test,2,0,118,4,142,1,464,47,36,0
71218,15:13:32,787416013,test,2,1,120,12,85,0,687,45,36,0
71218,15:13:32,787416013,test,2,1,122,11,139,1,446,48,36,0
71218,15:13:32,787416013,test,2,0,124,6,102,1,466,48,37,0
71218,15:13:32,787416013,test,2,1,126,5,178,0,818,46,37,0
71218,15:13:32,787416013,test,2,0,128,1,95,1,413,46,39,0
71218,15:13:32,787416013,test,2,1,130,2,112,1,436,48,39,0
71218,15:13:32,787416013,test,2,1,132,3,194,1,517,50,39,0
71218,15:13:32,787416013,test,2,1,134,10,172,1,476,51,39,0
71218,15:13:32,787416013,test,2,1,136,8,191,1,580,53,39,0
71218,15:13:32,787416013,test,2,0,138,2,92,1,445,53,41,0
71218,15:13:32,787416013,test,2,1,140,9,89,1,522,54,41,0
71218,15:13:32,787416013,test,2,1,142,5,133,1,510,56,41,0
71218,15:13:32,787416013,test,2,1,144,8,148,1,521,57,41,0
71218,15:13:32,787416013,test,2,1,146,3,74,1,466,58,41,0
71218,15:13:32,787416013,test,2,0,148,9,1,0,357,58,40,0
71218,15:13:32,787416013,test,2,1,150,10,114,1,436,60,40,0
71218,15:13:32,787416013,test,2,1,152,4,41,0,409,58,40,0
71218,15:13:32,787416013,test,2,0,154,7,170,1,501,58,41,0
71218,15:13:32,787416013,test,2,1,156,7,153,1,476,59,41,0
71218,15:13:32,787416013,test,2,1,158,12,39,1,1169,60,41,0
71218,15:13:32,787416013,test,2,1,160,1,69,0,479,58,41,0
71218,15:13:32,787416013,test,2,0,162,11,91,0,584,58,40,0
71218,15:13:32,787416013,test,2,1,164,11,47,0,470,57,40,0
71218,15:13:32,787416013,test,2,0,166,3,15,0,608,57,39,0
71218,15:13:32,787416013,test,2,1,168,2,33,1,461,58,39,0
71218,15:13:32,787416013,test,2,1,170,9,144,1,519,59,39,0
71218,15:13:32,787416013,test,2,0,172,3,27,1,453,59,40,0
71218,15:13:32,787416013,test,2,1,174,6,130,1,437,60,40,0
71218,15:13:32,787416013,test,2,0,176,1,6,0,679,60,40,0
71218,15:13:32,787416013,test,2,1,178,3,104,1,655,61,40,0
71218,15:13:32,787416013,test,2,1,180,8,10,0,390,60,40,0
71218,15:13:32,787416013,test,2,1,182,6,23,1,364,60,40,0
71218,15:13:32,787416013,test,2,0,184,10,199,1,563,60,41,0
71218,15:13:32,787416013,test,2,0,186,2,93,1,770,60,42,0
71218,15:13:32,787416013,test,2,0,188,8,171,0,427,60,41,0
71218,15:13:32,787416013,test,2,0,190,11,111,1,461,60,42,0
71218,15:13:32,787416013,test,2,1,192,5,40,1,818,61,42,0
71218,15:13:32,787416013,test,2,0,194,6,9,1,499,61,44,0
71218,15:13:32,787416013,test,2,0,196,9,86,1,723,61,45,0
71218,15:13:32,787416013,test,2,0,198,7,160,1,471,61,46,0
71218,15:13:32,787416013,test,2,0,200,4,113,0,383,61,45,0
71218,15:13:32,787416013,test,2,1,202,9,115,1,734,62,45,0
71218,15:13:32,787416013,test,2,1,204,12,57,0,426,61,45,0
71218,15:13:32,787416013,test,2,0,206,12,165,1,485,61,46,0
71218,15:13:32,787416013,test,2,1,208,4,157,0,762,60,46,0
71218,15:13:32,787416013,test,2,1,210,10,123,1,467,60,46,0
71218,15:13:32,787416013,test,2,1,212,7,73,0,578,59,46,0
71218,15:13:32,787416013,test,2,1,214,1,110,1,448,60,46,0
71218,15:13:32,787416013,test,2,1,216,11,22,1,465,61,46,0
71218,15:13:32,787416013,test,2,1,218,2,189,1,507,61,46,0
71218,15:13:32,787416013,test,2,1,220,11,147,1,554,62,46,0
71218,15:13:32,787416013,test,2,0,222,5,106,1,946,62,47,0
71218,15:13:32,787416013,test,2,1,224,7,63,0,778,61,47,0
71218,15:13:32,787416013,test,2,1,226,2,128,1,640,62,47,0
71218,15:13:32,787416013,test,2,1,228,9,137,1,502,62,47,0
71218,15:13:32,787416013,test,2,0,230,9,145,0,683,62,46,0
71218,15:13:32,787416013,test,2,1,232,3,173,1,548,63,46,0
71218,15:13:32,787416013,test,2,0,234,5,35,0,526,63,45,0
71218,15:13:32,787416013,test,2,0,236,7,48,0,578,63,44,0
71218,15:13:32,787416013,test,2,0,238,3,46,1,531,63,45,0
71218,15:13:32,787416013,test,2,0,240,6,125,1,416,63,46,0
71218,15:17:48,493020342,test,2,1,2,4,185,1,1062,100,0,0
71218,15:17:48,493020342,test,2,0,4,9,195,0,493,100,0,0
71218,15:17:48,493020342,test,2,0,6,11,100,1,454,100,50,0
71218,15:17:48,493020342,test,2,0,8,4,179,1,450,100,66,0
71218,15:17:48,493020342,test,2,1,10,11,165,1,485,100,66,0
71218,15:17:48,493020342,test,2,1,12,7,103,0,359,66,66,0
71218,15:17:48,493020342,test,2,1,14,1,123,0,963,50,66,0
71218,15:17:48,493020342,test,2,1,16,9,190,1,736,60,66,0
71218,15:17:48,493020342,test,2,1,18,8,49,0,233,50,66,0
71218,15:17:48,493020342,test,2,1,20,5,36,1,1842,57,66,0
71218,15:17:48,493020342,test,2,1,22,3,89,0,367,50,66,0
71218,15:17:48,493020342,test,2,0,24,10,168,1,324,50,75,0
71218,15:17:48,493020342,test,2,1,26,1,44,1,478,55,75,0
71218,15:17:48,493020342,test,2,1,28,2,142,1,480,60,75,0
71218,15:17:48,493020342,test,2,0,30,3,12,0,724,60,60,0
71218,15:17:48,493020342,test,2,1,32,9,157,1,647,63,60,0
71218,15:17:48,493020342,test,2,1,34,12,107,0,639,58,60,0
71218,15:17:48,493020342,test,2,0,36,7,106,1,522,58,66,0
71218,15:17:48,493020342,test,2,0,38,12,85,1,643,58,71,0
71218,15:17:48,493020342,test,2,1,40,6,84,1,372,61,71,0
71218,15:17:48,493020342,test,2,0,42,11,82,1,278,61,75,0
71218,15:17:48,493020342,test,2,0,44,7,125,0,703,61,66,1
71218,15:17:48,493020342,test,2,0,46,8,166,1,851,61,70,0
71218,15:17:48,493020342,test,2,1,48,7,137,1,408,64,70,0
71218,15:17:48,493020342,test,2,0,50,12,39,1,688,64,72,0
71218,15:17:48,493020342,test,2,0,52,5,182,1,515,64,75,0
71218,15:17:48,493020342,test,2,0,54,2,109,0,471,64,69,1
71218,15:17:48,493020342,test,2,0,56,3,181,1,409,64,71,0
71218,15:17:48,493020342,test,2,0,58,9,38,1,673,64,73,0
71218,15:17:48,493020342,test,2,0,60,4,101,1,747,64,75,0
71218,15:17:48,493020342,test,2,1,62,4,138,1,124,66,75,0
71218,15:17:48,493020342,test,2,1,64,11,27,1,367,68,75,0
71218,15:17:48,493020342,test,2,0,66,6,52,1,470,68,76,0
71218,15:17:48,493020342,test,2,1,68,8,57,1,436,70,76,1
71218,15:17:48,493020342,test,2,1,70,5,72,1,517,72,76,0
71218,15:17:48,493020342,test,2,0,72,10,193,1,593,72,77,0
71218,15:17:48,493020342,test,2,1,74,10,184,1,818,73,77,0
71218,15:17:48,493020342,test,2,1,76,12,11,0,522,70,77,1
71218,15:17:48,493020342,test,2,0,78,1,33,0,939,70,73,1
71218,15:17:48,493020342,test,2,0,80,9,194,1,735,70,75,0
71218,15:17:48,493020342,test,2,0,82,11,79,1,698,70,76,0
71218,15:17:48,493020342,test,2,0,84,8,20,1,749,70,77,0
71218,15:17:48,493020342,test,2,0,86,1,154,1,532,70,78,0
71218,15:17:48,493020342,test,2,1,88,3,13,1,445,71,78,0
71218,15:17:48,493020342,test,2,0,90,7,9,1,514,71,79,0
71218,15:17:48,493020342,test,2,1,92,6,66,1,191,72,79,1
71218,15:17:48,493020342,test,2,0,94,6,169,1,395,72,80,0
71218,15:17:48,493020342,test,2,0,96,3,97,1,498,72,80,0
71218,15:17:48,493020342,test,2,0,98,2,192,0,206,72,77,1
71218,15:17:48,493020342,test,2,0,100,4,45,1,535,72,78,0
71218,15:17:48,493020342,test,2,1,102,9,120,1,457,73,78,0
71218,15:17:48,493020342,test,2,0,104,12,156,0,266,73,75,1
71218,15:17:48,493020342,test,2,1,106,8,64,1,428,75,75,0
71218,15:17:48,493020342,test,2,1,108,10,42,1,350,76,75,0
71218,15:17:48,493020342,test,2,0,110,10,71,1,504,76,76,0
71218,15:17:48,493020342,test,2,0,112,5,147,1,542,76,77,0
71218,15:17:48,493020342,test,2,0,114,12,16,0,739,76,75,1
71218,15:17:48,493020342,test,2,1,116,7,200,1,406,76,75,1
71218,15:17:48,493020342,test,2,0,118,10,124,1,412,76,75,0
71218,15:17:48,493020342,test,2,0,120,1,104,0,262,76,73,1
71218,15:17:48,493020342,test,2,1,122,11,150,1,435,77,73,0
71218,15:17:48,493020342,test,2,0,124,8,158,1,509,77,74,0
71218,15:17:48,493020342,test,2,1,126,4,61,1,696,78,74,0
71218,15:17:48,493020342,test,2,1,128,1,140,1,306,79,74,0
71218,15:17:48,493020342,test,2,1,130,5,113,1,599,80,74,0
71218,15:17:48,493020342,test,2,1,132,2,197,1,338,80,74,0
71218,15:17:48,493020342,test,2,0,134,9,56,1,420,80,75,0
71218,15:17:48,493020342,test,2,1,136,3,144,1,473,81,75,0
71218,15:17:48,493020342,test,2,1,138,10,43,1,1945,81,75,0
71218,15:17:48,493020342,test,2,1,140,5,114,1,405,82,75,0
71218,15:17:48,493020342,test,2,0,142,2,111,1,1347,82,75,0
71218,15:17:48,493020342,test,2,0,144,6,139,0,503,82,73,1
71218,15:17:48,493020342,test,2,0,146,3,95,0,813,82,71,0
71218,15:17:48,493020342,test,2,1,148,1,119,1,187,82,71,0
71218,15:17:48,493020342,test,2,0,150,7,5,1,1405,82,72,0
71218,15:17:48,493020342,test,2,0,152,5,146,1,360,82,73,0
71218,15:17:48,493020342,test,2,1,154,9,65,1,324,83,73,0
71218,15:17:48,493020342,test,2,0,156,4,108,1,291,83,73,0
71218,15:17:48,493020342,test,2,0,158,11,199,1,599,83,74,0
71218,15:17:48,493020342,test,2,1,160,2,155,1,305,83,74,0
71218,15:17:48,493020342,test,2,0,162,6,134,1,313,83,75,0
71218,15:17:48,493020342,test,2,1,164,4,8,0,202,81,75,0
71218,15:17:48,493020342,test,2,0,166,5,175,0,399,81,73,0
71218,15:17:48,493020342,test,2,0,168,10,77,1,473,81,73,0
71218,15:17:48,493020342,test,2,0,170,8,118,1,79,81,74,0
71218,15:17:48,493020342,test,2,1,172,12,80,1,452,82,74,0
71218,15:17:48,493020342,test,2,0,174,3,128,1,299,82,75,0
71218,15:17:48,493020342,test,2,1,176,11,50,1,254,82,75,1
71218,15:17:48,493020342,test,2,1,178,6,198,1,444,82,75,0
71218,15:17:48,493020342,test,2,1,180,7,83,1,254,83,75,0
71218,15:17:48,493020342,test,2,1,182,8,121,1,325,83,75,0
71218,15:17:48,493020342,test,2,1,184,10,78,1,324,84,75,0
71218,15:17:48,493020342,test,2,0,186,9,133,1,433,84,75,0
71218,15:17:48,493020342,test,2,0,188,1,69,0,703,84,74,1
71218,15:17:48,493020342,test,2,0,190,7,180,1,332,84,74,0
71218,15:17:48,493020342,test,2,1,192,3,177,1,701,84,74,1
71218,15:17:48,493020342,test,2,0,194,4,23,1,339,84,75,0
71218,15:17:48,493020342,test,2,0,196,2,41,0,664,84,73,1
71218,15:17:48,493020342,test,2,0,198,12,188,1,375,84,74,0
71218,15:17:48,493020342,test,2,0,200,11,1,1,498,84,74,0
71218,15:17:48,493020342,test,2,0,202,6,34,1,360,84,75,0
71218,15:17:48,493020342,test,2,1,204,1,2,1,292,84,75,0
71218,15:17:48,493020342,test,2,1,206,9,88,1,276,85,75,0
71218,15:17:48,493020342,test,2,1,208,4,90,1,883,85,75,0
71218,15:17:48,493020342,test,2,1,210,8,31,1,644,85,75,0
71218,15:17:48,493020342,test,2,1,212,5,148,1,164,86,75,0
71218,15:17:48,493020342,test,2,0,214,4,126,0,3747,86,73,0
71218,15:17:48,493020342,test,2,0,216,1,7,0,499,86,72,1
71218,15:17:48,493020342,test,2,1,218,7,191,1,248,86,72,0
71218,15:17:48,493020342,test,2,1,220,11,55,1,332,86,72,0
71218,15:17:48,493020342,test,2,1,222,2,183,1,315,86,72,0
71218,15:17:48,493020342,test,2,1,224,6,143,1,297,87,72,0
71218,15:17:48,493020342,test,2,1,226,12,122,0,511,85,72,0
71218,15:17:48,493020342,test,2,0,228,9,136,1,318,85,72,0
71218,15:17:48,493020342,test,2,1,230,1,28,1,255,85,72,0
71218,15:17:48,493020342,test,2,1,232,6,159,1,411,85,72,0
71218,15:17:48,493020342,test,2,1,234,8,58,1,475,86,72,0
71218,15:17:48,493020342,test,2,1,236,10,54,1,4025,86,72,0
71218,15:17:48,493020342,test,2,1,238,7,22,1,320,86,72,0
71218,15:17:48,493020342,test,2,0,240,10,117,1,525,86,73,0
71218,15:22:45,883659666,test,2,0,2,7,47,1,664,0,100,1
71218,15:22:45,883659666,test,2,0,4,10,107,1,590,0,100,0
71218,15:22:45,883659666,test,2,1,6,12,91,0,602,0,100,0
71218,15:22:45,883659666,test,2,1,8,7,20,1,394,50,100,1
71218,15:22:45,883659666,test,2,0,10,1,177,0,859,50,66,1
71218,15:22:45,883659666,test,2,1,12,3,157,1,516,66,66,1
71218,15:22:45,883659666,test,2,0,14,3,102,0,636,66,50,1
71218,15:22:45,883659666,test,2,1,16,6,57,1,619,75,50,0
71218,15:22:45,883659666,test,2,0,18,6,5,1,652,75,60,0
71218,15:22:45,883659666,test,2,0,20,4,78,1,765,75,66,0
71218,15:22:45,883659666,test,2,1,22,2,31,1,472,80,66,1
71218,15:22:45,883659666,test,2,1,24,4,14,1,564,83,66,0
71218,15:22:45,883659666,test,2,1,26,8,168,1,725,85,66,1
71218,15:22:45,883659666,test,2,0,28,12,80,0,555,85,57,0
71218,15:22:45,883659666,test,2,0,30,5,101,1,466,85,62,0
71218,15:22:45,883659666,test,2,0,32,7,171,1,583,85,66,0
71218,15:22:45,883659666,test,2,0,34,4,60,1,412,85,70,0
71218,15:22:45,883659666,test,2,0,36,1,1,0,746,85,63,1
71218,15:22:45,883659666,test,2,0,38,12,95,0,882,85,58,0
71218,15:22:45,883659666,test,2,1,40,8,181,1,615,87,58,0
71218,15:22:45,883659666,test,2,0,42,3,114,1,468,87,61,0
71218,15:22:45,883659666,test,2,0,44,9,154,0,487,87,57,0
71218,15:22:45,883659666,test,2,1,46,6,11,1,448,88,57,1
71218,15:22:45,883659666,test,2,1,48,3,145,1,368,90,57,1
71218,15:22:45,883659666,test,2,1,50,11,13,1,598,90,57,0
71218,15:22:45,883659666,test,2,0,52,8,93,0,671,90,53,1
71218,15:22:45,883659666,test,2,0,54,6,26,1,535,90,56,0
71218,15:22:45,883659666,test,2,0,56,2,90,0,516,90,52,1
71218,15:22:45,883659666,test,2,1,58,7,185,1,375,91,52,1
71218,15:22:45,883659666,test,2,1,60,2,88,1,381,92,52,1
71218,15:22:45,883659666,test,2,0,62,10,133,0,464,92,50,1
71218,15:22:45,883659666,test,2,0,64,11,96,1,508,92,52,0
71218,15:22:45,883659666,test,2,0,66,7,160,0,665,92,50,0
71218,15:22:45,883659666,test,2,1,68,10,108,0,517,85,50,0
71218,15:22:45,883659666,test,2,0,70,9,42,1,706,85,52,0
71218,15:22:45,883659666,test,2,1,72,1,184,1,369,86,52,0
71218,15:22:45,883659666,test,2,1,74,9,197,1,676,87,52,0
71218,15:22:45,883659666,test,2,0,76,12,187,0,429,87,50,1
71218,15:22:45,883659666,test,2,1,78,4,6,0,654,82,50,0
71218,15:22:45,883659666,test,2,0,80,4,98,1,379,82,52,0
71218,15:22:45,883659666,test,2,1,82,5,125,0,433,77,52,0
71218,15:22:45,883659666,test,2,1,84,12,40,1,502,78,52,1
71218,15:22:45,883659666,test,2,0,86,10,124,0,461,78,50,1
71218,15:22:45,883659666,test,2,0,88,2,34,0,399,78,48,1
71218,15:22:45,883659666,test,2,1,90,5,23,1,416,80,48,1
71218,15:22:45,883659666,test,2,1,92,11,156,0,564,76,48,0
71218,15:22:45,883659666,test,2,1,94,4,178,1,474,77,48,0
71218,15:22:45,883659666,test,2,1,96,10,55,1,408,78,48,1
71218,15:22:45,883659666,test,2,0,98,5,193,1,534,78,50,0
71218,15:22:45,883659666,test,2,0,100,3,66,0,520,78,48,1
71218,15:22:45,883659666,test,2,0,102,1,118,0,502,78,46,1
71218,15:22:45,883659666,test,2,1,104,2,121,1,394,79,46,1
71218,15:22:45,883659666,test,2,1,106,6,24,1,547,80,46,1
71218,15:22:45,883659666,test,2,1,108,3,192,1,398,80,46,1
71218,15:22:45,883659666,test,2,0,110,6,146,1,522,80,48,0
71218,15:22:45,883659666,test,2,1,112,9,135,1,637,81,48,0
71218,15:22:45,883659666,test,2,1,114,12,36,1,453,82,48,1
71218,15:22:45,883659666,test,2,1,116,7,94,1,363,82,48,1
71218,15:22:45,883659666,test,2,0,118,11,170,1,1951,82,50,0
71218,15:22:45,883659666,test,2,1,120,1,54,1,580,83,50,1
71218,15:22:45,883659666,test,2,1,122,8,110,1,451,83,50,1
71218,15:22:45,883659666,test,2,0,124,8,138,0,476,83,48,1
71218,15:22:45,883659666,test,2,1,126,3,163,1,316,84,48,1
71218,15:22:45,883659666,test,2,0,128,9,61,0,450,84,46,1
71218,15:22:45,883659666,test,2,0,130,8,128,0,509,84,45,1
71218,15:22:45,883659666,test,2,1,132,7,53,1,463,84,45,1
71218,15:22:45,883659666,test,2,0,134,6,9,1,562,84,47,0
71218,15:22:45,883659666,test,2,1,136,6,155,0,811,82,47,0
71218,15:22:45,883659666,test,2,0,138,2,112,0,562,82,45,1
71218,15:22:45,883659666,test,2,1,140,5,18,1,527,82,45,1
71218,15:22:45,883659666,test,2,1,142,10,71,0,510,80,45,1
71218,15:22:45,883659666,test,2,0,144,5,56,1,310,80,47,1
71218,15:22:45,883659666,test,2,0,146,4,131,1,128,80,48,0
71218,15:22:45,883659666,test,2,1,148,8,43,0,364,78,48,0
71218,15:22:45,883659666,test,2,0,150,3,70,0,405,78,47,1
71218,15:22:45,883659666,test,2,0,152,10,167,1,745,78,48,0
71218,15:22:45,883659666,test,2,1,154,12,130,0,930,76,48,0
71218,15:22:45,883659666,test,2,1,156,9,21,1,621,76,48,0
71218,15:22:45,883659666,test,2,0,158,11,85,0,424,76,47,0
71218,15:22:45,883659666,test,2,0,160,1,148,1,330,76,48,0
71218,15:22:45,883659666,test,2,0,162,12,162,1,751,76,50,0
71218,15:22:45,883659666,test,2,1,164,2,142,0,365,75,50,0
71218,15:22:45,883659666,test,2,0,166,7,169,1,615,75,51,0
71218,15:22:45,883659666,test,2,0,168,4,106,1,737,75,52,0
71218,15:22:45,883659666,test,2,1,170,4,117,1,1757,75,52,0
71218,15:22:45,883659666,test,2,1,172,11,4,1,527,76,52,0
71218,15:22:45,883659666,test,2,1,174,1,75,1,703,76,52,1
71218,15:22:45,883659666,test,2,1,176,6,152,0,469,75,52,0
71218,15:22:45,883659666,test,2,1,178,12,92,0,640,73,52,0
71218,15:22:45,883659666,test,2,0,180,6,188,1,491,73,53,0
71218,15:22:45,883659666,test,2,0,182,9,33,1,739,73,54,0
71218,15:22:45,883659666,test,2,0,184,10,164,1,1062,73,55,0
71218,15:22:45,883659666,test,2,0,186,1,79,0,490,73,54,1
71218,15:22:45,883659666,test,2,0,188,3,99,0,404,73,53,1
71218,15:22:45,883659666,test,2,1,190,3,65,1,775,73,53,0
71218,15:22:45,883659666,test,2,1,192,1,173,0,584,72,53,0
71218,15:22:45,883659666,test,2,0,194,11,37,1,646,72,54,0
71218,15:22:45,883659666,test,2,1,196,9,116,0,571,70,54,0
71218,15:22:45,883659666,test,2,0,198,5,7,0,487,70,52,0
71218,15:22:45,883659666,test,2,0,200,7,22,1,2324,70,53,0
71218,15:22:45,883659666,test,2,1,202,8,100,0,563,69,53,0
71218,15:22:45,883659666,test,2,1,204,10,52,1,511,70,53,0
71218,15:22:45,883659666,test,2,1,206,5,103,0,607,68,53,0
71218,15:22:45,883659666,test,2,0,208,8,144,0,594,68,52,0
71218,15:22:45,883659666,test,2,0,210,2,74,0,443,68,51,1
71218,15:22:45,883659666,test,2,0,212,12,198,0,517,68,50,0
71218,15:22:45,883659666,test,2,0,214,2,39,0,597,68,50,1
71218,15:22:45,883659666,test,2,1,216,4,143,1,293,69,50,0
71218,15:22:45,883659666,test,2,1,218,7,69,1,458,69,50,1
71218,15:22:45,883659666,test,2,0,220,10,166,0,474,69,49,0
71218,15:22:45,883659666,test,2,1,222,11,81,0,517,68,49,0
71218,15:22:45,883659666,test,2,1,224,2,49,1,633,69,49,0
71218,15:22:45,883659666,test,2,0,226,5,72,0,498,69,48,0
71218,15:22:45,883659666,test,2,1,228,10,136,0,631,67,48,0
71218,15:22:45,883659666,test,2,1,230,2,104,1,611,68,48,1
71218,15:22:45,883659666,test,2,0,232,12,83,0,530,68,47,0
71218,15:22:45,883659666,test,2,0,234,6,89,0,826,68,46,0
71218,15:22:45,883659666,test,2,1,236,9,30,1,494,68,46,0
71218,15:22:45,883659666,test,2,1,238,6,63,1,1182,69,46,0
71218,15:22:45,883659666,test,2,1,240,1,189,1,436,70,46,0
71218,15:23:27,46903798,test,2,0,2,2,150,1,3261,0,100,0
71218,15:23:27,46903798,test,2,1,4,3,14,1,975,100,100,0
71218,15:23:27,46903798,test,2,1,6,1,133,1,686,100,100,1
71218,15:23:27,46903798,test,2,1,8,10,100,1,940,100,100,0
71218,15:23:27,46903798,test,2,1,10,12,161,0,936,75,100,0
71218,15:23:27,46903798,test,2,0,12,5,189,0,867,75,50,0
71218,15:23:27,46903798,test,2,0,14,1,20,0,816,75,33,0
71218,15:23:27,46903798,test,2,1,16,8,85,0,783,60,33,0
71218,15:23:27,46903798,test,2,0,18,11,8,1,464,60,50,0
71218,15:23:27,46903798,test,2,1,20,6,30,1,655,66,50,0
71218,15:23:27,46903798,test,2,0,22,8,111,0,592,66,40,0
71218,15:23:27,46903798,test,2,1,24,9,90,1,813,71,40,0
71218,15:23:27,46903798,test,2,0,26,9,35,1,1596,71,50,0
71218,15:23:27,46903798,test,2,1,28,12,41,1,2695,75,50,1
71218,15:23:27,46903798,test,2,0,30,7,134,0,2334,75,42,0
71218,15:23:27,46903798,test,2,0,32,1,22,0,622,75,37,0
71218,15:23:27,46903798,test,2,1,34,9,116,1,607,77,37,0
71218,15:23:27,46903798,test,2,0,36,6,196,0,1490,77,33,0
71218,15:23:27,46903798,test,2,0,38,12,141,0,2995,77,30,0
71218,15:23:27,46903798,test,2,1,40,5,124,1,553,80,30,0
71218,15:23:27,46903798,test,2,0,42,3,7,0,661,80,27,0
71218,15:23:27,46903798,test,2,0,44,8,142,0,360,80,25,0
71218,15:23:27,46903798,test,2,1,46,1,127,1,422,81,25,0
71218,15:23:27,46903798,test,2,1,48,6,162,1,818,83,25,0
71218,15:23:27,46903798,test,2,0,50,9,105,0,905,83,23,0
71218,15:23:27,46903798,test,2,1,52,11,151,1,542,84,23,0
71218,15:23:27,46903798,test,2,0,54,7,92,0,1127,84,21,0
71218,15:23:27,46903798,test,2,1,56,8,49,1,1364,85,21,0
71218,15:23:27,46903798,test,2,1,58,7,132,1,502,86,21,0
71218,15:23:27,46903798,test,2,0,60,5,88,0,609,86,20,0
71218,15:23:27,46903798,test,2,1,62,10,167,1,1366,87,20,0
71218,15:23:27,46903798,test,2,1,64,3,64,1,432,88,20,0
71218,15:23:27,46903798,test,2,1,66,4,63,1,1419,88,20,0
71218,15:23:27,46903798,test,2,1,68,2,119,1,402,89,20,0
71218,15:23:27,46903798,test,2,1,70,12,74,0,7699,85,20,0
71218,15:23:27,46903798,test,2,1,72,2,45,1,399,85,20,0
71218,15:23:27,46903798,test,2,1,74,7,72,1,324,86,20,0
71218,15:23:27,46903798,test,2,1,76,10,42,1,496,86,20,0
71218,15:23:27,46903798,test,2,0,78,10,71,0,727,86,18,0
71218,15:23:27,46903798,test,2,0,80,2,98,0,608,86,17,0
71218,15:23:27,46903798,test,2,1,82,4,135,1,387,87,17,0
71218,15:23:27,46903798,test,2,1,84,9,13,1,531,88,17,0
71218,15:23:27,46903798,test,2,0,86,4,128,0,1549,88,16,0
71218,15:23:27,46903798,test,2,1,88,6,58,1,404,88,16,0
71218,15:23:27,46903798,test,2,0,90,11,59,0,1133,88,15,0
71218,15:23:27,46903798,test,2,0,92,6,131,0,488,88,15,0
71218,15:23:27,46903798,test,2,0,94,2,159,0,514,88,14,0
71218,15:23:27,46903798,test,2,0,96,7,70,0,420,88,13,0
71218,15:23:27,46903798,test,2,0,98,4,115,0,516,88,13,0
71218,15:23:27,46903798,test,2,0,100,1,33,0,386,88,12,0
71218,15:23:27,46903798,test,2,1,102,1,80,1,420,88,12,0
71218,15:23:27,46903798,test,2,0,104,11,112,0,1221,88,12,0
71218,15:23:27,46903798,test,2,0,106,3,178,0,537,88,11,0
71218,15:23:27,46903798,test,2,0,108,9,186,0,540,88,11,0
71218,15:23:27,46903798,test,2,1,110,5,118,1,1563,89,11,0
71218,15:23:27,46903798,test,2,0,112,12,37,0,1296,89,10,0
71218,15:23:27,46903798,test,2,0,114,5,183,0,492,89,10,0
71218,15:23:27,46903798,test,2,0,116,10,180,0,438,89,10,0
71218,15:23:27,46903798,test,2,0,118,8,156,0,353,89,9,0
71218,15:23:27,46903798,test,2,1,120,11,200,1,2082,89,9,0
71218,15:23:27,46903798,test,2,1,122,8,61,0,588,86,9,0
71218,15:23:27,46903798,test,2,1,124,3,4,1,368,87,9,0
71218,15:23:27,46903798,test,2,0,126,11,113,0,616,87,9,0
71218,15:23:27,46903798,test,2,1,128,1,34,1,309,87,9,0
71218,15:23:27,46903798,test,2,0,130,1,166,0,364,87,9,0
71218,15:23:27,46903798,test,2,0,132,7,53,0,427,87,8,0
71218,15:23:27,46903798,test,2,0,134,9,106,1,1568,87,11,0
71218,15:23:27,46903798,test,2,0,136,5,102,0,373,87,11,0
71218,15:23:27,46903798,test,2,0,138,6,176,0,437,87,10,0
71218,15:23:27,46903798,test,2,1,140,11,187,1,919,87,10,0
71218,15:23:27,46903798,test,2,0,142,4,153,0,421,87,10,0
71218,15:23:27,46903798,test,2,0,144,12,173,0,481,87,10,0
71218,15:23:27,46903798,test,2,1,146,9,50,1,491,88,10,0
71218,15:23:27,46903798,test,2,1,148,4,9,1,401,88,10,0
71218,15:23:27,46903798,test,2,0,150,3,157,0,373,88,10,0
71218,15:23:27,46903798,test,2,1,152,12,192,0,730,86,10,0
71218,15:23:27,46903798,test,2,1,154,6,110,1,485,86,10,0
71218,15:23:27,46903798,test,2,0,156,2,44,0,1349,86,9,0
71218,15:23:27,46903798,test,2,1,158,8,123,1,1168,86,9,0
71218,15:23:27,46903798,test,2,0,160,10,117,0,1707,86,9,0
71218,15:23:27,46903798,test,2,0,162,8,3,0,436,86,9,0
71218,15:23:27,46903798,test,2,1,164,3,137,1,417,87,9,0
71218,15:23:27,46903798,test,2,0,166,12,39,0,1073,87,9,0
71218,15:23:27,46903798,test,2,0,168,9,191,0,435,87,8,0
71218,15:23:27,46903798,test,2,1,170,5,60,0,578,85,8,0
71218,15:23:27,46903798,test,2,1,172,7,18,1,408,85,8,0
71218,15:23:27,46903798,test,2,0,174,11,62,0,1100,85,8,0
71218,15:23:27,46903798,test,2,0,176,7,56,0,1546,85,8,0
71218,15:23:27,46903798,test,2,1,178,2,168,1,315,85,8,0
71218,15:23:27,46903798,test,2,0,180,8,73,0,339,85,8,0
71218,15:23:27,46903798,test,2,1,182,10,181,1,578,86,8,0
71218,15:23:27,46903798,test,2,1,184,5,82,1,402,86,8,0
71218,15:23:27,46903798,test,2,1,186,11,10,1,379,86,8,0
71218,15:23:27,46903798,test,2,0,188,10,57,0,540,86,8,0
71218,15:23:27,46903798,test,2,1,190,6,175,1,362,86,8,0
71218,15:23:27,46903798,test,2,1,192,1,48,1,367,87,8,0
71218,15:23:27,46903798,test,2,0,194,6,55,0,403,87,8,0
71218,15:23:27,46903798,test,2,1,196,12,11,0,623,85,8,0
71218,15:23:27,46903798,test,2,0,198,2,184,0,451,85,7,0
71218,15:23:27,46903798,test,2,1,200,9,107,1,365,85,7,0
71218,15:23:27,46903798,test,2,1,202,10,24,1,433,86,7,0
71218,15:23:27,46903798,test,2,0,204,5,149,0,292,86,7,0
71218,15:23:27,46903798,test,2,0,206,3,154,0,449,86,7,0
71218,15:23:27,46903798,test,2,1,208,4,101,1,385,86,7,0
71218,15:23:27,46903798,test,2,1,210,2,136,1,335,86,7,0
71218,15:23:27,46903798,test,2,0,212,4,182,0,450,86,7,0
71218,15:23:27,46903798,test,2,1,214,7,160,1,245,86,7,0
71218,15:23:27,46903798,test,2,0,216,1,99,0,370,86,7,0
71218,15:23:27,46903798,test,2,1,218,3,69,1,368,87,7,0
71218,15:23:27,46903798,test,2,1,220,8,89,1,351,87,7,0
71218,15:23:27,46903798,test,2,1,222,4,140,1,358,87,7,0
71218,15:23:27,46903798,test,2,0,224,4,179,0,365,87,7,0
71218,15:23:27,46903798,test,2,1,226,10,47,1,376,87,7,0
71218,15:23:27,46903798,test,2,0,228,8,1,0,384,87,7,0
71218,15:23:27,46903798,test,2,1,230,9,177,1,406,87,7,0
71218,15:23:27,46903798,test,2,1,232,12,66,0,467,86,7,0
71218,15:23:27,46903798,test,2,0,234,10,164,0,413,86,6,0
71218,15:23:27,46903798,test,2,0,236,1,145,0,4545,86,6,0
71218,15:23:27,46903798,test,2,1,238,7,188,1,413,86,6,0
71218,15:23:27,46903798,test,2,0,240,12,95,0,591,86,6,0
71218,15:30:14,28512505,test,2,1,2,6,47,0,2248,0,0,0
71218,15:30:14,28512505,test,2,1,4,3,19,1,3375,50,0,1
71218,15:30:14,28512505,test,2,1,6,8,176,1,2342,66,0,1
71218,15:30:14,28512505,test,2,1,8,5,94,1,2486,75,0,1
71218,15:30:14,28512505,test,2,0,10,6,74,0,2343,75,0,1
71218,15:30:14,28512505,test,2,1,12,10,18,1,1816,80,0,1
71218,15:30:14,28512505,test,2,0,14,3,106,0,2143,80,0,1
71218,15:30:14,28512505,test,2,1,16,1,128,1,1633,83,0,1
71218,15:30:14,28512505,test,2,1,18,11,27,1,1998,85,0,1
71218,15:30:14,28512505,test,2,1,20,3,184,1,1200,87,0,1
71218,15:30:14,28512505,test,2,1,22,10,36,1,1293,88,0,1
71218,15:30:14,28512505,test,2,1,24,8,133,0,2859,80,0,1
71218,15:30:14,28512505,test,2,1,26,7,95,1,2493,81,0,1
71218,15:30:14,28512505,test,2,0,28,12,61,0,2543,81,0,0
71218,15:30:14,28512505,test,2,1,30,5,98,1,979,83,0,1
71218,15:30:14,28512505,test,2,1,32,9,62,0,2448,76,0,0
71218,15:30:14,28512505,test,2,1,34,4,49,0,1582,71,0,1
71218,15:30:14,28512505,test,2,0,36,1,79,0,3294,71,0,1
71218,15:30:14,28512505,test,2,1,38,6,60,1,3014,73,0,0
71218,15:30:14,28512505,test,2,1,40,1,197,1,738,75,0,1
71218,15:30:14,28512505,test,2,0,42,11,146,0,2862,75,0,1
71218,15:30:14,28512505,test,2,0,44,5,45,0,1250,75,0,1
71218,15:30:14,28512505,test,2,1,46,2,195,1,1659,76,0,1
71218,15:30:14,28512505,test,2,0,48,10,162,1,2926,76,14,0
71218,15:30:14,28512505,test,2,0,50,8,11,0,2607,76,12,1
71218,15:30:14,28512505,test,2,0,52,7,119,0,1101,76,11,1
71218,15:30:14,28512505,test,2,0,54,6,147,0,2060,76,10,1
71218,15:30:14,28512505,test,2,0,56,10,138,0,1496,76,9,1
71218,15:30:14,28512505,test,2,0,58,5,127,1,3341,76,16,0
71218,15:30:14,28512505,test,2,0,60,4,39,1,1752,76,23,0
71218,15:30:14,28512505,test,2,0,62,11,26,0,3413,76,21,0
71218,15:30:14,28512505,test,2,1,64,12,175,1,1506,77,21,1
71218,15:30:14,28512505,test,2,0,66,9,107,0,1993,77,20,1
71218,15:30:14,28512505,test,2,1,68,11,155,0,2796,73,20,0
71218,15:30:14,28512505,test,2,0,70,3,121,0,1719,73,18,1
71218,15:30:14,28512505,test,2,0,72,12,51,1,2069,73,23,0
71218,15:30:14,28512505,test,2,0,74,1,178,0,2355,73,22,1
71218,15:30:14,28512505,test,2,1,76,5,5,0,2934,70,22,0
71218,15:30:14,28512505,test,2,0,78,2,123,0,3147,70,21,1
71218,15:30:14,28512505,test,2,1,80,8,24,1,2654,71,21,0
71218,15:30:14,28512505,test,2,1,82,1,117,1,1195,72,21,1
71218,15:30:14,28512505,test,2,0,84,3,104,1,2587,72,25,0
71218,15:30:14,28512505,test,2,1,86,4,16,0,2195,69,25,1
71218,15:30:14,28512505,test,2,0,88,9,192,1,1311,69,28,0
71218,15:30:14,28512505,test,2,1,90,7,130,0,2936,66,28,0
71218,15:30:14,28512505,test,2,0,92,10,31,1,2733,66,31,0
71218,15:30:14,28512505,test,2,0,94,4,200,1,2721,66,34,0
71218,15:30:14,28512505,test,2,1,96,6,163,1,1252,68,34,0
71218,15:30:14,28512505,test,2,0,98,12,118,0,3072,68,33,1
71218,15:30:14,28512505,test,2,0,100,11,102,1,876,68,36,1
71218,15:30:14,28512505,test,2,1,102,10,141,1,599,69,36,1
71218,15:30:14,28512505,test,2,1,104,2,44,1,944,70,36,1
71218,15:30:14,28512505,test,2,0,106,7,99,0,1214,70,34,1
71218,15:30:14,28512505,test,2,1,108,12,109,1,875,71,34,1
71218,15:30:14,28512505,test,2,0,110,2,63,0,1036,71,33,1
71218,15:30:14,28512505,test,2,0,112,5,139,1,1536,71,35,0
71218,15:30:14,28512505,test,2,0,114,1,50,1,2663,71,37,0
71218,15:30:14,28512505,test,2,1,116,9,72,0,2789,68,37,0
71218,15:30:14,28512505,test,2,0,118,6,124,1,3709,68,40,0
71218,15:30:14,28512505,test,2,1,120,3,92,1,2821,70,40,1
71218,15:30:14,28512505,test,2,1,122,11,85,0,3442,67,40,1
71218,15:30:14,28512505,test,2,0,124,8,23,0,1641,67,38,1
71218,15:30:14,28512505,test,2,1,126,9,93,1,1117,68,38,1
71218,15:30:14,28512505,test,2,1,128,8,77,0,1767,66,38,1
71218,15:30:14,28512505,test,2,0,130,5,22,0,5229,66,37,1
71218,15:30:14,28512505,test,2,0,132,10,21,1,1295,66,39,0
71218,15:30:14,28512505,test,2,1,134,1,116,0,2863,64,39,0
71218,15:30:14,28512505,test,2,1,136,11,101,0,859,62,39,0
71218,15:30:14,28512505,test,2,0,138,2,187,0,1800,62,38,0
71218,15:30:14,28512505,test,2,0,140,6,131,1,1986,62,40,0
71218,15:30:14,28512505,test,2,0,142,7,66,0,1947,62,38,1
71218,15:30:14,28512505,test,2,0,144,1,34,0,832,62,37,1
71218,15:30:14,28512505,test,2,0,146,8,54,0,2989,62,36,1
71218,15:30:14,28512505,test,2,0,148,4,67,0,2832,62,35,1
71218,15:30:14,28512505,test,2,0,150,11,126,1,1612,62,37,1
71218,15:30:14,28512505,test,2,0,152,12,6,1,2025,62,39,0
71218,15:30:14,28512505,test,2,1,154,12,12,1,1652,63,39,1
71218,15:30:14,28512505,test,2,1,156,3,159,1,581,64,39,1
71218,15:30:14,28512505,test,2,1,158,4,52,0,942,63,39,1
71218,15:30:14,28512505,test,2,0,160,3,188,1,5618,63,40,0
71218,15:30:14,28512505,test,2,0,162,9,150,0,2192,63,39,1
71218,15:30:14,28512505,test,2,0,164,6,160,1,783,63,40,0
71218,15:30:14,28512505,test,2,0,166,1,2,0,1066,63,40,1
71218,15:30:14,28512505,test,2,0,168,10,88,1,2703,63,41,1
71218,15:30:14,28512505,test,2,1,170,6,158,0,704,61,41,1
71218,15:30:14,28512505,test,2,1,172,2,170,0,1726,60,41,0
71218,15:30:14,28512505,test,2,0,174,5,115,0,742,60,40,1
71218,15:30:14,28512505,test,2,1,176,5,7,0,1235,58,40,0
71218,15:30:14,28512505,test,2,1,178,10,157,1,684,59,40,1
71218,15:30:14,28512505,test,2,1,180,7,140,1,1147,60,40,1
71218,15:30:14,28512505,test,2,1,182,8,199,0,907,59,40,1
71218,15:30:14,28512505,test,2,1,184,6,120,0,1381,57,40,1
71218,15:30:14,28512505,test,2,0,186,11,43,0,3042,57,39,0
71218,15:30:14,28512505,test,2,1,188,12,134,1,974,58,39,1
71218,15:30:14,28512505,test,2,1,190,11,103,0,1046,57,39,0
71218,15:30:14,28512505,test,2,1,192,3,180,1,1031,58,39,1
71218,15:30:14,28512505,test,2,0,194,8,89,0,764,58,38,1
71218,15:30:14,28512505,test,2,1,196,10,82,1,774,59,38,1
71218,15:30:14,28512505,test,2,1,198,1,81,1,665,60,38,1
71218,15:30:14,28512505,test,2,0,200,4,9,0,587,60,38,1
71218,15:30:14,28512505,test,2,1,202,4,191,0,516,58,38,1
71218,15:30:14,28512505,test,2,1,204,7,105,1,547,59,38,1
71218,15:30:14,28512505,test,2,1,206,5,145,1,595,60,38,1
71218,15:30:14,28512505,test,2,1,208,2,177,1,560,61,38,1
71218,15:30:14,28512505,test,2,0,210,12,135,0,701,61,37,1
71218,15:30:14,28512505,test,2,1,212,9,129,1,1570,61,37,1
71218,15:30:14,28512505,test,2,0,214,2,75,0,572,61,36,1
71218,15:30:14,28512505,test,2,1,216,5,69,1,424,62,36,1
71218,15:30:14,28512505,test,2,0,218,3,169,1,1195,62,37,0
71218,15:30:14,28512505,test,2,0,220,9,193,0,786,62,37,1
71218,15:30:14,28512505,test,2,0,222,7,122,0,568,62,36,1
71218,15:30:14,28512505,test,2,1,224,6,113,1,2425,63,36,0
71218,15:30:14,28512505,test,2,0,226,10,35,1,1747,63,37,0
71218,15:30:14,28512505,test,2,1,228,12,46,1,644,63,37,1
71218,15:30:14,28512505,test,2,1,230,1,78,1,909,64,37,1
71218,15:30:14,28512505,test,2,0,232,11,76,1,2472,64,38,1
71218,15:30:14,28512505,test,2,0,234,2,48,1,1507,64,39,0
71218,15:30:14,28512505,test,2,0,236,7,194,1,2330,64,40,0
71218,15:30:14,28512505,test,2,1,238,9,55,1,1200,65,40,1
71218,15:30:14,28512505,test,2,0,240,12,186,0,971,65,40,1
71218,15:34:53,74695784,test,2,1,2,8,155,0,1615,0,0,1
71218,15:34:53,74695784,test,2,1,4,5,152,1,1180,50,0,1
71218,15:34:53,74695784,test,2,1,6,6,53,1,1785,66,0,0
71218,15:34:53,74695784,test,2,1,8,3,184,1,1067,75,0,1
71218,15:34:53,74695784,test,2,0,10,3,87,1,1061,75,100,0
71218,15:34:53,74695784,test,2,1,12,4,81,1,682,80,100,1
71218,15:34:53,74695784,test,2,0,14,1,131,0,1059,80,50,1
71218,15:34:53,74695784,test,2,0,16,7,55,0,1520,80,33,1
71218,15:34:53,74695784,test,2,1,18,12,141,1,722,83,33,0
71218,15:34:53,74695784,test,2,1,20,9,181,1,475,85,33,0
71218,15:34:53,74695784,test,2,1,22,1,66,1,797,87,33,0
71218,15:34:53,74695784,test,2,1,24,5,61,1,631,88,33,1
71218,15:34:53,74695784,test,2,1,26,12,13,1,592,90,33,1
71218,15:34:53,74695784,test,2,1,28,6,105,1,1212,90,33,0
71218,15:34:53,74695784,test,2,0,30,2,162,0,1211,90,25,1
71218,15:34:53,74695784,test,2,0,32,5,75,0,2728,90,20,1
71218,15:34:53,74695784,test,2,0,34,4,150,1,1169,90,33,0
71218,15:34:53,74695784,test,2,1,36,3,27,1,884,91,33,0
71218,15:34:53,74695784,test,2,1,38,11,175,1,801,92,33,0
71218,15:34:53,74695784,test,2,0,40,12,78,1,708,92,42,0
71218,15:34:53,74695784,test,2,1,42,8,19,0,1361,85,42,0
71218,15:34:53,74695784,test,2,1,44,7,49,0,1496,80,42,1
71218,15:34:53,74695784,test,2,0,46,4,196,1,813,80,50,0
71218,15:34:53,74695784,test,2,1,48,9,9,1,649,81,50,0
71218,15:34:53,74695784,test,2,0,50,1,88,0,1238,81,44,1
71218,15:34:53,74695784,test,2,0,52,7,52,0,2658,81,40,0
71218,15:34:53,74695784,test,2,0,54,6,151,1,1176,81,45,0
71218,15:34:53,74695784,test,2,1,56,2,177,1,455,82,45,0
71218,15:34:53,74695784,test,2,1,58,4,12,1,361,83,45,0
71218,15:34:53,74695784,test,2,1,60,10,65,1,1278,84,45,0
71218,15:34:53,74695784,test,2,0,62,10,14,0,1057,84,41,1
71218,15:34:53,74695784,test,2,1,64,3,173,1,318,85,41,0
71218,15:34:53,74695784,test,2,1,66,11,135,1,448,85,41,0
71218,15:34:53,74695784,test,2,1,68,10,47,1,606,86,41,0
71218,15:34:53,74695784,test,2,0,70,8,62,0,504,86,38,1
71218,15:34:53,74695784,test,2,0,72,5,33,0,529,86,35,1
71218,15:34:53,74695784,test,2,1,74,1,58,1,767,86,35,1
71218,15:34:53,74695784,test,2,1,76,6,170,1,464,87,35,0
71218,15:34:53,74695784,test,2,0,78,2,30,0,439,87,33,1
71218,15:34:53,74695784,test,2,1,80,2,179,1,795,88,33,0
71218,15:34:53,74695784,test,2,1,82,9,103,1,325,88,33,0
71218,15:34:53,74695784,test,2,1,84,7,64,0,470,85,33,1
71218,15:34:53,74695784,test,2,1,86,12,21,1,559,85,33,0
71218,15:34:53,74695784,test,2,1,88,5,190,1,244,86,33,0
71218,15:34:53,74695784,test,2,1,90,8,159,1,578,86,33,0
71218,15:34:53,74695784,test,2,0,92,11,180,0,498,86,31,1
71218,15:34:53,74695784,test,2,0,94,12,113,0,635,86,29,1
71218,15:34:53,74695784,test,2,1,96,4,18,1,455,87,29,0
71218,15:34:53,74695784,test,2,0,98,9,146,1,573,87,33,0
71218,15:34:53,74695784,test,2,1,100,2,46,1,799,87,33,0
71218,15:34:53,74695784,test,2,0,102,3,31,1,861,87,36,0
71218,15:34:53,74695784,test,2,1,104,8,107,0,742,84,36,1
71218,15:34:53,74695784,test,2,1,106,11,195,1,433,85,36,0
71218,15:34:53,74695784,test,2,0,108,3,36,1,1522,85,40,1
71218,15:34:53,74695784,test,2,0,110,5,92,1,1446,85,42,0
71218,15:34:53,74695784,test,2,0,112,4,85,1,409,85,45,0
71218,15:34:53,74695784,test,2,0,114,9,115,1,365,85,47,1
71218,15:34:53,74695784,test,2,1,116,4,199,1,377,85,47,1
71218,15:34:53,74695784,test,2,1,118,9,25,1,312,86,47,0
71218,15:34:53,74695784,test,2,1,120,5,67,1,387,86,47,0
71218,15:34:53,74695784,test,2,1,122,3,42,1,523,86,47,0
71218,15:34:53,74695784,test,2,0,124,2,29,0,272,86,45,1
71218,15:34:53,74695784,test,2,1,126,10,45,1,531,87,45,1
71218,15:34:53,74695784,test,2,1,128,1,153,1,194,87,45,1
71218,15:34:53,74695784,test,2,0,130,7,147,0,413,87,44,1
71218,15:34:53,74695784,test,2,1,132,7,156,0,525,85,44,1
71218,15:34:53,74695784,test,2,0,134,8,187,0,341,85,42,1
71218,15:34:53,74695784,test,2,0,136,12,51,0,1134,85,40,0
71218,15:34:53,74695784,test,2,1,138,12,74,1,784,85,40,0
71218,15:34:53,74695784,test,2,0,140,11,117,0,480,85,39,1
71218,15:34:53,74695784,test,2,0,142,1,119,0,286,85,37,1
71218,15:34:53,74695784,test,2,0,144,10,133,0,274,85,36,1
71218,15:34:53,74695784,test,2,0,146,6,127,1,2511,85,38,0
71218,15:34:53,74695784,test,2,1,148,6,90,1,3242,86,38,1
71218,15:34:53,74695784,test,2,1,150,12,134,1,641,86,38,0
71218,15:34:53,74695784,test,2,0,152,8,102,0,1004,86,37,1
71218,15:34:53,74695784,test,2,1,154,10,164,1,682,86,37,0
71218,15:34:53,74695784,test,2,0,156,4,112,1,1177,86,39,0
71218,15:34:53,74695784,test,2,1,158,9,48,1,1758,86,39,0
71218,15:34:53,74695784,test,2,0,160,11,198,0,781,86,38,1
71218,15:34:53,74695784,test,2,0,162,1,118,0,311,86,37,1
71218,15:34:53,74695784,test,2,1,164,8,191,0,397,85,37,1
71218,15:34:53,74695784,test,2,1,166,1,16,1,1079,85,37,1
71218,15:34:53,74695784,test,2,0,168,7,68,1,1706,85,38,0
71218,15:34:53,74695784,test,2,0,170,3,23,1,873,85,40,0
71218,15:34:53,74695784,test,2,1,172,6,200,1,619,85,40,0
71218,15:34:53,74695784,test,2,0,174,5,194,1,502,85,42,0
71218,15:34:53,74695784,test,2,0,176,9,160,1,331,85,43,0
71218,15:34:53,74695784,test,2,0,178,12,41,1,475,85,45,0
71218,15:34:53,74695784,test,2,1,180,4,192,1,276,86,45,0
71218,15:34:53,74695784,test,2,1,182,7,189,1,1093,86,45,0
71218,15:34:53,74695784,test,2,0,184,10,1,0,1018,86,43,1
71218,15:34:53,74695784,test,2,0,186,6,183,0,1391,86,42,1
71218,15:34:53,74695784,test,2,1,188,11,121,1,1014,86,42,0
71218,15:34:53,74695784,test,2,0,190,2,43,0,286,86,41,1
71218,15:34:53,74695784,test,2,1,192,3,154,1,2227,86,41,1
71218,15:34:53,74695784,test,2,1,194,2,145,1,346,87,41,1
71218,15:34:53,74695784,test,2,1,196,5,4,1,287,87,41,1
71218,15:34:53,74695784,test,2,1,198,6,157,1,724,87,41,0
71218,15:34:53,74695784,test,2,0,200,12,40,1,630,87,43,0
71218,15:34:53,74695784,test,2,0,202,2,71,0,667,87,42,1
71218,15:34:53,74695784,test,2,0,204,1,17,0,213,87,41,1
71218,15:34:53,74695784,test,2,1,206,7,72,1,1390,87,41,0
71218,15:34:53,74695784,test,2,0,208,4,101,1,549,87,42,0
71218,15:34:53,74695784,test,2,1,210,2,2,1,1354,87,42,0
71218,15:34:53,74695784,test,2,0,212,6,110,0,699,87,41,0
71218,15:34:53,74695784,test,2,0,214,9,86,1,743,87,42,0
71218,15:34:53,74695784,test,2,0,216,7,32,1,17077,87,44,1
71218,15:34:53,74695784,test,2,0,218,3,158,1,705,87,45,0
71218,15:34:53,74695784,test,2,1,220,1,126,1,5658,88,45,1
71218,15:34:53,74695784,test,2,0,222,5,169,0,1039,88,44,1
71218,15:34:53,74695784,test,2,0,224,10,89,0,493,88,43,1
71218,15:34:53,74695784,test,2,1,226,11,178,1,2069,88,43,1
71218,15:34:53,74695784,test,2,0,228,8,8,0,381,88,42,1
71218,15:34:53,74695784,test,2,0,230,11,6,0,298,88,41,1
71218,15:34:53,74695784,test,2,0,232,8,149,0,171,88,41,1
71218,15:34:53,74695784,test,2,0,234,4,73,0,431,88,40,0
71218,15:34:53,74695784,test,2,0,236,5,79,0,557,88,39,1
71218,15:34:53,74695784,test,2,0,238,6,84,0,1431,88,38,1
71218,15:34:53,74695784,test,2,0,240,2,99,0,232,88,38,1
71218,15:39:16,682413259,test,2,0,2,3,154,0,1525,0,0,0
71218,15:39:16,682413259,test,2,1,4,10,147,1,704,100,0,0
71218,15:39:16,682413259,test,2,1,6,5,76,1,693,100,0,0
71218,15:39:16,682413259,test,2,1,8,9,116,1,707,100,0,0
71218,15:39:16,682413259,test,2,1,10,12,95,1,768,100,0,0
71218,15:39:16,682413259,test,2,1,12,3,23,1,611,100,0,0
71218,15:39:16,682413259,test,2,1,14,6,74,1,414,100,0,0
71218,15:39:16,682413259,test,2,0,16,8,185,1,558,100,50,0
71218,15:39:16,682413259,test,2,0,18,1,8,1,424,100,66,0
71218,15:39:16,682413259,test,2,1,20,1,9,1,522,100,66,0
71218,15:39:16,682413259,test,2,0,22,11,51,1,710,100,75,0
71218,15:39:16,682413259,test,2,0,24,10,175,1,675,100,80,0
71218,15:39:16,682413259,test,2,0,26,5,49,1,561,100,83,0
71218,15:39:16,682413259,test,2,1,28,8,127,1,590,100,83,0
71218,15:39:16,682413259,test,2,0,30,12,128,1,496,100,85,0
71218,15:39:16,682413259,test,2,0,32,3,50,1,480,100,87,0
71218,15:39:16,682413259,test,2,1,34,2,66,1,503,100,87,0
71218,15:39:16,682413259,test,2,1,36,9,18,1,173,100,87,0
71218,15:39:16,682413259,test,2,1,38,1,134,1,89,100,87,0
71218,15:39:16,682413259,test,2,0,40,6,82,1,442,100,88,0
71218,15:39:16,682413259,test,2,0,42,11,107,1,619,100,90,0
71218,15:39:16,682413259,test,2,1,44,6,62,1,398,100,90,0
71218,15:39:16,682413259,test,2,1,46,4,94,1,377,100,90,0
71218,15:39:16,682413259,test,2,0,48,12,181,1,429,100,90,0
71218,15:39:16,682413259,test,2,0,50,2,72,1,671,100,91,0
71218,15:39:16,682413259,test,2,1,52,10,31,1,478,100,91,0
71218,15:39:16,682413259,test,2,1,54,11,64,1,639,100,91,0
71218,15:39:16,682413259,test,2,1,56,5,187,1,4631,100,91,0
71218,15:39:16,682413259,test,2,0,58,8,152,1,115,100,92,0
71218,15:39:16,682413259,test,2,0,60,1,177,1,153,100,92,0
71218,15:39:16,682413259,test,2,1,62,12,21,1,1983,100,92,0
71218,15:39:16,682413259,test,2,0,64,10,84,1,512,100,93,0
71218,15:39:16,682413259,test,2,1,66,7,180,1,7,100,93,0
71218,15:39:16,682413259,test,2,0,68,4,30,1,162,100,93,0
71218,15:39:16,682413259,test,2,0,70,7,96,1,455,100,94,0
71218,15:39:16,682413259,test,2,1,72,3,15,1,63,100,94,0
71218,15:39:16,682413259,test,2,1,74,1,178,1,1328,100,94,0
71218,15:39:16,682413259,test,2,1,76,5,192,1,301,100,94,0
71218,15:39:16,682413259,test,2,1,78,11,101,1,1756,100,94,0
71218,15:39:16,682413259,test,2,1,80,2,26,1,262,100,94,0
71218,15:39:16,682413259,test,2,0,82,9,132,1,71,100,94,0
71218,15:39:16,682413259,test,2,0,84,5,65,1,223,100,94,0
71218,15:39:16,682413259,test,2,1,86,3,109,1,1010,100,94,0
71218,15:39:16,682413259,test,2,0,88,4,143,1,51,100,95,0
71218,15:39:16,682413259,test,2,1,90,7,130,1,309,100,95,0
71218,15:39:16,682413259,test,2,0,92,12,166,1,252,100,95,0
71218,15:39:16,682413259,test,2,1,94,9,145,1,997,100,95,0
71218,15:39:16,682413259,test,2,1,96,6,136,1,215,100,95,0
71218,15:39:16,682413259,test,2,0,98,5,158,1,314,100,95,0
71218,15:39:16,682413259,test,2,0,100,8,69,1,1609,100,95,0
71218,15:39:16,682413259,test,2,0,102,1,162,1,745,100,95,0
71218,15:39:16,682413259,test,2,0,104,10,28,1,278,100,96,0
71218,15:39:16,682413259,test,2,1,106,10,20,1,1366,100,96,0
71218,15:39:16,682413259,test,2,0,108,3,124,1,1233,100,96,0
71218,15:39:16,682413259,test,2,0,110,2,93,1,234,100,96,0
71218,15:39:16,682413259,test,2,1,112,12,48,1,252,100,96,0
71218,15:39:16,682413259,test,2,1,114,4,90,1,213,100,96,0
71218,15:39:16,682413259,test,2,0,116,7,182,1,176,100,96,0
71218,15:39:16,682413259,test,2,0,118,11,42,1,4228,100,96,0
71218,15:39:16,682413259,test,2,1,120,8,200,1,360,100,96,0
71218,15:39:16,682413259,test,2,0,122,9,11,1,1205,100,96,0
71218,15:39:16,682413259,test,2,1,124,5,122,1,375,100,96,0
71218,15:39:16,682413259,test,2,0,126,6,165,1,1899,100,96,0
71218,15:39:16,682413259,test,2,1,128,11,183,1,520,100,96,0
71218,15:39:16,682413259,test,2,1,130,9,54,1,2413,100,96,0
71218,15:39:16,682413259,test,2,1,132,8,67,1,285,100,96,0
71218,15:39:16,682413259,test,2,0,134,6,92,1,1532,100,96,0
71218,15:39:16,682413259,test,2,1,136,10,37,0,576,97,96,0
71218,15:39:16,682413259,test,2,1,138,7,100,1,396,97,96,0
71218,15:39:16,682413259,test,2,0,140,5,16,1,4576,97,96,0
71218,15:39:16,682413259,test,2,0,142,11,121,1,229,97,97,0
71218,15:39:16,682413259,test,2,1,144,12,53,1,128,97,97,0
71218,15:39:16,682413259,test,2,0,146,8,142,1,70,97,97,0
71218,15:39:16,682413259,test,2,1,148,1,36,1,414,97,97,0
71218,15:39:16,682413259,test,2,0,150,9,39,1,393,97,97,0
71218,15:39:16,682413259,test,2,0,152,1,87,1,3948,97,97,0
71218,15:39:16,682413259,test,2,0,154,10,41,1,220,97,97,0
71218,15:39:16,682413259,test,2,1,156,3,114,1,214,97,97,0
71218,15:39:16,682413259,test,2,0,158,12,160,1,361,97,97,0
71218,15:39:16,682413259,test,2,0,160,3,156,1,157,97,97,0
71218,15:39:16,682413259,test,2,0,162,7,83,1,59,97,97,0
71218,15:39:16,682413259,test,2,1,164,6,126,1,788,97,97,0
71218,15:39:16,682413259,test,2,0,166,2,88,1,135,97,97,0
71218,15:39:16,682413259,test,2,1,168,2,163,1,292,97,97,0
71218,15:39:16,682413259,test,2,1,170,4,80,1,36,97,97,0
71218,15:39:16,682413259,test,2,0,172,4,184,1,381,97,97,0
71218,15:39:16,682413259,test,2,1,174,4,198,1,809,97,97,0
71218,15:39:16,682413259,test,2,0,176,4,103,1,867,97,97,0
71218,15:39:16,682413259,test,2,1,178,2,89,0,667,95,97,1
71218,15:39:16,682413259,test,2,1,180,12,129,1,340,95,97,0
71218,15:39:16,682413259,test,2,1,182,9,85,1,105,95,97,0
71218,15:39:16,682413259,test,2,0,184,2,44,1,145,95,97,0
71218,15:39:16,682413259,test,2,0,186,5,60,1,288,95,97,0
71218,15:39:16,682413259,test,2,0,188,6,168,1,2032,95,97,0
71218,15:39:16,682413259,test,2,0,190,11,157,1,335,95,97,0
71218,15:39:16,682413259,test,2,1,192,7,119,1,717,95,97,0
71218,15:39:16,682413259,test,2,0,194,12,25,1,315,95,97,0
71218,15:39:16,682413259,test,2,0,196,9,172,1,234,95,98,0
71218,15:39:16,682413259,test,2,0,198,1,155,1,308,95,98,0
71218,15:39:16,682413259,test,2,0,200,7,68,1,4114,95,98,0
71218,15:39:16,682413259,test,2,0,202,10,125,1,747,95,98,0
71218,15:39:16,682413259,test,2,0,204,8,7,1,1728,95,98,0
71218,15:39:16,682413259,test,2,1,206,6,33,1,1236,95,98,0
71218,15:39:16,682413259,test,2,1,208,8,24,1,300,96,98,0
71218,15:39:16,682413259,test,2,1,210,1,186,1,123,96,98,0
71218,15:39:16,682413259,test,2,0,212,3,104,1,202,96,98,0
71218,15:39:16,682413259,test,2,1,214,3,52,1,238,96,98,0
71218,15:39:16,682413259,test,2,0,216,11,14,1,240,96,98,0
71218,15:39:16,682413259,test,2,1,218,10,193,1,234,96,98,0
71218,15:39:16,682413259,test,2,1,220,5,123,1,116,96,98,0
71218,15:39:16,682413259,test,2,1,222,11,190,1,244,96,98,0
71218,15:39:16,682413259,test,2,1,224,1,108,1,894,96,98,0
71218,15:39:16,682413259,test,2,1,226,4,138,1,405,96,98,0
71218,15:39:16,682413259,test,2,1,228,7,17,1,2184,96,98,0
71218,15:39:16,682413259,test,2,0,230,4,40,1,105,96,98,0
71218,15:39:16,682413259,test,2,1,232,12,34,1,2104,96,98,0
71218,15:39:16,682413259,test,2,0,234,1,111,1,1012,96,98,0
71218,15:39:16,682413259,test,2,0,236,3,135,1,70,96,98,0
71218,15:39:16,682413259,test,2,0,238,10,196,1,191,96,98,0
71218,15:39:16,682413259,test,2,1,240,5,99,1,746,96,98,0
71218,10:39:44,606586116,test,2,1,2,12,162,0,1021,0,0,0
71218,10:39:44,606586116,test,2,0,4,12,91,1,620,0,100,0
71218,10:39:44,606586116,test,2,0,6,4,51,0,3243,0,50,0
71218,10:39:44,606586116,test,2,0,8,3,87,1,1362,0,66,0
71218,10:39:44,606586116,test,2,1,10,8,139,1,900,50,66,0
71218,10:39:44,606586116,test,2,0,12,7,94,1,888,50,75,0
71218,10:39:44,606586116,test,2,1,14,10,33,0,813,33,75,0
71218,10:39:44,606586116,test,2,0,16,2,11,0,517,33,60,0
71218,10:39:44,606586116,test,2,0,18,8,136,1,568,33,66,0
71218,10:39:44,606586116,test,2,1,20,1,145,1,569,50,66,0
71218,10:39:44,606586116,test,2,0,22,1,150,0,2875,50,57,1
71218,10:39:44,606586116,test,2,0,24,3,156,1,802,50,62,0
71218,10:39:44,606586116,test,2,0,26,9,38,1,1273,50,66,0
71218,10:39:44,606586116,test,2,1,28,6,68,1,655,60,66,0
71218,10:39:44,606586116,test,2,0,30,4,93,0,1693,60,60,0
71218,10:39:44,606586116,test,2,1,32,11,198,1,1794,66,60,0
71218,10:39:44,606586116,test,2,1,34,5,46,0,1971,57,60,0
71218,10:39:44,606586116,test,2,1,36,1,40,1,973,62,60,0
71218,10:39:44,606586116,test,2,0,38,12,188,0,815,62,54,0
71218,10:39:44,606586116,test,2,0,40,2,119,1,2743,62,58,0
71218,10:39:44,606586116,test,2,1,42,12,114,1,1219,66,58,0
71218,10:39:44,606586116,test,2,1,44,3,55,0,2139,60,58,0
71218,10:39:44,606586116,test,2,1,46,2,57,0,3214,54,58,0
71218,10:39:44,606586116,test,2,0,48,7,66,1,1607,54,61,0
71218,10:39:44,606586116,test,2,1,50,11,117,1,623,58,61,0
71218,10:39:44,606586116,test,2,0,52,5,30,0,703,58,57,0
71218,10:39:44,606586116,test,2,1,54,5,19,0,1228,53,57,0
71218,10:39:44,606586116,test,2,1,56,7,141,1,900,57,57,0
71218,10:39:44,606586116,test,2,1,58,9,124,1,602,60,57,0
71218,10:39:44,606586116,test,2,1,60,8,142,0,1769,56,57,0
71218,10:39:44,606586116,test,2,0,62,6,184,1,1179,56,60,0
71218,10:39:44,606586116,test,2,0,64,1,17,0,2292,56,56,1
71218,10:39:44,606586116,test,2,1,66,6,62,0,881,52,56,0
71218,10:39:44,606586116,test,2,1,68,10,58,0,1015,50,56,0
71218,10:39:44,606586116,test,2,0,70,11,171,1,1912,50,58,0
71218,10:39:44,606586116,test,2,1,72,4,170,1,2805,52,58,0
71218,10:39:44,606586116,test,2,1,74,9,37,1,2589,55,58,0
71218,10:39:44,606586116,test,2,1,76,2,36,1,750,57,58,0
71218,10:39:44,606586116,test,2,1,78,6,28,0,537,54,58,0
71218,10:39:44,606586116,test,2,0,80,8,138,1,572,54,61,0
71218,10:39:44,606586116,test,2,1,82,3,23,1,750,56,61,0
71218,10:39:44,606586116,test,2,1,84,12,163,1,1081,58,61,0
71218,10:39:44,606586116,test,2,0,86,10,130,1,775,58,63,0
71218,10:39:44,606586116,test,2,1,88,1,90,1,577,60,63,0
71218,10:39:44,606586116,test,2,1,90,7,96,0,995,57,63,0
71218,10:39:44,606586116,test,2,0,92,2,103,1,1012,57,65,0
71218,10:39:44,606586116,test,2,1,94,11,140,0,917,55,65,0
71218,10:39:44,606586116,test,2,1,96,8,191,0,713,53,65,0
71218,10:39:44,606586116,test,2,0,98,6,122,0,3589,53,61,0
71218,10:39:44,606586116,test,2,1,100,4,32,0,751,51,61,0
71218,10:39:44,606586116,test,2,0,102,1,178,0,809,51,59,1
71218,10:39:44,606586116,test,2,0,104,4,14,0,1043,51,56,0
71218,10:39:44,606586116,test,2,1,106,10,5,0,626,50,56,0
71218,10:39:44,606586116,test,2,1,108,5,61,1,1666,51,56,0
71218,10:39:44,606586116,test,2,0,110,3,99,0,840,51,54,1
71218,10:39:44,606586116,test,2,1,112,3,47,1,1040,53,54,0
71218,10:39:44,606586116,test,2,1,114,1,137,0,1183,51,54,0
71218,10:39:44,606586116,test,2,1,116,9,175,1,1401,52,54,0
71218,10:39:44,606586116,test,2,0,118,12,27,1,777,52,56,0
71218,10:39:44,606586116,test,2,1,120,11,172,0,868,51,56,0
71218,10:39:44,606586116,test,2,1,122,2,10,0,890,50,56,0
71218,10:39:44,606586116,test,2,0,124,8,84,0,1951,50,53,0
71218,10:39:44,606586116,test,2,0,126,10,185,1,777,50,55,0
71218,10:39:44,606586116,test,2,0,128,11,18,0,1491,50,53,0
71218,10:39:44,606586116,test,2,0,130,7,20,0,1489,50,51,0
71218,10:39:44,606586116,test,2,0,132,9,179,0,862,50,50,0
71218,10:39:44,606586116,test,2,1,134,8,25,0,1205,48,50,0
71218,10:39:44,606586116,test,2,0,136,5,190,1,1501,48,51,0
71218,10:39:44,606586116,test,2,0,138,7,95,1,618,48,53,0
71218,10:39:44,606586116,test,2,1,140,4,193,1,538,50,53,0
71218,10:39:44,606586116,test,2,1,142,7,54,1,1053,51,53,0
71218,10:39:44,606586116,test,2,0,144,9,67,0,2460,51,51,0
71218,10:39:44,606586116,test,2,1,146,5,78,0,2339,50,51,0
71218,10:39:44,606586116,test,2,0,148,4,166,1,2462,50,52,0
71218,10:39:44,606586116,test,2,0,150,8,2,1,741,50,54,0
71218,10:39:44,606586116,test,2,1,152,12,52,0,1569,48,54,0
71218,10:39:44,606586116,test,2,1,154,10,106,1,794,50,54,0
71218,10:39:44,606586116,test,2,1,156,6,189,1,979,51,54,0
71218,10:39:44,606586116,test,2,0,158,10,74,1,726,51,55,0
71218,10:39:44,606586116,test,2,0,160,12,111,1,513,51,56,0
71218,10:39:44,606586116,test,2,0,162,5,167,1,598,51,57,0
71218,10:39:44,606586116,test,2,0,164,3,116,0,1206,51,56,1
71218,10:39:44,606586116,test,2,0,166,2,31,0,705,51,55,0
71218,10:39:44,606586116,test,2,0,168,6,64,1,1613,51,56,0
71218,10:39:44,606586116,test,2,0,170,1,59,0,710,51,54,1
71218,10:39:44,606586116,test,2,1,172,5,56,0,835,50,54,0
71218,10:39:44,606586116,test,2,0,174,11,153,0,1739,50,53,0
71218,10:39:44,606586116,test,2,0,176,1,148,0,2430,50,52,1
71218,10:39:44,606586116,test,2,1,178,11,16,1,1335,51,52,0
71218,10:39:44,606586116,test,2,0,180,4,146,0,1866,51,51,1
71218,10:39:44,606586116,test,2,1,182,4,80,1,729,52,51,0
71218,10:39:44,606586116,test,2,0,184,7,86,1,757,52,52,0
71218,10:39:44,606586116,test,2,0,186,2,125,1,719,52,53,0
71218,10:39:44,606586116,test,2,1,188,3,113,1,779,53,53,0
71218,10:39:44,606586116,test,2,0,190,3,48,0,1237,53,52,0
71218,10:39:44,606586116,test,2,1,192,10,45,1,1133,54,52,0
71218,10:39:44,606586116,test,2,0,194,6,129,1,696,54,53,0
71218,10:39:44,606586116,test,2,1,196,7,15,0,1621,53,53,0
71218,10:39:44,606586116,test,2,0,198,5,21,0,1661,53,52,0
71218,10:39:44,606586116,test,2,1,200,2,88,1,836,54,52,0
71218,10:39:44,606586116,test,2,0,202,8,107,1,1115,54,52,0
71218,10:39:44,606586116,test,2,1,204,1,182,1,632,54,52,0
71218,10:39:44,606586116,test,2,0,206,9,102,1,776,54,53,0
71218,10:39:44,606586116,test,2,1,208,6,101,1,1266,55,53,0
71218,10:39:44,606586116,test,2,1,210,9,24,1,664,56,53,0
71218,10:39:44,606586116,test,2,1,212,12,4,1,839,57,53,0
71218,10:39:44,606586116,test,2,0,214,11,71,0,606,57,52,0
71218,10:39:44,606586116,test,2,0,216,12,29,1,591,57,53,0
71218,10:39:44,606586116,test,2,0,218,10,194,1,480,57,54,0
71218,10:39:44,606586116,test,2,1,220,8,200,1,1046,58,54,0
71218,10:39:44,606586116,test,2,0,222,12,199,1,629,58,55,0
71218,10:39:44,606586116,test,2,1,224,5,177,1,501,58,55,0
71218,10:39:44,606586116,test,2,0,226,4,195,0,874,58,54,0
71218,10:39:44,606586116,test,2,1,228,10,81,1,928,59,54,0
71218,10:39:44,606586116,test,2,0,230,8,42,1,580,59,55,1
71218,10:39:44,606586116,test,2,1,232,7,44,1,1143,60,55,0
71218,10:39:44,606586116,test,2,1,234,12,105,1,514,61,55,0
71218,10:39:44,606586116,test,2,1,236,1,128,1,647,61,55,0
71218,10:39:44,606586116,test,2,0,238,9,49,0,1094,61,54,0
71218,10:39:44,606586116,test,2,0,240,1,112,0,1123,61,53,1
71218,15:28:59,488167179,test,2,0,2,4,93,0,1761,0,0,0
71218,15:28:59,488167179,test,2,1,4,5,179,0,707,0,0,0
71218,15:28:59,488167179,test,2,0,6,8,173,0,755,0,0,0
71218,15:28:59,488167179,test,2,1,8,9,13,0,54433,0,0,0
71218,15:28:59,488167179,test,2,0,10,9,178,0,2465,0,0,1
71218,15:28:59,488167179,test,2,1,12,2,149,1,1451,33,0,0
71218,15:28:59,488167179,test,2,1,14,10,185,1,2331,50,0,1
71218,15:28:59,488167179,test,2,1,16,12,191,1,1645,60,0,0
71218,15:28:59,488167179,test,2,1,18,6,124,1,1383,66,0,0
71218,15:28:59,488167179,test,2,1,20,1,167,1,1016,71,0,0
71218,15:28:59,488167179,test,2,1,22,11,71,1,1170,75,0,0
71218,15:28:59,488167179,test,2,0,24,1,99,0,2854,75,0,0
71218,15:28:59,488167179,test,2,1,26,5,115,1,2589,77,0,0
71218,15:28:59,488167179,test,2,0,28,6,194,0,2156,77,0,1
71218,15:28:59,488167179,test,2,1,30,4,130,0,1713,70,0,1
71218,15:28:59,488167179,test,2,0,32,7,5,0,3221,70,0,1
71218,15:28:59,488167179,test,2,0,34,3,164,0,1750,70,0,1
71218,15:28:59,488167179,test,2,1,36,6,78,1,2049,72,0,1
71218,15:28:59,488167179,test,2,1,38,2,72,1,956,75,0,1
71218,15:28:59,488167179,test,2,1,40,9,32,1,1160,76,0,1
71218,15:28:59,488167179,test,2,1,42,1,150,1,1600,78,0,1
71218,15:28:59,488167179,test,2,0,44,5,89,1,1826,78,12,1
71218,15:28:59,488167179,test,2,0,46,11,7,0,1294,78,11,1
71218,15:28:59,488167179,test,2,0,48,1,64,0,1510,78,10,1
71218,15:28:59,488167179,test,2,1,50,8,85,1,1099,80,10,1
71218,15:28:59,488167179,test,2,0,52,6,20,0,1218,80,9,1
71218,15:28:59,488167179,test,2,1,54,3,105,1,1259,81,9,1
71218,15:28:59,488167179,test,2,1,56,12,82,1,1229,82,9,1
71218,15:28:59,488167179,test,2,0,58,10,107,0,1069,82,8,1
71218,15:28:59,488167179,test,2,0,60,2,2,0,351,82,7,1
71218,15:28:59,488167179,test,2,0,62,4,180,0,405,82,7,1
71218,15:28:59,488167179,test,2,1,64,7,59,1,827,83,7,1
71218,15:28:59,488167179,test,2,0,66,12,141,0,1536,83,6,1
71218,15:28:59,488167179,test,2,1,68,10,50,1,790,84,6,1
71218,15:28:59,488167179,test,2,0,70,7,18,0,582,84,6,1
71218,15:28:59,488167179,test,2,0,72,9,46,0,676,84,5,1
71218,15:28:59,488167179,test,2,1,74,8,49,1,653,85,5,1
71218,15:28:59,488167179,test,2,0,76,8,152,0,564,85,5,1
71218,15:28:59,488167179,test,2,0,78,3,38,1,1210,85,10,1
71218,15:28:59,488167179,test,2,1,80,5,23,0,4158,80,10,0
71218,15:28:59,488167179,test,2,0,82,3,132,0,6242,80,10,1
71218,15:28:59,488167179,test,2,0,84,8,175,1,4605,80,14,1
71218,15:28:59,488167179,test,2,0,86,11,138,0,2334,80,13,0
71218,15:28:59,488167179,test,2,0,88,5,106,0,1040,80,13,0
71218,15:28:59,488167179,test,2,0,90,10,68,0,828,80,12,0
71218,15:28:59,488167179,test,2,1,92,9,119,1,886,81,12,0
71218,15:28:59,488167179,test,2,1,94,3,114,1,954,82,12,0
71218,15:28:59,488167179,test,2,1,96,1,77,1,587,83,12,0
71218,15:28:59,488167179,test,2,0,98,12,48,0,444,83,12,0
71218,15:28:59,488167179,test,2,1,100,2,128,1,702,84,12,0
71218,15:28:59,488167179,test,2,0,102,1,84,0,701,84,11,0
71218,15:28:59,488167179,test,2,1,104,7,193,1,635,84,11,0
71218,15:28:59,488167179,test,2,1,106,4,198,1,1089,85,11,0
71218,15:28:59,488167179,test,2,0,108,9,55,1,582,85,14,0
71218,15:28:59,488167179,test,2,0,110,2,45,0,983,85,14,0
71218,15:28:59,488167179,test,2,0,112,4,148,0,898,85,13,1
71218,15:28:59,488167179,test,2,0,114,7,182,0,803,85,13,0
71218,15:28:59,488167179,test,2,0,116,6,108,0,754,85,12,0
71218,15:28:59,488167179,test,2,1,118,11,86,1,940,85,12,0
71218,15:28:59,488167179,test,2,0,120,10,156,0,820,85,12,0
71218,15:28:59,488167179,test,2,0,122,2,110,0,696,85,12,0
71218,15:28:59,488167179,test,2,1,124,10,96,1,846,86,12,0
71218,15:28:59,488167179,test,2,0,126,6,8,0,2168,86,11,0
71218,15:28:59,488167179,test,2,1,128,12,25,1,888,86,11,0
71218,15:28:59,488167179,test,2,0,130,3,176,0,1121,86,11,0
71218,15:28:59,488167179,test,2,1,132,6,184,1,918,87,11,0
71218,15:28:59,488167179,test,2,1,134,2,186,0,120006,84,11,1
71218,15:28:59,488167179,test,2,1,136,12,120,1,1259,84,11,0
71218,15:28:59,488167179,test,2,0,138,4,170,1,3449,84,13,0
71218,15:28:59,488167179,test,2,1,140,3,200,1,1715,85,13,0
71218,15:28:59,488167179,test,2,0,142,12,3,0,3215,85,13,0
71218,15:28:59,488167179,test,2,1,144,5,122,1,1245,85,13,0
71218,15:28:59,488167179,test,2,1,146,8,34,1,1179,86,13,0
71218,15:28:59,488167179,test,2,0,148,11,146,1,2050,86,15,0
71218,15:28:59,488167179,test,2,1,150,9,53,1,431,86,15,0
71218,15:28:59,488167179,test,2,0,152,9,162,1,693,86,17,0
71218,15:28:59,488167179,test,2,0,154,1,123,1,13807,86,20,1
71218,15:28:59,488167179,test,2,1,156,7,19,1,226,86,20,1
71218,15:28:59,488167179,test,2,0,158,7,196,0,144535,86,19,0
71218,15:28:59,488167179,test,2,0,160,5,104,1,1028,86,21,0
71218,15:28:59,488167179,test,2,1,162,11,35,1,808,87,21,0
71218,15:28:59,488167179,test,2,0,164,8,30,0,995,87,20,0
71218,15:28:59,488167179,test,2,1,166,6,6,0,1889,85,20,0
71218,15:28:59,488167179,test,2,0,168,8,27,0,478,85,20,0
71218,15:28:59,488167179,test,2,1,170,1,183,1,1027,85,20,0
71218,15:28:59,488167179,test,2,1,172,4,11,0,1044,83,20,0
71218,15:28:59,488167179,test,2,1,174,10,29,1,855,83,20,0
71218,15:28:59,488167179,test,2,1,176,5,134,1,844,84,20,0
71218,15:28:59,488167179,test,2,1,178,8,65,1,883,84,20,0
71218,15:28:59,488167179,test,2,0,180,7,91,0,235893,84,20,1
71218,15:28:59,488167179,test,2,1,182,1,113,1,975,84,20,1
71218,15:28:59,488167179,test,2,0,184,1,98,0,616,84,19,0
71218,15:28:59,488167179,test,2,0,186,6,168,0,2710,84,19,0
71218,15:28:59,488167179,test,2,1,188,10,181,1,1082,85,19,0
71218,15:28:59,488167179,test,2,0,190,4,10,0,2218,85,18,0
71218,15:28:59,488167179,test,2,0,192,12,169,0,1273,85,18,0
71218,15:28:59,488167179,test,2,1,194,6,42,1,985,85,18,0
71218,15:28:59,488167179,test,2,1,196,11,136,1,750,85,18,0
71218,15:28:59,488167179,test,2,1,198,4,126,1,1616,86,18,1
71218,15:28:59,488167179,test,2,0,200,11,154,0,1001,86,18,1
71218,15:28:59,488167179,test,2,1,202,9,41,1,1019,86,18,0
71218,15:28:59,488167179,test,2,1,204,12,118,0,5097,84,18,1
71218,15:28:59,488167179,test,2,0,206,10,52,0,2006,84,17,1
71218,15:28:59,488167179,test,2,0,208,9,54,0,910,84,17,1
71218,15:28:59,488167179,test,2,1,210,3,36,0,2412,83,17,1
71218,15:28:59,488167179,test,2,0,212,2,199,0,1198,83,16,1
71218,15:28:59,488167179,test,2,0,214,3,116,0,528,83,16,1
71218,15:28:59,488167179,test,2,1,216,2,121,1,697,83,16,1
71218,15:28:59,488167179,test,2,1,218,7,131,1,560,83,16,1
71218,15:28:59,488167179,test,2,1,220,3,24,1,493,83,16,1
71218,15:28:59,488167179,test,2,0,222,5,69,1,722,83,18,1
71218,15:28:59,488167179,test,2,0,224,5,33,1,1031,83,19,1
71218,15:28:59,488167179,test,2,0,226,3,133,1,1596,83,21,1
71218,15:28:59,488167179,test,2,1,228,12,161,1,535,84,21,1
71218,15:28:59,488167179,test,2,0,230,4,95,0,1354,84,20,1
71218,15:28:59,488167179,test,2,1,232,4,22,1,934,84,20,1
71218,15:28:59,488167179,test,2,1,234,8,102,0,3511,83,20,1
71218,15:28:59,488167179,test,2,0,236,9,100,1,670,83,22,1
71218,15:28:59,488167179,test,2,0,238,8,37,0,1174,83,21,1
71218,15:28:59,488167179,test,2,1,240,2,66,0,1939,81,21,1
71218,09:45:20,560873965,test,2,0,2,10,53,1,515,0,100,0
71218,09:45:20,560873965,test,2,1,4,4,41,1,811,100,100,0
71218,09:45:20,560873965,test,2,1,6,2,169,1,904,100,100,1
71218,09:45:20,560873965,test,2,1,8,10,146,1,800,100,100,0
71218,09:45:20,560873965,test,2,0,10,4,99,0,758,100,50,0
71218,09:45:20,560873965,test,2,1,12,9,174,1,865,100,50,0
71218,09:45:20,560873965,test,2,0,14,9,66,0,1010,100,33,1
71218,09:45:20,560873965,test,2,1,16,11,8,1,890,100,33,0
71218,09:45:20,560873965,test,2,1,18,7,181,1,644,100,33,0
71218,09:45:20,560873965,test,2,0,20,2,112,0,1963,100,25,1
71218,09:45:20,560873965,test,2,1,22,1,162,1,1022,100,25,0
71218,09:45:20,560873965,test,2,1,24,5,96,1,991,100,25,0
71218,09:45:20,560873965,test,2,0,26,8,17,0,1036,100,20,0
71218,09:45:20,560873965,test,2,1,28,9,82,1,541,100,20,0
71218,09:45:20,560873965,test,2,1,30,12,121,1,608,100,20,0
71218,09:45:20,560873965,test,2,0,32,6,92,0,916,100,16,0
71218,09:45:20,560873965,test,2,1,34,2,180,1,488,100,16,1
71218,09:45:20,560873965,test,2,1,36,11,86,1,837,100,16,0
71218,09:45:20,560873965,test,2,1,38,3,22,1,564,100,16,0
71218,09:45:20,560873965,test,2,1,40,1,12,1,1087,100,16,0
71218,09:45:20,560873965,test,2,0,42,1,143,0,480,100,14,1
71218,09:45:20,560873965,test,2,0,44,10,97,0,1148,100,12,0
71218,09:45:20,560873965,test,2,1,46,7,59,1,487,100,12,0
71218,09:45:20,560873965,test,2,0,48,7,94,0,903,100,11,1
71218,09:45:20,560873965,test,2,0,50,4,189,1,1332,100,20,0
71218,09:45:20,560873965,test,2,0,52,12,51,1,1075,100,27,0
71218,09:45:20,560873965,test,2,0,54,6,84,0,579,100,25,1
71218,09:45:20,560873965,test,2,1,56,6,187,0,1457,93,25,0
71218,09:45:20,560873965,test,2,0,58,3,60,0,653,93,23,0
71218,09:45:20,560873965,test,2,0,60,8,91,0,1263,93,21,0
71218,09:45:20,560873965,test,2,1,62,8,123,1,300,94,21,0
71218,09:45:20,560873965,test,2,1,64,10,154,1,740,94,21,0
71218,09:45:20,560873965,test,2,0,66,2,67,0,1033,94,20,0
71218,09:45:20,560873965,test,2,0,68,5,108,0,563,94,18,0
71218,09:45:20,560873965,test,2,0,70,11,98,1,1165,94,23,0
71218,09:45:20,560873965,test,2,0,72,1,23,0,316,94,22,1
71218,09:45:20,560873965,test,2,0,74,9,150,0,689,94,21,0
71218,09:45:20,560873965,test,2,1,76,4,43,1,567,94,21,0
71218,09:45:20,560873965,test,2,0,78,8,44,0,1167,94,20,0
71218,09:45:20,560873965,test,2,0,80,11,10,0,539,94,19,0
71218,09:45:20,560873965,test,2,0,82,9,14,1,872,94,22,0
71218,09:45:20,560873965,test,2,1,84,1,24,1,919,95,22,0
71218,09:45:20,560873965,test,2,0,86,6,70,0,1351,95,21,0
71218,09:45:20,560873965,test,2,0,88,10,73,1,1399,95,25,0
71218,09:45:20,560873965,test,2,0,90,4,62,1,867,95,28,0
71218,09:45:20,560873965,test,2,0,92,1,151,0,769,95,26,1
71218,09:45:20,560873965,test,2,0,94,2,87,1,964,95,29,0
71218,09:45:20,560873965,test,2,1,96,9,115,1,605,95,29,0
71218,09:45:20,560873965,test,2,0,98,3,27,0,524,95,28,0
71218,09:45:20,560873965,test,2,0,100,5,95,1,1533,95,31,0
71218,09:45:20,560873965,test,2,1,102,10,127,1,729,95,31,0
71218,09:45:20,560873965,test,2,0,104,7,125,0,823,95,30,0
71218,09:45:20,560873965,test,2,0,106,12,101,1,872,95,32,0
71218,09:45:20,560873965,test,2,1,108,6,72,0,1004,91,32,0
71218,09:45:20,560873965,test,2,0,110,2,182,0,707,91,31,0
71218,09:45:20,560873965,test,2,1,112,7,157,1,572,91,31,0
71218,09:45:20,560873965,test,2,0,114,7,26,1,965,91,33,0
71218,09:45:20,560873965,test,2,1,116,5,11,1,891,92,33,0
71218,09:45:20,560873965,test,2,1,118,4,168,1,1280,92,33,0
71218,09:45:20,560873965,test,2,1,120,3,93,1,854,92,33,0
71218,09:45:20,560873965,test,2,1,122,8,75,1,642,92,33,0
71218,09:45:20,560873965,test,2,0,124,8,167,0,1263,92,32,0
71218,09:45:20,560873965,test,2,1,126,11,131,1,517,93,32,0
71218,09:45:20,560873965,test,2,1,128,12,118,1,735,93,32,0
71218,09:45:20,560873965,test,2,1,130,2,120,1,549,93,32,0
71218,09:45:20,560873965,test,2,1,132,12,32,1,682,93,32,0
71218,09:45:20,560873965,test,2,0,134,5,153,0,516,93,31,0
71218,09:45:20,560873965,test,2,0,136,1,1,0,656,93,30,1
71218,09:45:20,560873965,test,2,0,138,3,130,0,593,93,29,1
71218,09:45:20,560873965,test,2,1,140,1,46,1,474,93,29,1
71218,09:45:20,560873965,test,2,1,142,6,18,1,554,94,29,0
71218,09:45:20,560873965,test,2,0,144,11,148,0,816,94,28,0
71218,09:45:20,560873965,test,2,0,146,10,47,1,1391,94,30,0
71218,09:45:20,560873965,test,2,1,148,3,33,1,703,94,30,0
71218,09:45:20,560873965,test,2,1,150,2,55,1,738,94,30,0
71218,09:45:20,560873965,test,2,1,152,8,166,1,836,94,30,0
71218,09:45:20,560873965,test,2,1,154,10,111,1,847,94,30,0
71218,09:45:20,560873965,test,2,1,156,5,122,1,698,94,30,0
71218,09:45:20,560873965,test,2,0,158,12,185,0,898,94,30,0
71218,09:45:20,560873965,test,2,0,160,4,90,0,874,94,29,0
71218,09:45:20,560873965,test,2,1,162,9,57,1,480,95,29,0
71218,09:45:20,560873965,test,2,0,164,6,144,1,725,95,30,0
71218,09:45:20,560873965,test,2,1,166,7,142,1,787,95,30,0
71218,09:45:20,560873965,test,2,0,168,9,83,1,756,95,32,0
71218,09:45:20,560873965,test,2,1,170,4,177,1,979,95,32,1
71218,09:45:20,560873965,test,2,0,172,8,71,0,839,95,31,0
71218,09:45:20,560873965,test,2,1,174,11,15,1,389,95,31,0
71218,09:45:20,560873965,test,2,1,176,5,56,1,357,95,31,1
71218,09:45:20,560873965,test,2,0,178,3,107,0,366,95,31,1
71218,09:45:20,560873965,test,2,0,180,6,100,0,941,95,30,0
71218,09:45:20,560873965,test,2,0,182,10,76,0,868,95,29,0
71218,09:45:20,560873965,test,2,1,184,4,19,1,313,95,29,1
71218,09:45:20,560873965,test,2,1,186,8,16,1,4577,95,29,0
71218,09:45:20,560873965,test,2,0,188,4,192,0,1001,95,29,1
71218,09:45:20,560873965,test,2,0,190,9,31,0,906,95,28,1
71218,09:45:20,560873965,test,2,1,192,12,136,1,469,95,28,1
71218,09:45:20,560873965,test,2,0,194,2,4,0,1085,95,28,1
71218,09:45:20,560873965,test,2,0,196,5,48,0,740,95,27,0
71218,09:45:20,560873965,test,2,1,198,9,140,1,295,95,27,0
71218,09:45:20,560873965,test,2,0,200,12,198,0,927,95,26,0
71218,09:45:20,560873965,test,2,1,202,11,171,0,1141,93,26,0
71218,09:45:20,560873965,test,2,0,204,7,20,0,529,93,26,0
71218,09:45:20,560873965,test,2,0,206,1,175,0,513,93,25,1
71218,09:45:20,560873965,test,2,1,208,2,197,1,485,94,25,0
71218,09:45:20,560873965,test,2,0,210,11,78,0,729,94,25,0
71218,09:45:20,560873965,test,2,1,212,7,50,1,346,94,25,0
71218,09:45:20,560873965,test,2,1,214,6,89,1,874,94,25,0
71218,09:45:20,560873965,test,2,1,216,3,109,0,467,92,25,0
71218,09:45:20,560873965,test,2,0,218,8,29,0,611,92,25,0
71218,09:45:20,560873965,test,2,1,220,1,77,1,527,92,25,0
71218,09:45:20,560873965,test,2,1,222,10,195,1,471,92,25,0
71218,09:45:20,560873965,test,2,0,224,6,124,0,623,92,24,1
71218,09:45:20,560873965,test,2,1,226,6,129,1,837,92,24,0
71218,09:45:20,560873965,test,2,1,228,12,88,0,851,91,24,1
71218,09:45:20,560873965,test,2,0,230,10,74,1,580,91,25,0
71218,09:45:20,560873965,test,2,1,232,11,114,1,317,91,25,1
71218,09:45:20,560873965,test,2,1,234,3,196,1,981,91,25,1
71218,09:45:20,560873965,test,2,1,236,10,85,0,769,90,25,0
71218,09:45:20,560873965,test,2,0,238,11,149,0,1485,90,25,0
71218,09:45:20,560873965,test,2,0,240,1,160,1,739,90,26,0
71218,16:49:16,938096670,test,2,1,2,5,102,1,509,100,0,0
71218,16:49:16,938096670,test,2,1,4,12,186,1,373,100,0,0
71218,16:49:16,938096670,test,2,1,6,2,116,1,269,100,0,0
71218,16:49:16,938096670,test,2,0,8,3,51,1,821,100,100,0
71218,16:49:16,938096670,test,2,0,10,8,130,1,1071,100,100,0
71218,16:49:16,938096670,test,2,1,12,9,120,1,1093,100,100,0
71218,16:49:16,938096670,test,2,1,14,10,142,1,527,100,100,0
71218,16:49:16,938096670,test,2,1,16,8,21,1,398,100,100,0
71218,16:49:16,938096670,test,2,0,18,10,180,1,496,100,100,0
71218,16:49:16,938096670,test,2,0,20,1,26,1,984,100,100,0
71218,16:49:16,938096670,test,2,1,22,3,56,1,394,100,100,0
71218,16:49:16,938096670,test,2,0,24,5,12,1,714,100,100,0
71218,16:49:16,938096670,test,2,0,26,6,162,1,1353,100,100,0
71218,16:49:16,938096670,test,2,0,28,12,119,1,770,100,100,0
71218,16:49:16,938096670,test,2,1,30,12,41,1,558,100,100,0
71218,16:49:16,938096670,test,2,1,32,4,154,1,347,100,100,0
71218,16:49:16,938096670,test,2,0,34,12,29,1,892,100,100,0
71218,16:49:16,938096670,test,2,1,36,3,99,1,455,100,100,0
71218,16:49:16,938096670,test,2,1,38,5,176,1,369,100,100,0
71218,16:49:16,938096670,test,2,0,40,11,193,0,447,100,88,1
71218,16:49:16,938096670,test,2,0,42,9,141,0,836,100,80,1
71218,16:49:16,938096670,test,2,1,44,11,52,1,391,100,80,0
71218,16:49:16,938096670,test,2,0,46,5,80,1,493,100,81,0
71218,16:49:16,938096670,test,2,0,48,10,151,0,953,100,75,1
71218,16:49:16,938096670,test,2,1,50,10,172,1,709,100,75,0
71218,16:49:16,938096670,test,2,1,52,7,38,1,1174,100,75,0
71218,16:49:16,938096670,test,2,1,54,2,4,1,559,100,75,0
71218,16:49:16,938096670,test,2,0,56,8,98,1,521,100,76,0
71218,16:49:16,938096670,test,2,1,58,6,135,1,245,100,76,0
71218,16:49:16,938096670,test,2,1,60,1,64,1,348,100,76,0
71218,16:49:16,938096670,test,2,0,62,6,82,1,447,100,78,0
71218,16:49:16,938096670,test,2,0,64,3,174,0,1566,100,73,1
71218,16:49:16,938096670,test,2,1,66,9,19,1,522,100,73,0
71218,16:49:16,938096670,test,2,1,68,8,132,1,738,100,73,0
71218,16:49:16,938096670,test,2,1,70,6,94,1,738,100,73,0
71218,16:49:16,938096670,test,2,0,72,2,118,0,859,100,68,1
71218,16:49:16,938096670,test,2,0,74,7,111,0,1169,100,64,1
71218,16:49:16,938096670,test,2,1,76,2,196,1,411,100,64,1
71218,16:49:16,938096670,test,2,0,78,1,81,0,654,100,61,1
71218,16:49:16,938096670,test,2,1,80,3,67,1,630,100,61,0
71218,16:49:16,938096670,test,2,0,82,4,32,1,832,100,63,0
71218,16:49:16,938096670,test,2,0,84,8,149,1,738,100,65,0
71218,16:49:16,938096670,test,2,1,86,9,22,1,311,100,65,0
71218,16:49:16,938096670,test,2,0,88,2,170,0,1445,100,61,1
71218,16:49:16,938096670,test,2,0,90,10,168,1,463,100,63,0
71218,16:49:16,938096670,test,2,1,92,7,146,1,601,100,63,0
71218,16:49:16,938096670,test,2,0,94,5,189,1,415,100,65,0
71218,16:49:16,938096670,test,2,1,96,12,50,1,4105,100,65,0
71218,16:49:16,938096670,test,2,0,98,6,159,1,682,100,66,0
71218,16:49:16,938096670,test,2,1,100,8,83,1,393,100,66,0
71218,16:49:16,938096670,test,2,1,102,10,187,1,881,100,66,0
71218,16:49:16,938096670,test,2,0,104,12,36,1,643,100,68,0
71218,16:49:16,938096670,test,2,0,106,4,86,1,1162,100,69,0
71218,16:49:16,938096670,test,2,0,108,9,148,0,924,100,66,1
71218,16:49:16,938096670,test,2,1,110,1,18,1,364,100,66,0
71218,16:49:16,938096670,test,2,1,112,5,7,1,337,100,66,0
71218,16:49:16,938096670,test,2,1,114,4,131,1,305,100,66,0
71218,16:49:16,938096670,test,2,1,116,11,101,1,440,100,66,0
71218,16:49:16,938096670,test,2,0,118,7,72,1,629,100,67,0
71218,16:49:16,938096670,test,2,0,120,1,144,0,927,100,65,1
71218,16:49:16,938096670,test,2,1,122,3,161,1,646,100,65,0
71218,16:49:16,938096670,test,2,0,124,11,3,1,642,100,66,0
71218,16:49:16,938096670,test,2,1,126,12,150,1,1090,100,66,0
71218,16:49:16,938096670,test,2,1,128,1,61,1,571,100,66,0
71218,16:49:16,938096670,test,2,0,130,3,68,1,960,100,67,0
71218,16:49:16,938096670,test,2,1,132,4,124,1,517,100,67,0
71218,16:49:16,938096670,test,2,1,134,9,27,1,479,100,67,0
71218,16:49:16,938096670,test,2,0,136,10,105,1,571,100,68,0
71218,16:49:16,938096670,test,2,0,138,2,88,1,2634,100,69,0
71218,16:49:16,938096670,test,2,0,140,12,45,1,653,100,70,0
71218,16:49:16,938096670,test,2,1,142,6,75,1,456,100,70,0
71218,16:49:16,938096670,test,2,0,144,1,47,1,627,100,71,0
71218,16:49:16,938096670,test,2,1,146,10,134,1,643,100,71,0
71218,16:49:16,938096670,test,2,1,148,5,138,1,565,100,71,0
71218,16:49:16,938096670,test,2,1,150,8,194,1,890,100,71,0
71218,16:49:16,938096670,test,2,1,152,2,147,1,4196,100,71,0
71218,16:49:16,938096670,test,2,1,154,7,198,1,578,100,71,1
71218,16:49:16,938096670,test,2,0,156,6,121,1,1911,100,72,0
71218,16:49:16,938096670,test,2,1,158,11,200,1,367,100,72,1
71218,16:49:16,938096670,test,2,0,160,4,109,0,1600,100,70,1
71218,16:49:16,938096670,test,2,1,162,9,58,1,882,100,70,0
71218,16:49:16,938096670,test,2,0,164,9,169,1,406,100,71,0
71218,16:49:16,938096670,test,2,0,166,5,48,1,499,100,71,0
71218,16:49:16,938096670,test,2,1,168,8,163,1,415,100,71,0
71218,16:49:16,938096670,test,2,0,170,7,70,1,556,100,72,0
71218,16:49:16,938096670,test,2,0,172,8,34,1,1219,100,73,0
71218,16:49:16,938096670,test,2,0,174,3,46,0,1202,100,71,1
71218,16:49:16,938096670,test,2,0,176,11,59,1,593,100,72,0
71218,16:49:16,938096670,test,2,1,178,6,179,1,359,100,72,0
71218,16:49:16,938096670,test,2,0,180,9,91,0,892,100,70,1
71218,16:49:16,938096670,test,2,1,182,4,140,1,401,100,70,0
71218,16:49:16,938096670,test,2,0,184,5,152,1,1043,100,71,0
71218,16:49:16,938096670,test,2,0,186,6,74,1,692,100,71,0
71218,16:49:16,938096670,test,2,0,188,10,199,1,2010,100,72,0
71218,16:49:16,938096670,test,2,1,190,10,78,1,2564,100,72,0
71218,16:49:16,938096670,test,2,0,192,2,44,1,3044,100,72,0
71218,16:49:16,938096670,test,2,1,194,5,15,1,443,100,72,0
71218,16:49:16,938096670,test,2,0,196,11,95,1,708,100,73,0
71218,16:49:16,938096670,test,2,1,198,2,14,1,580,100,73,0
71218,16:49:16,938096670,test,2,0,200,12,125,1,1042,100,74,0
71218,16:49:16,938096670,test,2,0,202,1,117,0,546,100,72,1
71218,16:49:16,938096670,test,2,1,204,11,16,1,618,100,72,0
71218,16:49:16,938096670,test,2,1,206,12,69,1,601,100,72,0
71218,16:49:16,938096670,test,2,0,208,7,190,1,480,100,73,0
71218,16:49:16,938096670,test,2,1,210,3,13,1,552,100,73,0
71218,16:49:16,938096670,test,2,1,212,1,195,1,875,100,73,0
71218,16:49:16,938096670,test,2,1,214,7,143,1,1925,100,73,0
71218,16:49:16,938096670,test,2,1,216,12,53,1,1099,100,73,0
71218,16:49:16,938096670,test,2,0,218,8,85,1,1030,100,73,0
71218,16:49:16,938096670,test,2,1,220,9,139,1,663,100,73,0
71218,16:49:16,938096670,test,2,0,222,3,126,1,2058,100,74,0
71218,16:49:16,938096670,test,2,1,224,11,60,1,2214,100,74,0
71218,16:49:16,938096670,test,2,0,226,4,183,1,3593,100,74,0
71218,16:49:16,938096670,test,2,0,228,5,23,1,569,100,75,0
71218,16:49:16,938096670,test,2,0,230,6,17,1,461,100,75,0
71218,16:49:16,938096670,test,2,0,232,4,8,1,4894,100,75,0
71218,16:49:16,938096670,test,2,0,234,11,89,1,3989,100,76,0
71218,16:49:16,938096670,test,2,0,236,7,106,1,779,100,76,0
71218,16:49:16,938096670,test,2,1,238,5,197,1,618,100,76,0
71218,16:49:16,938096670,test,2,1,240,10,6,1,722,100,76,0
71218,15:51:28,496840284,test,2,1,2,6,187,1,1520,100,0,1
71218,15:51:28,496840284,test,2,0,4,11,179,0,2266,100,0,1
71218,15:51:28,496840284,test,2,1,6,11,159,1,133,100,0,1
71218,15:51:28,496840284,test,2,0,8,7,88,1,25,100,50,1
71218,15:51:28,496840284,test,2,0,10,6,50,1,10,100,66,1
71218,15:51:28,496840284,test,2,0,12,12,81,0,5996,100,50,1
71218,15:51:28,496840284,test,2,0,14,2,132,0,225,100,40,1
71218,15:51:28,496840284,test,2,1,16,2,173,1,186,100,40,1
71218,15:51:28,496840284,test,2,0,18,4,192,1,140,100,50,1
71218,15:51:28,496840284,test,2,0,20,3,69,0,42,100,42,1
71218,15:51:28,496840284,test,2,0,22,1,84,0,257,100,37,1
71218,15:51:28,496840284,test,2,1,24,10,47,1,425,100,37,1
71218,15:51:28,496840284,test,2,1,26,12,161,0,32,80,37,1
71218,15:51:28,496840284,test,2,0,28,4,146,1,65,80,44,1
71218,15:51:28,496840284,test,2,1,30,4,163,0,104,66,44,1
71218,15:51:28,496840284,test,2,1,32,7,92,1,215,71,44,1
71218,15:51:28,496840284,test,2,0,34,3,112,0,223,71,40,1
71218,15:51:28,496840284,test,2,1,36,11,58,1,145,75,40,1
71218,15:51:28,496840284,test,2,0,38,5,23,1,37,75,45,1
71218,15:51:28,496840284,test,2,1,40,5,172,0,342,66,45,1
71218,15:51:28,496840284,test,2,0,42,7,11,1,241,66,50,1
71218,15:51:28,496840284,test,2,1,44,9,53,1,401,70,50,1
71218,15:51:28,496840284,test,2,1,46,10,98,1,555,72,50,1
71218,15:51:28,496840284,test,2,1,48,6,162,1,981,75,50,1
71218,15:51:28,496840284,test,2,0,50,6,35,1,103,75,53,1
71218,15:51:28,496840284,test,2,0,52,11,8,0,902,75,50,1
71218,15:51:28,496840284,test,2,0,54,9,117,1,216,75,53,1
71218,15:51:28,496840284,test,2,0,56,8,198,0,2569,75,50,1
71218,15:51:28,496840284,test,2,0,58,12,170,1,1385,75,52,1
71218,15:51:28,496840284,test,2,1,60,2,125,1,193,76,52,1
71218,15:51:28,496840284,test,2,0,62,2,61,0,355,76,50,1
71218,15:51:28,496840284,test,2,0,64,10,21,1,911,76,52,1
71218,15:51:28,496840284,test,2,1,66,8,72,1,946,78,52,1
71218,15:51:28,496840284,test,2,1,68,4,79,1,69,80,52,1
71218,15:51:28,496840284,test,2,0,70,3,110,0,300,80,50,1
71218,15:51:28,496840284,test,2,1,72,7,137,1,171,81,50,1
71218,15:51:28,496840284,test,2,1,74,3,62,1,199,82,50,1
71218,15:51:28,496840284,test,2,1,76,12,59,1,625,83,50,1
71218,15:51:28,496840284,test,2,0,78,9,157,1,249,83,52,1
71218,15:51:28,496840284,test,2,1,80,1,155,1,312,84,52,1
71218,15:51:28,496840284,test,2,0,82,4,91,0,750,84,50,1
71218,15:51:28,496840284,test,2,1,84,2,89,1,393,85,50,1
71218,15:51:28,496840284,test,2,0,86,11,171,0,724,85,47,1
71218,15:51:28,496840284,test,2,0,88,2,199,0,728,85,45,1
71218,15:51:28,496840284,test,2,0,90,7,107,1,299,85,48,1
71218,15:51:28,496840284,test,2,1,92,10,156,1,507,85,48,1
71218,15:51:28,496840284,test,2,1,94,11,123,1,576,86,48,1
71218,15:51:28,496840284,test,2,1,96,12,78,0,433,82,48,1
71218,15:51:28,496840284,test,2,1,98,1,102,1,475,83,48,1
71218,15:51:28,496840284,test,2,1,100,3,34,1,217,84,48,1
71218,15:51:28,496840284,test,2,1,102,9,158,1,114,84,48,1
71218,15:51:28,496840284,test,2,0,104,12,130,1,88,84,50,1
71218,15:51:28,496840284,test,2,0,106,8,186,1,151,84,51,1
71218,15:51:28,496840284,test,2,0,108,6,28,1,380,84,53,1
71218,15:51:28,496840284,test,2,1,110,5,73,1,789,85,53,1
71218,15:51:28,496840284,test,2,1,112,4,13,1,151,85,53,1
71218,15:51:28,496840284,test,2,1,114,6,56,1,2122,86,53,0
71218,15:51:28,496840284,test,2,1,116,7,167,1,1051,86,53,0
71218,15:51:28,496840284,test,2,0,118,1,80,0,449,86,51,1
71218,15:51:28,496840284,test,2,1,120,8,177,0,249,83,51,1
71218,15:51:28,496840284,test,2,1,122,2,118,1,404,84,51,1
71218,15:51:28,496840284,test,2,0,124,5,108,0,501,84,50,1
71218,15:51:28,496840284,test,2,1,126,3,95,1,258,84,50,1
71218,15:51:28,496840284,test,2,0,128,10,2,0,2024,84,48,1
71218,15:51:28,496840284,test,2,1,130,4,49,1,214,85,48,1
71218,15:51:28,496840284,test,2,0,132,9,129,0,975,85,46,1
71218,15:51:28,496840284,test,2,1,134,9,22,0,1130,82,46,1
71218,15:51:28,496840284,test,2,1,136,5,175,1,524,83,46,1
71218,15:51:28,496840284,test,2,1,138,7,20,1,73,83,46,1
71218,15:51:28,496840284,test,2,0,140,1,196,1,105,83,48,1
71218,15:51:28,496840284,test,2,0,142,2,30,0,1239,83,47,1
71218,15:51:28,496840284,test,2,1,144,6,169,1,1364,84,47,1
71218,15:51:28,496840284,test,2,1,146,1,150,1,1039,84,47,1
71218,15:51:28,496840284,test,2,1,148,8,74,1,653,85,47,1
71218,15:51:28,496840284,test,2,0,150,8,103,0,501,85,45,1
71218,15:51:28,496840284,test,2,0,152,5,71,0,48,85,44,1
71218,15:51:28,496840284,test,2,0,154,12,5,1,627,85,45,1
71218,15:51:28,496840284,test,2,0,156,7,145,1,587,85,47,1
71218,15:51:28,496840284,test,2,0,158,4,55,1,643,85,48,1
71218,15:51:28,496840284,test,2,1,160,10,127,1,781,85,48,1
71218,15:51:28,496840284,test,2,0,162,6,148,1,261,85,50,1
71218,15:51:28,496840284,test,2,1,164,11,82,1,708,85,50,1
71218,15:51:28,496840284,test,2,0,166,3,139,0,1083,85,48,1
71218,15:51:28,496840284,test,2,1,168,12,149,1,743,86,48,1
71218,15:51:28,496840284,test,2,0,170,11,57,0,3460,86,47,1
71218,15:51:28,496840284,test,2,1,172,1,190,1,485,86,47,1
71218,15:51:28,496840284,test,2,1,174,9,188,1,650,86,47,1
71218,15:51:28,496840284,test,2,0,176,10,40,1,801,86,48,1
71218,15:51:28,496840284,test,2,1,178,4,97,1,644,86,48,1
71218,15:51:28,496840284,test,2,0,180,12,17,0,1106,86,47,1
71218,15:51:28,496840284,test,2,1,182,3,143,1,687,87,47,1
71218,15:51:28,496840284,test,2,1,184,11,178,1,731,87,47,1
71218,15:51:28,496840284,test,2,1,186,12,39,1,671,87,47,1
71218,15:51:28,496840284,test,2,0,188,7,66,1,326,87,48,1
71218,15:51:28,496840284,test,2,1,190,8,27,0,786,86,48,1
71218,15:51:28,496840284,test,2,0,192,5,43,0,340,86,47,1
71218,15:51:28,496840284,test,2,0,194,6,48,1,536,86,48,1
71218,15:51:28,496840284,test,2,1,196,7,104,0,100,84,48,1
71218,15:51:28,496840284,test,2,0,198,8,115,1,596,84,50,1
71218,15:51:28,496840284,test,2,1,200,5,10,0,715,82,50,1
71218,15:51:28,496840284,test,2,0,202,2,86,0,865,82,48,1
71218,15:51:28,496840284,test,2,1,204,2,93,0,494,81,48,1
71218,15:51:28,496840284,test,2,0,206,1,70,0,949,81,48,1
71218,15:51:28,496840284,test,2,1,208,6,4,1,4345,81,48,1
71218,15:51:28,496840284,test,2,0,210,3,26,1,772,81,49,1
71218,15:51:28,496840284,test,2,0,212,11,195,1,637,81,50,1
71218,15:51:28,496840284,test,2,0,214,9,138,0,1582,81,49,1
71218,15:51:28,496840284,test,2,0,216,4,76,0,2301,81,48,1
71218,15:51:28,496840284,test,2,1,218,10,37,1,3351,81,48,1
71218,15:51:28,496840284,test,2,0,220,10,7,1,733,81,49,1
71218,15:51:28,496840284,test,2,0,222,8,101,0,1065,81,48,1
71218,15:51:28,496840284,test,2,1,224,7,16,1,905,82,48,1
71218,15:51:28,496840284,test,2,0,226,4,113,0,1660,82,47,1
71218,15:51:28,496840284,test,2,1,228,4,67,1,617,82,47,1
71218,15:51:28,496840284,test,2,1,230,3,9,0,1859,81,47,1
71218,15:51:28,496840284,test,2,1,232,10,133,0,1941,79,47,1
71218,15:51:28,496840284,test,2,0,234,12,31,0,630,79,46,1
71218,15:51:28,496840284,test,2,0,236,1,140,0,2479,79,45,1
71218,15:51:28,496840284,test,2,1,238,6,94,0,8,78,45,1
71218,15:51:28,496840284,test,2,0,240,11,100,0,339,78,45,1
71218,10:52:29,423794130,test,2,1,2,6,173,1,564,100,0,0
71218,10:52:29,423794130,test,2,1,4,9,17,1,647,100,0,0
71218,10:52:29,423794130,test,2,1,6,4,10,1,878,100,0,0
71218,10:52:29,423794130,test,2,0,8,7,57,1,1263,100,100,0
71218,10:52:29,423794130,test,2,0,10,10,164,1,695,100,100,0
71218,10:52:29,423794130,test,2,1,12,3,72,1,802,100,100,0
71218,10:52:29,423794130,test,2,0,14,5,77,1,735,100,100,0
71218,10:52:29,423794130,test,2,1,16,7,73,1,732,100,100,0
71218,10:52:29,423794130,test,2,0,18,11,148,1,869,100,100,0
71218,10:52:29,423794130,test,2,1,20,10,149,1,316,100,100,0
71218,10:52:29,423794130,test,2,1,22,1,21,1,736,100,100,0
71218,10:52:29,423794130,test,2,1,24,12,111,1,729,100,100,0
71218,10:52:29,423794130,test,2,1,26,10,35,1,1511,100,100,0
71218,10:52:29,423794130,test,2,0,28,4,70,1,708,100,100,0
71218,10:52:29,423794130,test,2,0,30,1,115,1,1025,100,100,0
71218,10:52:29,423794130,test,2,1,32,1,116,1,648,100,100,0
71218,10:52:29,423794130,test,2,1,34,7,191,1,644,100,100,0
71218,10:52:29,423794130,test,2,1,36,5,146,1,454,100,100,0
71218,10:52:29,423794130,test,2,0,38,6,137,0,1410,100,85,1
71218,10:52:29,423794130,test,2,0,40,4,27,1,606,100,87,0
71218,10:52:29,423794130,test,2,0,42,7,122,1,683,100,88,0
71218,10:52:29,423794130,test,2,0,44,8,9,1,792,100,90,0
71218,10:52:29,423794130,test,2,0,46,12,38,1,576,100,90,0
71218,10:52:29,423794130,test,2,0,48,2,177,0,1024,100,83,1
71218,10:52:29,423794130,test,2,0,50,3,64,0,1079,100,76,1
71218,10:52:29,423794130,test,2,0,52,9,195,1,563,100,78,0
71218,10:52:29,423794130,test,2,0,54,10,178,1,836,100,80,0
71218,10:52:29,423794130,test,2,1,56,3,87,1,338,100,80,0
71218,10:52:29,423794130,test,2,1,58,4,25,1,212,100,80,0
71218,10:52:29,423794130,test,2,1,60,8,196,1,328,100,80,0
71218,10:52:29,423794130,test,2,0,62,5,136,1,452,100,81,0
71218,10:52:29,423794130,test,2,0,64,1,66,0,591,100,76,1
71218,10:52:29,423794130,test,2,1,66,2,184,1,281,100,76,0
71218,10:52:29,423794130,test,2,0,68,11,105,1,435,100,77,0
71218,10:52:29,423794130,test,2,0,70,6,107,0,675,100,73,1
71218,10:52:29,423794130,test,2,0,72,12,40,1,372,100,75,0
71218,10:52:29,423794130,test,2,1,74,6,118,1,195,100,75,0
71218,10:52:29,423794130,test,2,0,76,6,159,0,567,100,71,1
71218,10:52:29,423794130,test,2,0,78,7,160,1,256,100,72,0
71218,10:52:29,423794130,test,2,0,80,10,33,1,735,100,73,0
71218,10:52:29,423794130,test,2,1,82,9,95,1,248,100,73,0
71218,10:52:29,423794130,test,2,1,84,11,131,1,226,100,73,0
71218,10:52:29,423794130,test,2,0,86,3,92,0,566,100,70,1
71218,10:52:29,423794130,test,2,0,88,4,168,1,305,100,72,0
71218,10:52:29,423794130,test,2,1,90,10,31,1,1092,100,72,0
71218,10:52:29,423794130,test,2,1,92,12,6,1,317,100,72,0
71218,10:52:29,423794130,test,2,1,94,9,109,1,216,100,72,0
71218,10:52:29,423794130,test,2,1,96,8,186,1,517,100,72,0
71218,10:52:29,423794130,test,2,1,98,5,170,1,245,100,72,0
71218,10:52:29,423794130,test,2,0,100,2,97,0,737,100,69,1
71218,10:52:29,423794130,test,2,0,102,5,93,1,528,100,70,0
71218,10:52:29,423794130,test,2,1,104,1,182,1,258,100,70,0
71218,10:52:29,423794130,test,2,1,106,6,37,1,388,100,70,0
71218,10:52:29,423794130,test,2,0,108,9,96,1,296,100,71,0
71218,10:52:29,423794130,test,2,0,110,8,142,1,276,100,72,0
71218,10:52:29,423794130,test,2,0,112,11,30,1,477,100,73,0
71218,10:52:29,423794130,test,2,1,114,11,123,1,238,100,73,0
71218,10:52:29,423794130,test,2,1,116,7,165,1,201,100,73,0
71218,10:52:29,423794130,test,2,1,118,3,163,1,212,100,73,0
71218,10:52:29,423794130,test,2,1,120,4,128,1,351,100,73,0
71218,10:52:29,423794130,test,2,1,122,2,120,1,267,100,73,0
71218,10:52:29,423794130,test,2,0,124,1,67,0,419,100,70,1
71218,10:52:29,423794130,test,2,0,126,6,193,0,533,100,68,1
71218,10:52:29,423794130,test,2,1,128,1,63,1,251,100,68,0
71218,10:52:29,423794130,test,2,1,130,5,34,1,179,100,68,0
71218,10:52:29,423794130,test,2,1,132,2,174,1,231,100,68,0
71218,10:52:29,423794130,test,2,0,134,7,147,1,269,100,69,0
71218,10:52:29,423794130,test,2,0,136,2,194,0,530,100,67,1
71218,10:52:29,423794130,test,2,1,138,10,76,1,295,100,67,0
71218,10:52:29,423794130,test,2,0,140,12,51,1,273,100,68,0
71218,10:52:29,423794130,test,2,1,142,11,143,1,294,100,68,0
71218,10:52:29,423794130,test,2,0,144,1,60,0,307,100,66,1
71218,10:52:29,423794130,test,2,1,146,3,90,1,184,100,66,0
71218,10:52:29,423794130,test,2,0,148,9,91,1,203,100,67,0
71218,10:52:29,423794130,test,2,0,150,11,169,1,252,100,68,0
71218,10:52:29,423794130,test,2,0,152,5,156,1,283,100,69,0
71218,10:52:29,423794130,test,2,1,154,9,23,1,133,100,69,0
71218,10:52:29,423794130,test,2,1,156,12,198,1,208,100,69,0
71218,10:52:29,423794130,test,2,1,158,7,26,1,148,100,69,0
71218,10:52:29,423794130,test,2,0,160,10,81,1,325,100,70,0
71218,10:52:29,423794130,test,2,0,162,8,176,1,534,100,70,0
71218,10:52:29,423794130,test,2,1,164,4,108,1,260,100,70,0
71218,10:52:29,423794130,test,2,1,166,6,12,1,198,100,70,0
71218,10:52:29,423794130,test,2,1,168,8,152,1,282,100,70,0
71218,10:52:29,423794130,test,2,0,170,3,75,0,340,100,69,1
71218,10:52:29,423794130,test,2,0,172,4,145,1,153,100,69,0
71218,10:52:29,423794130,test,2,1,174,11,71,1,160,100,69,0
71218,10:52:29,423794130,test,2,1,176,1,139,1,114,100,69,0
71218,10:52:29,423794130,test,2,0,178,12,54,1,139,100,70,0
71218,10:52:29,423794130,test,2,1,180,8,79,1,165,100,70,0
71218,10:52:29,423794130,test,2,1,182,3,180,1,87,100,70,0
71218,10:52:29,423794130,test,2,0,184,3,19,1,54,100,71,0
71218,10:52:29,423794130,test,2,1,186,12,59,1,178,100,71,0
71218,10:52:29,423794130,test,2,0,188,4,89,1,393,100,71,0
71218,10:52:29,423794130,test,2,1,190,6,48,1,185,100,71,0
71218,10:52:29,423794130,test,2,0,192,2,183,0,523,100,70,1
71218,10:52:29,423794130,test,2,1,194,10,189,1,188,100,70,0
71218,10:52:29,423794130,test,2,0,196,1,39,0,308,100,68,1
71218,10:52:29,423794130,test,2,1,198,2,62,1,214,100,68,0
71218,10:52:29,423794130,test,2,0,200,10,117,1,316,100,69,0
71218,10:52:29,423794130,test,2,0,202,9,185,1,183,100,70,0
71218,10:52:29,423794130,test,2,1,204,5,112,1,205,100,70,0
71218,10:52:29,423794130,test,2,1,206,7,4,1,104,100,70,0
71218,10:52:29,423794130,test,2,1,208,4,151,1,85,100,70,0
71218,10:52:29,423794130,test,2,0,210,6,29,1,153,100,70,0
71218,10:52:29,423794130,test,2,0,212,11,88,1,157,100,71,0
71218,10:52:29,423794130,test,2,0,214,7,7,1,151,100,71,0
71218,10:52:29,423794130,test,2,1,216,9,42,1,242,100,71,0
71218,10:52:29,423794130,test,2,0,218,8,102,1,305,100,72,0
71218,10:52:29,423794130,test,2,0,220,5,133,1,260,100,72,0
71218,10:52:29,423794130,test,2,0,222,8,155,1,178,100,73,0
71218,10:52:29,423794130,test,2,1,224,6,16,1,172,100,73,0
71218,10:52:29,423794130,test,2,1,226,7,41,1,101,100,73,0
71218,10:52:29,423794130,test,2,0,228,9,138,1,169,100,73,0
71218,10:52:29,423794130,test,2,1,230,5,130,1,123,100,73,0
71218,10:52:29,423794130,test,2,1,232,3,84,1,146,100,73,0
71218,10:52:29,423794130,test,2,0,234,5,99,1,154,100,74,0
71218,10:52:29,423794130,test,2,1,236,10,18,1,141,100,74,0
71218,10:52:29,423794130,test,2,0,238,1,200,0,251,100,72,1
71218,10:52:29,423794130,test,2,0,240,11,98,1,201,100,73,0
71218,15:54:55,407826805,test,2,0,2,6,65,1,1578,0,100,0
71218,15:54:55,407826805,test,2,0,4,10,77,1,1227,0,100,0
71218,15:54:55,407826805,test,2,1,6,7,58,1,1530,100,100,0
71218,15:54:55,407826805,test,2,0,8,7,144,0,2394,100,66,0
71218,15:54:55,407826805,test,2,1,10,3,95,1,774,100,66,0
71218,15:54:55,407826805,test,2,1,12,4,14,0,2511,66,66,0
71218,15:54:55,407826805,test,2,0,14,3,85,0,2392,66,50,1
71218,15:54:55,407826805,test,2,0,16,4,56,1,2178,66,60,0
71218,15:54:55,407826805,test,2,0,18,12,140,1,2605,66,66,0
71218,15:54:55,407826805,test,2,1,20,5,96,0,1269,50,66,0
71218,15:54:55,407826805,test,2,0,22,5,166,1,6329,50,71,0
71218,15:54:55,407826805,test,2,0,24,6,154,0,2101,50,62,0
71218,15:54:55,407826805,test,2,1,26,8,27,1,1797,60,62,0
71218,15:54:55,407826805,test,2,1,28,6,87,1,6334,66,62,0
71218,15:54:55,407826805,test,2,0,30,1,71,1,1617,66,66,0
71218,15:54:55,407826805,test,2,0,32,7,49,1,4790,66,70,1
71218,15:54:55,407826805,test,2,0,34,4,135,0,1032,66,63,0
71218,15:54:55,407826805,test,2,1,36,12,115,0,1805,57,63,0
71218,15:54:55,407826805,test,2,0,38,12,149,0,2976,57,58,0
71218,15:54:55,407826805,test,2,0,40,9,34,1,3301,57,61,0
71218,15:54:55,407826805,test,2,0,42,2,101,1,1819,57,64,0
71218,15:54:55,407826805,test,2,1,44,1,67,0,878,50,64,0
71218,15:54:55,407826805,test,2,0,46,5,4,1,2323,50,66,0
71218,15:54:55,407826805,test,2,1,48,6,156,0,1132,44,66,1
71218,15:54:55,407826805,test,2,1,50,11,196,1,1573,50,66,1
71218,15:54:55,407826805,test,2,1,52,8,190,0,1372,45,66,0
71218,15:54:55,407826805,test,2,1,54,12,80,1,1015,50,66,0
71218,15:54:55,407826805,test,2,1,56,5,199,0,1274,46,66,0
71218,15:54:55,407826805,test,2,1,58,4,151,1,2447,50,66,0
71218,15:54:55,407826805,test,2,0,60,11,83,0,2134,50,62,0
71218,15:54:55,407826805,test,2,1,62,7,189,0,1361,46,62,0
71218,15:54:55,407826805,test,2,1,64,3,143,1,876,50,62,1
71218,15:54:55,407826805,test,2,1,66,2,177,1,1573,52,62,1
71218,15:54:55,407826805,test,2,1,68,10,82,0,904,50,62,0
71218,15:54:55,407826805,test,2,1,70,9,11,0,875,47,62,0
71218,15:54:55,407826805,test,2,1,72,2,88,1,906,50,62,0
71218,15:54:55,407826805,test,2,1,74,11,22,0,792,47,62,0
71218,15:54:55,407826805,test,2,0,76,3,15,1,1401,47,64,0
71218,15:54:55,407826805,test,2,0,78,8,160,1,2818,47,66,0
71218,15:54:55,407826805,test,2,0,80,10,10,1,1223,47,68,0
71218,15:54:55,407826805,test,2,0,82,10,134,1,1159,47,70,0
71218,15:54:55,407826805,test,2,0,84,1,23,1,1135,47,71,1
71218,15:54:55,407826805,test,2,0,86,7,103,1,1049,47,72,0
71218,15:54:55,407826805,test,2,0,88,5,181,1,1582,47,73,0
71218,15:54:55,407826805,test,2,0,90,3,13,0,833,47,70,0
71218,15:54:55,407826805,test,2,1,92,12,158,1,1391,50,70,0
71218,15:54:55,407826805,test,2,1,94,7,20,1,938,52,70,0
71218,15:54:55,407826805,test,2,0,96,2,99,0,3231,52,68,0
71218,15:54:55,407826805,test,2,1,98,5,192,1,944,54,68,0
71218,15:54:55,407826805,test,2,0,100,8,40,1,1189,54,69,0
71218,15:54:55,407826805,test,2,1,102,3,39,1,893,56,69,0
71218,15:54:55,407826805,test,2,0,104,6,195,1,802,56,70,0
71218,15:54:55,407826805,test,2,1,106,8,46,1,957,57,70,0
71218,15:54:55,407826805,test,2,0,108,9,164,0,1096,57,67,0
71218,15:54:55,407826805,test,2,1,110,10,178,1,676,59,67,0
71218,15:54:55,407826805,test,2,0,112,4,78,0,801,59,65,0
71218,15:54:55,407826805,test,2,1,114,6,153,1,1441,60,65,0
