"","V1","date","time","group","subject","build","blocknum","trialnum","blockcode","trialcode","pretrialpause","posttrialpause","windowcenter","trialduration","trialtimeout","blocktimeout","response","correct","latency","inwindow"
"1",1,31419,"15:51:47",464455574,898951393,"4.0.10.0",1,2,"demographics","age",0,0,0,0,0,0,"efe",1,2049,0
"2",2,31419,"15:51:47",464455574,898951393,"4.0.10.0",1,3,"demographics","gender",0,0,0,0,0,0,"fefe",1,1199,0
"3",3,31519,"12:16:41",502381355,512611727,"4.0.10.0",1,2,"demographics","age",0,0,0,0,0,0,"19",1,4290,0
"4",4,31519,"12:16:41",502381355,512611727,"4.0.10.0",1,3,"demographics","gender",0,0,0,0,0,0,"Male",1,4366,0
"5",5,31519,"23:27:06",127219859,144535166,"4.0.10.0",1,2,"demographics","age",0,0,0,0,0,0,"31",1,2887,0
"6",6,31519,"23:27:06",127219859,144535166,"4.0.10.0",1,3,"demographics","gender",0,0,0,0,0,0,"Male",1,5711,0
"7",7,31519,"12:35:18",600910811,924884559,"4.0.10.0",1,2,"demographics","age",0,0,0,0,0,0,"38",1,4285,0
"8",8,31519,"12:35:18",600910811,924884559,"4.0.10.0",1,3,"demographics","gender",0,0,0,0,0,0,"female",1,6134,0
"9",9,31519,"12:44:43",807491352,438458371,"4.0.10.0",1,2,"demographics","age",0,0,0,0,0,0,"54",1,5512,0
"10",10,31519,"12:44:43",807491352,438458371,"4.0.10.0",1,3,"demographics","gender",0,0,0,0,0,0,"male",1,6807,0
"11",11,31519,"12:52:35",553009849,202158371,"4.0.10.0",1,2,"demographics","age",0,0,0,0,0,0,"32",1,5315,0
"12",12,31519,"12:52:35",553009849,202158371,"4.0.10.0",1,3,"demographics","gender",0,0,0,0,0,0,"FEMALE",1,9794,0
"13",13,31519,"12:57:59",31714135,115650521,"4.0.10.0",1,2,"demographics","age",0,0,0,0,0,0,"31",1,4542,0
"14",14,31519,"12:57:59",31714135,115650521,"4.0.10.0",1,3,"demographics","gender",0,0,0,0,0,0,"female",1,4813,0
"15",15,31519,"12:54:32",305032034,190080177,"4.0.10.0",1,2,"demographics","age",0,0,0,0,0,0,"35",1,4078,0
"16",16,31519,"12:54:32",305032034,190080177,"4.0.10.0",1,3,"demographics","gender",0,0,0,0,0,0,"male",1,19770,0
"17",17,31519,"08:55:51",839609764,613037481,"4.0.10.0",1,2,"demographics","age",0,0,0,0,0,0,"26",1,2272,0
"18",18,31519,"08:55:51",839609764,613037481,"4.0.10.0",1,3,"demographics","gender",0,0,0,0,0,0,"female",1,3068,0
"19",19,31519,"12:57:13",68873509,602548494,"4.0.10.0",1,2,"demographics","age",0,0,0,0,0,0,"46",1,17956,0
"20",20,31519,"12:57:13",68873509,602548494,"4.0.10.0",1,3,"demographics","gender",0,0,0,0,0,0,"male",1,5670,0
"21",21,31519,"13:08:10",347862908,10805941,"4.0.10.0",1,2,"demographics","age",0,0,0,0,0,0,"48",1,8172,0
"22",22,31519,"13:08:10",347862908,10805941,"4.0.10.0",1,3,"demographics","gender",0,0,0,0,0,0,"Female",1,4685,0
"23",23,31519,"09:01:02",410833745,6953868,"4.0.10.0",1,2,"demographics","age",0,0,0,0,0,0,"34",1,2728,0
"24",24,31519,"09:01:02",410833745,6953868,"4.0.10.0",1,3,"demographics","gender",0,0,0,0,0,0,"Female",1,3233,0
"25",25,31519,"13:01:57",743770280,171053919,"4.0.10.0",1,2,"demographics","age",0,0,0,0,0,0,"41",1,3966,0
"26",26,31519,"13:01:57",743770280,171053919,"4.0.10.0",1,3,"demographics","gender",0,0,0,0,0,0,"Female",1,5754,0
"27",27,31519,"13:02:33",824331117,68993172,"4.0.10.0",1,2,"demographics","age",0,0,0,0,0,0,"18 ",1,4681,0
"28",28,31519,"13:02:33",824331117,68993172,"4.0.10.0",1,3,"demographics","gender",0,0,0,0,0,0,"Male",1,3664,0
"29",29,31519,"13:01:15",556667775,711959696,"4.0.10.0",1,2,"demographics","age",0,0,0,0,0,0,"45",1,4924,0
"30",30,31519,"13:01:15",556667775,711959696,"4.0.10.0",1,3,"demographics","gender",0,0,0,0,0,0,"female",1,11253,0
"31",31,31519,"13:03:13",174687233,93940251,"4.0.10.0",1,2,"demographics","age",0,0,0,0,0,0,"40",1,2468,0
"32",32,31519,"13:03:13",174687233,93940251,"4.0.10.0",1,3,"demographics","gender",0,0,0,0,0,0,"Female",1,5931,0
"33",33,31519,"13:04:29",732943993,977944306,"4.0.10.0",1,2,"demographics","age",0,0,0,0,0,0,"31",1,3522,0
"34",34,31519,"13:04:29",732943993,977944306,"4.0.10.0",1,3,"demographics","gender",0,0,0,0,0,0,"Female",1,4633,0
"35",35,31519,"06:04:51",820575150,850846837,"4.0.10.0",1,2,"demographics","age",0,0,0,0,0,0,"25",1,2792,0
"36",36,31519,"06:04:51",820575150,850846837,"4.0.10.0",1,3,"demographics","gender",0,0,0,0,0,0,"female",1,2060,0
"37",37,31519,"13:04:39",936528133,734893857,"4.0.10.0",1,2,"demographics","age",0,0,0,0,0,0,"30",1,2760,0
"38",38,31519,"13:04:39",936528133,734893857,"4.0.10.0",1,3,"demographics","gender",0,0,0,0,0,0,"male",1,4177,0
"39",39,31519,"06:06:45",919348501,486257201,"4.0.10.0",1,2,"demographics","age",0,0,0,0,0,0,"31",1,3051,0
"40",40,31519,"06:06:45",919348501,486257201,"4.0.10.0",1,3,"demographics","gender",0,0,0,0,0,0,"male",1,7076,0
"41",41,31519,"13:04:52",325837894,637506975,"4.0.10.0",1,2,"demographics","age",0,0,0,0,0,0,"47",1,5439,0
"42",42,31519,"13:04:52",325837894,637506975,"4.0.10.0",1,3,"demographics","gender",0,0,0,0,0,0,"Female",1,6292,0
"43",43,31519,"07:12:48",86034751,187304078,"4.0.10.0",1,2,"demographics","age",0,0,0,0,0,0,"21",1,2920,0
"44",44,31519,"07:12:48",86034751,187304078,"4.0.10.0",1,3,"demographics","gender",0,0,0,0,0,0,"Female",1,3597,0
"45",45,31619,"00:11:20",859640727,413698088,"4.0.10.0",1,2,"demographics","age",0,0,0,0,0,0,"19",1,5588,0
"46",46,31619,"00:11:20",859640727,413698088,"4.0.10.0",1,3,"demographics","gender",0,0,0,0,0,0,"male",1,4181,0
"47",47,31519,"13:09:35",793504291,478250718,"4.0.10.0",1,2,"demographics","age",0,0,0,0,0,0,"19",1,8173,0
"48",48,31519,"13:09:35",793504291,478250718,"4.0.10.0",1,3,"demographics","gender",0,0,0,0,0,0,"Male",1,6184,0
"49",49,31519,"13:10:25",638267713,244458478,"4.0.10.0",1,2,"demographics","age",0,0,0,0,0,0,"21",1,2689,0
"50",50,31519,"13:10:25",638267713,244458478,"4.0.10.0",1,3,"demographics","gender",0,0,0,0,0,0,"female",1,2570,0
"51",51,31519,"13:08:27",144555172,684939008,"4.0.10.0",1,2,"demographics","age",0,0,0,0,0,0,"47",1,4333,0
"52",52,31519,"13:08:27",144555172,684939008,"4.0.10.0",1,3,"demographics","gender",0,0,0,0,0,0,"Female",1,6205,0
"53",53,31519,"06:11:19",985358607,771393402,"4.0.10.0",1,2,"demographics","age",0,0,0,0,0,0,"33",1,6156,0
"54",54,31519,"06:11:19",985358607,771393402,"4.0.10.0",1,3,"demographics","gender",0,0,0,0,0,0,"Male",1,4610,0
"55",55,31519,"13:07:59",391410957,967257877,"4.0.10.0",1,2,"demographics","age",0,0,0,0,0,0,"20",1,3607,0
"56",56,31519,"13:07:59",391410957,967257877,"4.0.10.0",1,3,"demographics","gender",0,0,0,0,0,0,"Male",1,3625,0
"57",57,31519,"09:12:12",778591618,724120034,"4.0.10.0",1,2,"demographics","age",0,0,0,0,0,0,"62",1,3664,0
"58",58,31519,"09:12:12",778591618,724120034,"4.0.10.0",1,3,"demographics","gender",0,0,0,0,0,0,"Male",1,5815,0
"59",59,31519,"08:11:10",157244495,479317863,"4.0.10.0",1,2,"demographics","age",0,0,0,0,0,0,"64",1,5683,0
"60",60,31519,"08:11:10",157244495,479317863,"4.0.10.0",1,3,"demographics","gender",0,0,0,0,0,0,"male",1,9543,0
"61",61,31519,"13:12:13",282975715,221319752,"4.0.10.0",1,2,"demographics","age",0,0,0,0,0,0,"27",1,6022,0
"62",62,31519,"13:12:13",282975715,221319752,"4.0.10.0",1,3,"demographics","gender",0,0,0,0,0,0,"Male",1,3461,0
"63",63,31519,"13:13:09",380617865,582727002,"4.0.10.0",1,2,"demographics","age",0,0,0,0,0,0,"50",1,2817,0
"64",64,31519,"13:13:09",380617865,582727002,"4.0.10.0",1,3,"demographics","gender",0,0,0,0,0,0,"f",1,2650,0
"65",65,31519,"23:43:18",812269675,386743179,"4.0.10.0",1,2,"demographics","age",0,0,0,0,0,0,"24",1,5293,0
"66",66,31519,"23:43:18",812269675,386743179,"4.0.10.0",1,3,"demographics","gender",0,0,0,0,0,0,"Male",1,3351,0
"67",67,31519,"09:21:30",823374928,375637928,"4.0.10.0",1,2,"demographics","age",0,0,0,0,0,0,"21",1,2987,0
"68",68,31519,"09:21:30",823374928,375637928,"4.0.10.0",1,3,"demographics","gender",0,0,0,0,0,0,"Male",1,6290,0
"69",69,31519,"13:15:15",237955371,179832241,"4.0.10.0",1,2,"demographics","age",0,0,0,0,0,0,"23",1,2729,0
"70",70,31519,"13:15:15",237955371,179832241,"4.0.10.0",1,3,"demographics","gender",0,0,0,0,0,0,"Female",1,4746,0
"71",71,31519,"13:14:29",509065116,626117628,"4.0.10.0",1,2,"demographics","age",0,0,0,0,0,0,"35",1,3858,0
"72",72,31519,"13:14:29",509065116,626117628,"4.0.10.0",1,3,"demographics","gender",0,0,0,0,0,0,"female",1,4691,0
"73",73,31519,"13:15:56",157361094,857911484,"4.0.10.0",1,2,"demographics","age",0,0,0,0,0,0,"46",1,2918,0
"74",74,31519,"13:15:56",157361094,857911484,"4.0.10.0",1,3,"demographics","gender",0,0,0,0,0,0,"Female",1,5628,0
"75",75,31519,"13:15:54",389980591,577758862,"4.0.10.0",1,2,"demographics","age",0,0,0,0,0,0,"38",1,3721,0
"76",76,31519,"13:15:54",389980591,577758862,"4.0.10.0",1,3,"demographics","gender",0,0,0,0,0,0,"F",1,3324,0
"77",77,31519,"23:16:05",873133170,798288819,"4.0.10.0",1,2,"demographics","age",0,0,0,0,0,0,"20",1,2907,0
"78",78,31519,"23:16:05",873133170,798288819,"4.0.10.0",1,3,"demographics","gender",0,0,0,0,0,0,"Male",1,5117,0
"79",79,31519,"13:16:30",824056033,449282783,"4.0.10.0",1,2,"demographics","age",0,0,0,0,0,0,"49",1,4159,0
"80",80,31519,"13:16:30",824056033,449282783,"4.0.10.0",1,3,"demographics","gender",0,0,0,0,0,0,"female",1,6764,0
"81",81,31619,"00:16:49",256606976,161180637,"4.0.10.0",1,2,"demographics","age",0,0,0,0,0,0,"21",1,2988,0
"82",82,31619,"00:16:49",256606976,161180637,"4.0.10.0",1,3,"demographics","gender",0,0,0,0,0,0,"female",1,16756,0
"83",83,31519,"13:17:21",342820411,14264635,"4.0.10.0",1,2,"demographics","age",0,0,0,0,0,0,"32",1,3476,0
"84",84,31519,"13:17:21",342820411,14264635,"4.0.10.0",1,3,"demographics","gender",0,0,0,0,0,0,"male",1,7543,0
"85",85,31519,"09:17:18",800241517,473097294,"4.0.10.0",1,2,"demographics","age",0,0,0,0,0,0,"30",1,6514,0
"86",86,31519,"09:17:18",800241517,473097294,"4.0.10.0",1,3,"demographics","gender",0,0,0,0,0,0,"Male",1,2450,0
"87",87,31519,"23:17:52",873133170,798288819,"4.0.10.0",1,2,"demographics","age",0,0,0,0,0,0,"20 ",1,3093,0
"88",88,31519,"23:17:52",873133170,798288819,"4.0.10.0",1,3,"demographics","gender",0,0,0,0,0,0,"Male",1,3479,0
"89",89,31519,"09:17:35",765222857,640382841,"4.0.10.0",1,2,"demographics","age",0,0,0,0,0,0,"25",1,3463,0
"90",90,31519,"09:17:35",765222857,640382841,"4.0.10.0",1,3,"demographics","gender",0,0,0,0,0,0,"Female",1,5450,0
"91",91,31519,"13:17:42",944074813,276330115,"4.0.10.0",1,2,"demographics","age",0,0,0,0,0,0,"50",1,4833,0
"92",92,31519,"13:17:42",944074813,276330115,"4.0.10.0",1,3,"demographics","gender",0,0,0,0,0,0,"Male",1,5190,0
"93",93,31519,"13:17:49",191671139,80083886,"4.0.10.0",1,2,"demographics","age",0,0,0,0,0,0,"51",1,9036,0
"94",94,31519,"13:17:49",191671139,80083886,"4.0.10.0",1,3,"demographics","gender",0,0,0,0,0,0,"f",1,6007,0
"95",95,31519,"08:18:24",133737940,306727422,"4.0.10.0",1,2,"demographics","age",0,0,0,0,0,0,"48",1,3568,0
"96",96,31519,"08:18:24",133737940,306727422,"4.0.10.0",1,3,"demographics","gender",0,0,0,0,0,0,"Female",1,5508,0
"97",97,31519,"13:19:40",523216323,482502282,"4.0.10.0",1,2,"demographics","age",0,0,0,0,0,0,"28",1,5397,0
"98",98,31519,"13:19:40",523216323,482502282,"4.0.10.0",1,3,"demographics","gender",0,0,0,0,0,0,"female",1,5074,0
"99",99,31519,"13:19:48",379480804,702411223,"4.0.10.0",1,2,"demographics","age",0,0,0,0,0,0,"34",1,3145,0
"100",100,31519,"13:19:48",379480804,702411223,"4.0.10.0",1,3,"demographics","gender",0,0,0,0,0,0,"Female",1,4962,0
"101",101,31519,"06:19:56",552388124,625329770,"4.0.10.0",1,2,"demographics","age",0,0,0,0,0,0,"53",1,3304,0
"102",102,31519,"06:19:56",552388124,625329770,"4.0.10.0",1,3,"demographics","gender",0,0,0,0,0,0,"Male",1,1960,0
"103",103,31519,"13:20:05",721283284,719182058,"4.0.10.0",1,2,"demographics","age",0,0,0,0,0,0,"37",1,7413,0
"104",104,31519,"13:20:05",721283284,719182058,"4.0.10.0",1,3,"demographics","gender",0,0,0,0,0,0,"female",1,3107,0
"105",105,31619,"00:19:26",131937946,697556235,"4.0.10.0",1,2,"demographics","age",0,0,0,0,0,0,"31",1,2303,0
"106",106,31619,"00:19:26",131937946,697556235,"4.0.10.0",1,3,"demographics","gender",0,0,0,0,0,0,"Female",1,3630,0
"107",107,31519,"13:21:04",525079621,480638985,"4.0.10.0",1,2,"demographics","age",0,0,0,0,0,0,"30",1,2757,0
"108",108,31519,"13:21:04",525079621,480638985,"4.0.10.0",1,3,"demographics","gender",0,0,0,0,0,0,"female",1,3113,0
"109",109,31519,"13:21:12",702655354,14778563,"4.0.10.0",1,2,"demographics","age",0,0,0,0,0,0,"29",1,4300,0
"110",110,31519,"13:21:12",702655354,14778563,"4.0.10.0",1,3,"demographics","gender",0,0,0,0,0,0,"female",1,5564,0
"111",111,31519,"13:22:09",592035143,413385331,"4.0.10.0",1,2,"demographics","age",0,0,0,0,0,0,"25",1,2459,0
"112",112,31519,"13:22:09",592035143,413385331,"4.0.10.0",1,3,"demographics","gender",0,0,0,0,0,0,"Female",1,3346,0
"113",113,31519,"13:22:46",217499410,804926324,"4.0.10.0",1,2,"demographics","age",0,0,0,0,0,0,"30",1,5075,0
"114",114,31519,"13:22:46",217499410,804926324,"4.0.10.0",1,3,"demographics","gender",0,0,0,0,0,0,"Male",1,3989,0
"115",115,31519,"13:21:21",322964784,530705107,"4.0.10.0",1,2,"demographics","age",0,0,0,0,0,0,"26",1,3333,0
"116",116,31519,"13:21:21",322964784,530705107,"4.0.10.0",1,3,"demographics","gender",0,0,0,0,0,0,"Female",1,3800,0
"117",117,31519,"09:23:49",146337829,945540243,"4.0.10.0",1,2,"demographics","age",0,0,0,0,0,0,"27",1,3477,0
"118",118,31519,"09:23:49",146337829,945540243,"4.0.10.0",1,3,"demographics","gender",0,0,0,0,0,0,"male",1,3527,0
"119",119,31519,"13:24:12",353960763,246714095,"4.0.10.0",1,2,"demographics","age",0,0,0,0,0,0,"51",1,3750,0
"120",120,31519,"13:24:12",353960763,246714095,"4.0.10.0",1,3,"demographics","gender",0,0,0,0,0,0,"Female",1,4187,0
"121",121,31519,"13:24:03",862087890,824619681,"4.0.10.0",1,2,"demographics","age",0,0,0,0,0,0,"23",1,6856,0
"122",122,31519,"13:24:03",862087890,824619681,"4.0.10.0",1,3,"demographics","gender",0,0,0,0,0,0,"female",1,6893,0
"123",123,31519,"13:24:27",306290545,542372835,"4.0.10.0",1,2,"demographics","age",0,0,0,0,0,0,"46",1,4901,0
"124",124,31519,"13:24:27",306290545,542372835,"4.0.10.0",1,3,"demographics","gender",0,0,0,0,0,0,"Female",1,6949,0
"125",125,31519,"13:22:51",972818738,150007497,"4.0.10.0",1,2,"demographics","age",0,0,0,0,0,0,"38",1,4136,0
"126",126,31519,"13:22:51",972818738,150007497,"4.0.10.0",1,3,"demographics","gender",0,0,0,0,0,0,"female",1,5938,0
"127",127,31519,"10:55:32",794621433,334808505,"4.0.10.0",1,2,"demographics","age",0,0,0,0,0,0,"51",1,3458,0
"128",128,31519,"10:55:32",794621433,334808505,"4.0.10.0",1,3,"demographics","gender",0,0,0,0,0,0,"female",1,4951,0
"129",129,31519,"13:26:07",841886341,619817464,"4.0.10.0",1,2,"demographics","age",0,0,0,0,0,0,"34",1,3837,0
"130",130,31519,"13:26:07",841886341,619817464,"4.0.10.0",1,3,"demographics","gender",0,0,0,0,0,0,"Male",1,6524,0
"131",131,31519,"13:26:21",963265264,336164387,"4.0.10.0",1,2,"demographics","age",0,0,0,0,0,0,"45",1,2191,0
"132",132,31519,"13:26:21",963265264,336164387,"4.0.10.0",1,3,"demographics","gender",0,0,0,0,0,0,"male",1,4212,0
"133",133,31519,"13:26:11",924032820,718587244,"4.0.10.0",1,2,"demographics","age",0,0,0,0,0,0,"28",1,3763,0
"134",134,31519,"13:26:11",924032820,718587244,"4.0.10.0",1,3,"demographics","gender",0,0,0,0,0,0,"male ",1,3372,0
"135",135,31519,"13:25:25",710808934,639900562,"4.0.10.0",1,2,"demographics","age",0,0,0,0,0,0,"49",1,3895,0
"136",136,31519,"13:25:25",710808934,639900562,"4.0.10.0",1,3,"demographics","gender",0,0,0,0,0,0,"male",1,4496,0
"137",137,31519,"13:26:30",917073623,863080510,"4.0.10.0",1,2,"demographics","age",0,0,0,0,0,0,"39",1,4399,0
"138",138,31519,"13:26:30",917073623,863080510,"4.0.10.0",1,3,"demographics","gender",0,0,0,0,0,0,"female",1,7272,0
"139",139,31519,"13:27:26",815949886,168180141,"4.0.10.0",1,2,"demographics","age",0,0,0,0,0,0,"27",1,3986,0
"140",140,31519,"13:27:26",815949886,168180141,"4.0.10.0",1,3,"demographics","gender",0,0,0,0,0,0,"Female",1,4215,0
"141",141,31519,"13:27:21",560153925,258819137,"4.0.10.0",1,2,"demographics","age",0,0,0,0,0,0,"39",1,4396,0
"142",142,31519,"13:27:21",560153925,258819137,"4.0.10.0",1,3,"demographics","gender",0,0,0,0,0,0,"Female",1,4829,0
"143",143,31519,"13:27:40",534239829,649971045,"4.0.10.0",1,2,"demographics","age",0,0,0,0,0,0,"30",1,2833,0
"144",144,31519,"13:27:40",534239829,649971045,"4.0.10.0",1,3,"demographics","gender",0,0,0,0,0,0,"Male",1,3977,0
"145",145,31619,"02:27:38",472883825,824444440,"4.0.10.0",1,2,"demographics","age",0,0,0,0,0,0,"53",1,3404,0
"146",146,31619,"02:27:38",472883825,824444440,"4.0.10.0",1,3,"demographics","gender",0,0,0,0,0,0,"male",1,4747,0
"147",147,31519,"13:27:49",33051812,214091782,"4.0.10.0",1,2,"demographics","age",0,0,0,0,0,0,"20",1,3274,0
"148",148,31519,"13:27:49",33051812,214091782,"4.0.10.0",1,3,"demographics","gender",0,0,0,0,0,0,"Male",1,10305,0
"149",149,31519,"13:28:16",305793232,774679626,"4.0.10.0",1,2,"demographics","age",0,0,0,0,0,0,"49",1,5610,0
"150",150,31519,"13:28:16",305793232,774679626,"4.0.10.0",1,3,"demographics","gender",0,0,0,0,0,0,"Male",1,5610,0
"151",151,31619,"00:27:58",24246639,207341466,"4.0.10.0",1,2,"demographics","age",0,0,0,0,0,0,"23",1,2848,0
"152",152,31619,"00:27:58",24246639,207341466,"4.0.10.0",1,3,"demographics","gender",0,0,0,0,0,0,"F",1,3827,0
"153",153,31519,"13:29:33",397693725,5244407,"4.0.10.0",1,2,"demographics","age",0,0,0,0,0,0,"32",1,2889,0
"154",154,31519,"13:29:33",397693725,5244407,"4.0.10.0",1,3,"demographics","gender",0,0,0,0,0,0,"male",1,2942,0
"155",155,31519,"13:28:54",360055724,562700758,"4.0.10.0",1,2,"demographics","age",0,0,0,0,0,0,"41",1,4973,0
"156",156,31519,"13:28:54",360055724,562700758,"4.0.10.0",1,3,"demographics","gender",0,0,0,0,0,0,"Male",1,4022,0
"157",157,31619,"00:29:38",13839581,824288176,"4.0.10.0",1,2,"demographics","age",0,0,0,0,0,0,"40",1,3729,0
"158",158,31619,"00:29:38",13839581,824288176,"4.0.10.0",1,3,"demographics","gender",0,0,0,0,0,0,"Male",1,5698,0
"159",159,31519,"13:30:39",386103847,762697877,"4.0.10.0",1,2,"demographics","age",0,0,0,0,0,0,"26",1,2580,0
"160",160,31519,"13:30:39",386103847,762697877,"4.0.10.0",1,3,"demographics","gender",0,0,0,0,0,0,"Female",1,4782,0
"161",161,31519,"08:29:46",183370515,451795364,"4.0.10.0",1,2,"demographics","age",0,0,0,0,0,0,"41",1,5798,0
"162",162,31519,"08:29:46",183370515,451795364,"4.0.10.0",1,3,"demographics","gender",0,0,0,0,0,0,"female",1,11711,0
"163",163,31519,"13:30:39",386103847,762697877,"4.0.10.0",1,2,"demographics","age",0,0,0,0,0,0,"26",1,2580,0
"164",164,31519,"13:30:39",386103847,762697877,"4.0.10.0",1,3,"demographics","gender",0,0,0,0,0,0,"Female",1,4782,0
"165",165,31519,"13:30:59",837493426,360891929,"4.0.10.0",1,2,"demographics","age",0,0,0,0,0,0,"38",1,3695,0
"166",166,31519,"13:30:59",837493426,360891929,"4.0.10.0",1,3,"demographics","gender",0,0,0,0,0,0,"Male",1,3355,0
"167",167,31519,"13:30:59",837493426,360891929,"4.0.10.0",1,2,"demographics","age",0,0,0,0,0,0,"38",1,3695,0
"168",168,31519,"13:30:59",837493426,360891929,"4.0.10.0",1,3,"demographics","gender",0,0,0,0,0,0,"Male",1,3355,0
"169",169,31519,"13:32:46",841886341,619817464,"4.0.10.0",1,2,"demographics","age",0,0,0,0,0,0,"34",1,2960,0
"170",170,31519,"13:32:46",841886341,619817464,"4.0.10.0",1,3,"demographics","gender",0,0,0,0,0,0,"34",1,3377,0
"171",171,31519,"13:31:32",982685299,91454182,"4.0.10.0",1,2,"demographics","age",0,0,0,0,0,0,"26",1,3140,0
"172",172,31519,"13:31:32",982685299,91454182,"4.0.10.0",1,3,"demographics","gender",0,0,0,0,0,0,"Male",1,3268,0
"173",173,31519,"13:33:32",89137308,969948633,"4.0.10.0",1,2,"demographics","age",0,0,0,0,0,0,"35",1,2726,0
"174",174,31519,"13:33:32",89137308,969948633,"4.0.10.0",1,3,"demographics","gender",0,0,0,0,0,0,"female",1,4816,0
"175",175,31519,"13:33:39",841886341,619817464,"4.0.10.0",1,2,"demographics","age",0,0,0,0,0,0,"34",1,2545,0
"176",176,31519,"13:33:39",841886341,619817464,"4.0.10.0",1,3,"demographics","gender",0,0,0,0,0,0,"Male",1,4513,0
"177",177,31519,"13:32:40",391400777,365200288,"4.0.10.0",1,2,"demographics","age",0,0,0,0,0,0,"20",1,2196,0
"178",178,31519,"13:32:40",391400777,365200288,"4.0.10.0",1,3,"demographics","gender",0,0,0,0,0,0,"male",1,2304,0
"179",179,31519,"09:33:13",634928292,65768348,"4.0.10.0",1,2,"demographics","age",0,0,0,0,0,0,"52",1,5350,0
"180",180,31519,"09:33:13",634928292,65768348,"4.0.10.0",1,3,"demographics","gender",0,0,0,0,0,0,"male",1,4427,0
"181",181,31519,"13:33:35",913783198,936257094,"4.0.10.0",1,2,"demographics","age",0,0,0,0,0,0,"45",1,4692,0
"182",182,31519,"13:33:35",913783198,936257094,"4.0.10.0",1,3,"demographics","gender",0,0,0,0,0,0,"female",1,5454,0
"183",183,31519,"13:33:58",652303943,5951467,"4.0.10.0",1,2,"demographics","age",0,0,0,0,0,0,"28",1,4569,0
"184",184,31519,"13:33:58",652303943,5951467,"4.0.10.0",1,3,"demographics","gender",0,0,0,0,0,0,"Male",1,5548,0
"185",185,31519,"09:32:24",911542258,402720245,"4.0.10.0",1,2,"demographics","age",0,0,0,0,0,0,"30",1,2445,0
"186",186,31519,"09:32:24",911542258,402720245,"4.0.10.0",1,3,"demographics","gender",0,0,0,0,0,0,"Female",1,125687,0
"187",187,31519,"09:35:41",987819960,900653247,"4.0.10.0",1,2,"demographics","age",0,0,0,0,0,0,"28",1,3512,0
"188",188,31519,"09:35:41",987819960,900653247,"4.0.10.0",1,3,"demographics","gender",0,0,0,0,0,0,"Male",1,7072,0
"189",189,31519,"13:36:18",456863347,328544281,"4.0.10.0",1,2,"demographics","age",0,0,0,0,0,0,"21",1,3083,0
"190",190,31519,"13:36:18",456863347,328544281,"4.0.10.0",1,3,"demographics","gender",0,0,0,0,0,0,"male",1,3334,0
"191",191,31519,"13:36:31",959627777,491919221,"4.0.10.0",1,2,"demographics","age",0,0,0,0,0,0,"31",1,3301,0
"192",192,31519,"13:36:31",959627777,491919221,"4.0.10.0",1,3,"demographics","gender",0,0,0,0,0,0,"male",1,4334,0
"193",193,31519,"09:36:15",561173474,335342488,"4.0.10.0",1,2,"demographics","age",0,0,0,0,0,0,"49",1,3099,0
"194",194,31519,"09:36:15",561173474,335342488,"4.0.10.0",1,3,"demographics","gender",0,0,0,0,0,0,"Female",1,6054,0
"195",195,31519,"09:37:12",509737959,276646504,"4.0.10.0",1,2,"demographics","age",0,0,0,0,0,0,"30",1,1819,0
"196",196,31519,"09:37:12",509737959,276646504,"4.0.10.0",1,3,"demographics","gender",0,0,0,0,0,0,"male",1,2164,0
"197",197,31519,"13:37:10",266417419,28751330,"4.0.10.0",1,2,"demographics","age",0,0,0,0,0,0,"32",1,2260,0
"198",198,31519,"13:37:10",266417419,28751330,"4.0.10.0",1,3,"demographics","gender",0,0,0,0,0,0,"Male",1,3049,0
"199",199,31519,"09:37:17",131358387,504257496,"4.0.10.0",1,2,"demographics","age",0,0,0,0,0,0,"34",1,2980,0
"200",200,31519,"09:37:17",131358387,504257496,"4.0.10.0",1,3,"demographics","gender",0,0,0,0,0,0,"Male",1,3341,0
"201",201,31519,"13:37:08",806016411,663722728,"4.0.10.0",1,2,"demographics","age",0,0,0,0,0,0,"55",1,4337,0
"202",202,31519,"13:37:08",806016411,663722728,"4.0.10.0",1,3,"demographics","gender",0,0,0,0,0,0,"Female",1,6881,0
"203",203,31519,"13:37:50",262083863,794375296,"4.0.10.0",1,2,"demographics","age",0,0,0,0,0,0,"18",1,2388,0
"204",204,31519,"13:37:50",262083863,794375296,"4.0.10.0",1,3,"demographics","gender",0,0,0,0,0,0,"Male",1,3256,0
"205",205,31519,"13:37:32",99042787,178900360,"4.0.10.0",1,2,"demographics","age",0,0,0,0,0,0,"22",1,2992,0
"206",206,31519,"13:37:32",99042787,178900360,"4.0.10.0",1,3,"demographics","gender",0,0,0,0,0,0,"female",1,4978,0
"207",207,31519,"13:38:43",402971211,470587717,"4.0.10.0",1,2,"demographics","age",0,0,0,0,0,0,"28",1,3821,0
"208",208,31519,"13:38:43",402971211,470587717,"4.0.10.0",1,3,"demographics","gender",0,0,0,0,0,0,"FEMALE",1,20619,0
"209",209,31519,"09:37:31",565429127,88827637,"4.0.10.0",1,2,"demographics","age",0,0,0,0,0,0,"63",1,8331,0
"210",210,31519,"09:37:31",565429127,88827637,"4.0.10.0",1,3,"demographics","gender",0,0,0,0,0,0,"Male",1,8549,0
"211",211,31519,"09:39:32",645762891,908462411,"4.0.10.0",1,2,"demographics","age",0,0,0,0,0,0,"40",1,3544,0
"212",212,31519,"09:39:32",645762891,908462411,"4.0.10.0",1,3,"demographics","gender",0,0,0,0,0,0,"Female",1,7361,0
"213",213,31519,"09:40:36",939540021,872187172,"4.0.10.0",1,2,"demographics","age",0,0,0,0,0,0,"48",1,4313,0
"214",214,31519,"09:40:36",939540021,872187172,"4.0.10.0",1,3,"demographics","gender",0,0,0,0,0,0,"Female",1,5642,0
"215",215,31519,"13:40:24",438792140,412274892,"4.0.10.0",1,2,"demographics","age",0,0,0,0,0,0,"37",1,33924,0
"216",216,31519,"13:40:24",438792140,412274892,"4.0.10.0",1,3,"demographics","gender",0,0,0,0,0,0,"female",1,7685,0
"217",217,31519,"13:41:02",132954404,173195330,"4.0.10.0",1,2,"demographics","age",0,0,0,0,0,0,"32",1,4715,0
"218",218,31519,"13:41:02",132954404,173195330,"4.0.10.0",1,3,"demographics","gender",0,0,0,0,0,0,"male ",1,16377,0
"219",219,31619,"00:41:38",15525936,788517091,"4.0.10.0",1,2,"demographics","age",0,0,0,0,0,0,"37",1,4299,0
"220",220,31619,"00:41:38",15525936,788517091,"4.0.10.0",1,3,"demographics","gender",0,0,0,0,0,0,"Male",1,3873,0
"221",221,31519,"09:41:08",556731964,848279434,"4.0.10.0",1,2,"demographics","age",0,0,0,0,0,0,"47",1,2972,0
"222",222,31519,"09:41:08",556731964,848279434,"4.0.10.0",1,3,"demographics","gender",0,0,0,0,0,0,"Female",1,4761,0
"223",223,31519,"08:42:01",442025620,205571831,"4.0.10.0",1,2,"demographics","age",0,0,0,0,0,0,"54",1,3598,0
"224",224,31519,"08:42:01",442025620,205571831,"4.0.10.0",1,3,"demographics","gender",0,0,0,0,0,0,"female",1,4603,0
"225",225,31519,"13:42:55",249517279,774797699,"4.0.10.0",1,2,"demographics","age",0,0,0,0,0,0,"29",1,3457,0
"226",226,31519,"13:42:55",249517279,774797699,"4.0.10.0",1,3,"demographics","gender",0,0,0,0,0,0,"Female",1,5998,0
"227",227,31519,"09:42:46",541794062,456211157,"4.0.10.0",1,2,"demographics","age",0,0,0,0,0,0,"30",1,3293,0
"228",228,31519,"09:42:46",541794062,456211157,"4.0.10.0",1,3,"demographics","gender",0,0,0,0,0,0,"Male",1,3497,0
"229",229,31519,"13:43:21",861138738,354072186,"4.0.10.0",1,2,"demographics","age",0,0,0,0,0,0,"39",1,3877,0
"230",230,31519,"13:43:21",861138738,354072186,"4.0.10.0",1,3,"demographics","gender",0,0,0,0,0,0,"female",1,5003,0
"231",231,31519,"08:43:27",999738107,78011892,"4.0.10.0",1,2,"demographics","age",0,0,0,0,0,0,"27",1,3163,0
"232",232,31519,"08:43:27",999738107,78011892,"4.0.10.0",1,3,"demographics","gender",0,0,0,0,0,0,"male",1,4399,0
"233",233,31519,"13:43:33",35677611,694368279,"4.0.10.0",1,2,"demographics","age",0,0,0,0,0,0,"39",1,3332,0
"234",234,31519,"13:43:33",35677611,694368279,"4.0.10.0",1,3,"demographics","gender",0,0,0,0,0,0,"F",1,2949,0
"235",235,31519,"13:43:52",960613231,303100394,"4.0.10.0",1,2,"demographics","age",0,0,0,0,0,0,"28",1,3031,0
"236",236,31519,"13:43:52",960613231,303100394,"4.0.10.0",1,3,"demographics","gender",0,0,0,0,0,0,"female",1,5478,0
"237",237,31519,"13:44:42",146241670,517293315,"4.0.10.0",1,2,"demographics","age",0,0,0,0,0,0,"33",1,3247,0
"238",238,31519,"13:44:42",146241670,517293315,"4.0.10.0",1,3,"demographics","gender",0,0,0,0,0,0,"male",1,4069,0
"239",239,31519,"13:45:11",70242107,44041616,"4.0.10.0",1,2,"demographics","age",0,0,0,0,0,0,"39",1,3303,0
"240",240,31519,"13:45:11",70242107,44041616,"4.0.10.0",1,3,"demographics","gender",0,0,0,0,0,0,"female",1,4341,0
"241",241,31519,"13:44:08",956035182,272574749,"4.0.10.0",1,2,"demographics","age",0,0,0,0,0,0,"31",1,4596,0
"242",242,31519,"13:44:08",956035182,272574749,"4.0.10.0",1,3,"demographics","gender",0,0,0,0,0,0,"Female",1,13680,0
"243",243,31519,"13:45:32",132954404,173195330,"4.0.10.0",1,2,"demographics","age",0,0,0,0,0,0,"32",1,3619,0
"244",244,31519,"13:45:32",132954404,173195330,"4.0.10.0",1,3,"demographics","gender",0,0,0,0,0,0,"male",1,3649,0
"245",245,31519,"13:45:30",248633345,506054133,"4.0.10.0",1,2,"demographics","age",0,0,0,0,0,0,"47",1,3470,0
"246",246,31519,"13:45:30",248633345,506054133,"4.0.10.0",1,3,"demographics","gender",0,0,0,0,0,0,"Male",1,2774,0
"247",247,31519,"06:45:38",493700965,118919930,"4.0.10.0",1,2,"demographics","age",0,0,0,0,0,0,"38",1,3866,0
"248",248,31519,"06:45:38",493700965,118919930,"4.0.10.0",1,3,"demographics","gender",0,0,0,0,0,0,"Male",1,4979,0
"249",249,31519,"13:45:39",94429417,888089443,"4.0.10.0",1,2,"demographics","age",0,0,0,0,0,0,"39",1,4757,0
"250",250,31519,"13:45:39",94429417,888089443,"4.0.10.0",1,3,"demographics","gender",0,0,0,0,0,0,"female",1,5733,0
"251",251,31519,"13:46:08",526749069,173604659,"4.0.10.0",1,2,"demographics","age",0,0,0,0,0,0,"28  ",1,3111,0
"252",252,31519,"13:46:08",526749069,173604659,"4.0.10.0",1,3,"demographics","gender",0,0,0,0,0,0,"Female",1,5001,0
"253",253,31519,"08:45:42",586037733,554294865,"4.0.10.0",1,2,"demographics","age",0,0,0,0,0,0,"35",1,2609,0
"254",254,31519,"08:45:42",586037733,554294865,"4.0.10.0",1,3,"demographics","gender",0,0,0,0,0,0,"male",1,3113,0
"255",255,31519,"13:46:36",700559182,312029553,"4.0.10.0",1,2,"demographics","age",0,0,0,0,0,0,"46",1,3173,0
"256",256,31519,"13:46:36",700559182,312029553,"4.0.10.0",1,3,"demographics","gender",0,0,0,0,0,0,"Male",1,4114,0
"257",257,31519,"13:46:31",221013910,53126276,"4.0.10.0",1,2,"demographics","age",0,0,0,0,0,0,"34",1,2499,0
"258",258,31519,"13:46:31",221013910,53126276,"4.0.10.0",1,3,"demographics","gender",0,0,0,0,0,0,"f",1,2309,0
"259",259,31519,"13:49:21",287166331,544587117,"4.0.10.0",1,2,"demographics","age",0,0,0,0,0,0,"36",1,3494,0
"260",260,31519,"13:49:21",287166331,544587117,"4.0.10.0",1,3,"demographics","gender",0,0,0,0,0,0,"female",1,4064,0
"261",261,31519,"13:46:39",334949358,729193027,"4.0.10.0",1,2,"demographics","age",0,0,0,0,0,0,"25",1,3516,0
"262",262,31519,"13:46:39",334949358,729193027,"4.0.10.0",1,3,"demographics","gender",0,0,0,0,0,0,"male",1,8896,0
"263",263,31519,"09:47:15",248082442,947925477,"4.0.10.0",1,2,"demographics","age",0,0,0,0,0,0,"29",1,3021,0
"264",264,31519,"09:47:15",248082442,947925477,"4.0.10.0",1,3,"demographics","gender",0,0,0,0,0,0,"female",1,3389,0
"265",265,31519,"13:46:20",122743951,59674939,"4.0.10.0",1,2,"demographics","age",0,0,0,0,0,0,"22",1,2721,0
"266",266,31519,"13:46:20",122743951,59674939,"4.0.10.0",1,3,"demographics","gender",0,0,0,0,0,0,"Female",1,4168,0
"267",267,31619,"00:47:32",245901452,365327585,"4.0.10.0",1,2,"demographics","age",0,0,0,0,0,0,"24",1,1184,0
"268",268,31619,"00:47:32",245901452,365327585,"4.0.10.0",1,3,"demographics","gender",0,0,0,0,0,0,"Male",1,2118,0
"269",269,31519,"13:47:02",628362109,833363030,"4.0.10.0",1,2,"demographics","age",0,0,0,0,0,0,"37 ",1,7972,0
"270",270,31519,"13:47:02",628362109,833363030,"4.0.10.0",1,3,"demographics","gender",0,0,0,0,0,0,"Male",1,3222,0
"271",271,31519,"13:48:01",132954404,173195330,"4.0.10.0",1,2,"demographics","age",0,0,0,0,0,0,"32",1,3767,0
"272",272,31519,"13:48:01",132954404,173195330,"4.0.10.0",1,3,"demographics","gender",0,0,0,0,0,0,"male",1,3532,0
"273",273,31519,"09:48:38",334048463,706947568,"4.0.10.0",1,2,"demographics","age",0,0,0,0,0,0,"22",1,2905,0
"274",274,31519,"09:48:38",334048463,706947568,"4.0.10.0",1,3,"demographics","gender",0,0,0,0,0,0,"Female",1,3847,0
"275",275,31519,"13:48:28",397507322,365764444,"4.0.10.0",1,2,"demographics","age",0,0,0,0,0,0,"29",1,4452,0
"276",276,31519,"13:48:28",397507322,365764444,"4.0.10.0",1,3,"demographics","gender",0,0,0,0,0,0,"female",1,4765,0
"277",277,31519,"13:49:31",745716013,445559065,"4.0.10.0",1,2,"demographics","age",0,0,0,0,0,0,"42",1,4463,0
"278",278,31519,"13:49:31",745716013,445559065,"4.0.10.0",1,3,"demographics","gender",0,0,0,0,0,0,"FEMALE",1,7087,0
"279",279,31519,"13:49:36",452239618,925409847,"4.0.10.0",1,2,"demographics","age",0,0,0,0,0,0,"34",1,3089,0
"280",280,31519,"13:49:36",452239618,925409847,"4.0.10.0",1,3,"demographics","gender",0,0,0,0,0,0,"male",1,2231,0
"281",281,31519,"13:50:01",256540471,945428108,"4.0.10.0",1,2,"demographics","age",0,0,0,0,0,0,"65",1,3443,0
"282",282,31519,"13:50:01",256540471,945428108,"4.0.10.0",1,3,"demographics","gender",0,0,0,0,0,0,"female",1,5462,0
"283",283,31519,"13:49:57",107203595,907583841,"4.0.10.0",1,2,"demographics","age",0,0,0,0,0,0,"34",1,2877,0
"284",284,31519,"13:49:57",107203595,907583841,"4.0.10.0",1,3,"demographics","gender",0,0,0,0,0,0,"female",1,6138,0
"285",285,31519,"13:50:12",237775537,242901184,"4.0.10.0",1,2,"demographics","age",0,0,0,0,0,0,"28",1,2367,0
"286",286,31519,"13:50:12",237775537,242901184,"4.0.10.0",1,3,"demographics","gender",0,0,0,0,0,0,"Female",1,3818,0
"287",287,31519,"13:49:25",710174056,52924881,"4.0.10.0",1,2,"demographics","age",0,0,0,0,0,0,"53",1,5069,0
"288",288,31519,"13:49:25",710174056,52924881,"4.0.10.0",1,3,"demographics","gender",0,0,0,0,0,0,"female",1,5928,0
"289",289,31519,"13:50:29",448699354,921869582,"4.0.10.0",1,2,"demographics","age",0,0,0,0,0,0,"29",1,2452,0
"290",290,31519,"13:50:29",448699354,921869582,"4.0.10.0",1,3,"demographics","gender",0,0,0,0,0,0,"Female",1,3601,0
"291",291,31519,"13:50:26",252082665,915057176,"4.0.10.0",1,2,"demographics","age",0,0,0,0,0,0,"54",1,3385,0
"292",292,31519,"13:50:26",252082665,915057176,"4.0.10.0",1,3,"demographics","gender",0,0,0,0,0,0,"female",1,5048,0
"293",293,31519,"13:50:27",249629628,484534075,"4.0.10.0",1,2,"demographics","age",0,0,0,0,0,0,"29",1,4142,0
"294",294,31519,"13:50:27",249629628,484534075,"4.0.10.0",1,3,"demographics","gender",0,0,0,0,0,0,"Male",1,3866,0
"295",295,31519,"13:48:04",55234492,702090064,"4.0.10.0",1,2,"demographics","age",0,0,0,0,0,0,"25",1,4011,0
"296",296,31519,"13:48:04",55234492,702090064,"4.0.10.0",1,3,"demographics","gender",0,0,0,0,0,0,"Female",1,3637,0
"297",297,31519,"13:50:37",971291032,79039533,"4.0.10.0",1,2,"demographics","age",0,0,0,0,0,0,"20",1,3703,0
"298",298,31519,"13:50:37",971291032,79039533,"4.0.10.0",1,3,"demographics","gender",0,0,0,0,0,0,"male",1,3780,0
"299",299,31519,"13:50:38",376762390,611666838,"4.0.10.0",1,2,"demographics","age",0,0,0,0,0,0,"32",1,6791,0
"300",300,31519,"13:50:38",376762390,611666838,"4.0.10.0",1,3,"demographics","gender",0,0,0,0,0,0,"female",1,7726,0
"301",301,31519,"10:50:51",723399408,414168999,"4.0.10.0",1,2,"demographics","age",0,0,0,0,0,0,"27",1,3674,0
"302",302,31519,"10:50:51",723399408,414168999,"4.0.10.0",1,3,"demographics","gender",0,0,0,0,0,0,"female",1,4498,0
"303",303,31519,"13:51:18",723045067,869860297,"4.0.10.0",1,2,"demographics","age",0,0,0,0,0,0,"52",1,6101,0
"304",304,31519,"13:51:18",723045067,869860297,"4.0.10.0",1,3,"demographics","gender",0,0,0,0,0,0,"Male",1,5921,0
"305",305,31519,"13:51:37",967521341,659185310,"4.0.10.0",1,2,"demographics","age",0,0,0,0,0,0,"31",1,3682,0
"306",306,31519,"13:51:37",967521341,659185310,"4.0.10.0",1,3,"demographics","gender",0,0,0,0,0,0,"male",1,4755,0
"307",307,31519,"13:51:34",741834820,25200793,"4.0.10.0",1,2,"demographics","age",0,0,0,0,0,0,"41",1,5302,0
"308",308,31519,"13:51:34",741834820,25200793,"4.0.10.0",1,3,"demographics","gender",0,0,0,0,0,0,"m",1,3848,0
"309",309,31519,"13:50:33",392337009,431389013,"4.0.10.0",1,2,"demographics","age",0,0,0,0,0,0,"19",1,4403,0
"310",310,31519,"13:50:33",392337009,431389013,"4.0.10.0",1,3,"demographics","gender",0,0,0,0,0,0,"Male",1,6563,0
"311",311,31519,"13:52:25",132954404,173195330,"4.0.10.0",1,2,"demographics","age",0,0,0,0,0,0,"32",1,3326,0
"312",312,31519,"13:52:25",132954404,173195330,"4.0.10.0",1,3,"demographics","gender",0,0,0,0,0,0,"male",1,3562,0
"313",313,31519,"13:52:54",58749721,394191388,"4.0.10.0",1,2,"demographics","age",0,0,0,0,0,0,"59",1,4281,0
"314",314,31519,"13:52:54",58749721,394191388,"4.0.10.0",1,3,"demographics","gender",0,0,0,0,0,0,"Female",1,5565,0
"315",315,31519,"06:52:51",33270945,331844090,"4.0.10.0",1,2,"demographics","age",0,0,0,0,0,0,"27",1,2986,0
"316",316,31519,"06:52:51",33270945,331844090,"4.0.10.0",1,3,"demographics","gender",0,0,0,0,0,0,"Male",1,3209,0
"317",317,31519,"13:52:40",560594126,202902210,"4.0.10.0",1,2,"demographics","age",0,0,0,0,0,0,"21",1,2237,0
"318",318,31519,"13:52:40",560594126,202902210,"4.0.10.0",1,3,"demographics","gender",0,0,0,0,0,0,"Male",1,3027,0
"319",319,31519,"13:52:56",998491500,776944350,"4.0.10.0",1,2,"demographics","age",0,0,0,0,0,0,"29",1,2643,0
"320",320,31519,"13:52:56",998491500,776944350,"4.0.10.0",1,3,"demographics","gender",0,0,0,0,0,0,"Male",1,2724,0
"321",321,31519,"13:53:16",539557498,181865586,"4.0.10.0",1,2,"demographics","age",0,0,0,0,0,0,"18",1,4080,0
"322",322,31519,"13:53:16",539557498,181865586,"4.0.10.0",1,3,"demographics","gender",0,0,0,0,0,0,"Male",1,4805,0
"323",323,31519,"13:52:49",984564508,321184028,"4.0.10.0",1,2,"demographics","age",0,0,0,0,0,0,"41",1,9292,0
"324",324,31519,"13:52:49",984564508,321184028,"4.0.10.0",1,3,"demographics","gender",0,0,0,0,0,0,"female",1,9318,0
"325",325,31519,"13:53:53",858063503,503351129,"4.0.10.0",1,2,"demographics","age",0,0,0,0,0,0,"40",1,4464,0
"326",326,31519,"13:53:53",858063503,503351129,"4.0.10.0",1,3,"demographics","gender",0,0,0,0,0,0,"female",1,7370,0
"327",327,31519,"13:53:53",43940064,576529618,"4.0.10.0",1,2,"demographics","age",0,0,0,0,0,0,"29",1,3007,0
"328",328,31519,"13:53:53",43940064,576529618,"4.0.10.0",1,3,"demographics","gender",0,0,0,0,0,0,"female",1,4009,0
"329",329,31519,"09:54:16",995009863,527301308,"4.0.10.0",1,2,"demographics","age",0,0,0,0,0,0,"28",1,3013,0
"330",330,31519,"09:54:16",995009863,527301308,"4.0.10.0",1,3,"demographics","gender",0,0,0,0,0,0,"male",1,2799,0
"331",331,31519,"09:56:04",415323598,806189096,"4.0.10.0",1,2,"demographics","age",0,0,0,0,0,0,"26",1,2558,0
"332",332,31519,"09:56:04",415323598,806189096,"4.0.10.0",1,3,"demographics","gender",0,0,0,0,0,0,"male",1,3261,0
"333",333,31519,"13:54:46",606780484,325816439,"4.0.10.0",1,2,"demographics","age",0,0,0,0,0,0,"21",1,5771,0
"334",334,31519,"13:54:46",606780484,325816439,"4.0.10.0",1,3,"demographics","gender",0,0,0,0,0,0,"female",1,8938,0
"335",335,31519,"13:56:54",476627642,982971467,"4.0.10.0",1,2,"demographics","age",0,0,0,0,0,0,"18",1,3796,0
"336",336,31519,"13:56:54",476627642,982971467,"4.0.10.0",1,3,"demographics","gender",0,0,0,0,0,0,"female",1,4077,0
"337",337,31519,"09:56:45",651027031,67840148,"4.0.10.0",1,2,"demographics","age",0,0,0,0,0,0,"22",1,3719,0
"338",338,31519,"09:56:45",651027031,67840148,"4.0.10.0",1,3,"demographics","gender",0,0,0,0,0,0,"Female",1,3556,0
"339",339,31519,"13:56:48",341659189,999172017,"4.0.10.0",1,2,"demographics","age",0,0,0,0,0,0,"46",1,4302,0
"340",340,31519,"13:56:48",341659189,999172017,"4.0.10.0",1,3,"demographics","gender",0,0,0,0,0,0,"female",1,6398,0
"341",341,31519,"09:57:14",197777988,698743276,"4.0.10.0",1,2,"demographics","age",0,0,0,0,0,0,"25",1,3531,0
"342",342,31519,"09:57:14",197777988,698743276,"4.0.10.0",1,3,"demographics","gender",0,0,0,0,0,0,"Female",1,3560,0
"343",343,31519,"13:57:20",785828563,505162654,"4.0.10.0",1,2,"demographics","age",0,0,0,0,0,0,"27",1,5978,0
"344",344,31519,"13:57:20",785828563,505162654,"4.0.10.0",1,3,"demographics","gender",0,0,0,0,0,0,"FEMALE",1,7582,0
"345",345,31519,"13:57:39",674302244,752576015,"4.0.10.0",1,2,"demographics","age",0,0,0,0,0,0,"18",1,2923,0
"346",346,31519,"13:57:39",674302244,752576015,"4.0.10.0",1,3,"demographics","gender",0,0,0,0,0,0,"female",1,2494,0
"347",347,31519,"13:57:24",70535423,850835713,"4.0.10.0",1,2,"demographics","age",0,0,0,0,0,0,"54",1,4710,0
"348",348,31519,"13:57:24",70535423,850835713,"4.0.10.0",1,3,"demographics","gender",0,0,0,0,0,0,"male",1,4907,0
"349",349,31519,"13:58:24",381913669,734143895,"4.0.10.0",1,2,"demographics","age",0,0,0,0,0,0,"40",1,2662,0
"350",350,31519,"13:58:24",381913669,734143895,"4.0.10.0",1,3,"demographics","gender",0,0,0,0,0,0,"male",1,5609,0
"351",351,31519,"13:58:30",674302244,752576015,"4.0.10.0",1,2,"demographics","age",0,0,0,0,0,0,"18",1,2489,0
"352",352,31519,"13:58:30",674302244,752576015,"4.0.10.0",1,3,"demographics","gender",0,0,0,0,0,0,"female",1,3660,0
"353",353,31519,"13:58:45",411839906,15397527,"4.0.10.0",1,2,"demographics","age",0,0,0,0,0,0,"28",1,5384,0
"354",354,31519,"13:58:45",411839906,15397527,"4.0.10.0",1,3,"demographics","gender",0,0,0,0,0,0,"male",1,3426,0
"355",355,31519,"13:59:12",902887617,206333542,"4.0.10.0",1,2,"demographics","age",0,0,0,0,0,0,"50",1,3679,0
"356",356,31519,"13:59:12",902887617,206333542,"4.0.10.0",1,3,"demographics","gender",0,0,0,0,0,0,"Female",1,4106,0
"357",357,31519,"13:58:38",102466674,603431960,"4.0.10.0",1,2,"demographics","age",0,0,0,0,0,0,"21",1,3336,0
"358",358,31519,"13:58:38",102466674,603431960,"4.0.10.0",1,3,"demographics","gender",0,0,0,0,0,0,"Male",1,4912,0
"359",359,31519,"13:57:50",752866840,472200928,"4.0.10.0",1,2,"demographics","age",0,0,0,0,0,0,"39",1,4632,0
"360",360,31519,"13:57:50",752866840,472200928,"4.0.10.0",1,3,"demographics","gender",0,0,0,0,0,0,"female",1,6337,0
"361",361,31519,"13:59:19",3675944,893323259,"4.0.10.0",1,2,"demographics","age",0,0,0,0,0,0,"20",1,2886,0
"362",362,31519,"13:59:19",3675944,893323259,"4.0.10.0",1,3,"demographics","gender",0,0,0,0,0,0,"Female",1,5941,0
"363",363,31519,"13:58:35",253320340,712739175,"4.0.10.0",1,2,"demographics","age",0,0,0,0,0,0,"31",1,3683,0
"364",364,31519,"13:58:35",253320340,712739175,"4.0.10.0",1,3,"demographics","gender",0,0,0,0,0,0,"female",1,4153,0
"365",365,31519,"13:59:30",201837437,659802904,"4.0.10.0",1,2,"demographics","age",0,0,0,0,0,0,"28",1,4357,0
"366",366,31519,"13:59:30",201837437,659802904,"4.0.10.0",1,3,"demographics","gender",0,0,0,0,0,0,"female",1,12102,0
"367",367,31519,"13:59:59",315554622,594636730,"4.0.10.0",1,2,"demographics","age",0,0,0,0,0,0,"31",1,2701,0
"368",368,31519,"13:59:59",315554622,594636730,"4.0.10.0",1,3,"demographics","gender",0,0,0,0,0,0,"female",1,4152,0
"369",369,31519,"14:00:21",193029891,51351075,"4.0.10.0",1,2,"demographics","age",0,0,0,0,0,0,"47",1,2499,0
"370",370,31519,"14:00:21",193029891,51351075,"4.0.10.0",1,3,"demographics","gender",0,0,0,0,0,0,"Male",1,3455,0
"371",371,31519,"13:56:31",354615994,823502382,"4.0.10.0",1,2,"demographics","age",0,0,0,0,0,0,"50",1,6582,0
"372",372,31519,"13:56:31",354615994,823502382,"4.0.10.0",1,3,"demographics","gender",0,0,0,0,0,0,"female",1,6255,0
"373",373,31519,"14:00:32",263043767,890408292,"4.0.10.0",1,2,"demographics","age",0,0,0,0,0,0,"26",1,2945,0
"374",374,31519,"14:00:32",263043767,890408292,"4.0.10.0",1,3,"demographics","gender",0,0,0,0,0,0,"male",1,2762,0
"375",375,31519,"10:01:14",178607056,91440333,"4.0.10.0",1,2,"demographics","age",0,0,0,0,0,0,"34",1,3063,0
"376",376,31519,"10:01:14",178607056,91440333,"4.0.10.0",1,3,"demographics","gender",0,0,0,0,0,0,"female",1,4339,0
"377",377,31519,"09:01:43",364074288,22764964,"4.0.10.0",1,2,"demographics","age",0,0,0,0,0,0,"43",1,5067,0
"378",378,31519,"09:01:43",364074288,22764964,"4.0.10.0",1,3,"demographics","gender",0,0,0,0,0,0,"female",1,5018,0
"379",379,31519,"14:02:36",78240424,793290647,"4.0.10.0",1,2,"demographics","age",0,0,0,0,0,0,"39",1,2888,0
"380",380,31519,"14:02:36",78240424,793290647,"4.0.10.0",1,3,"demographics","gender",0,0,0,0,0,0,"Male",1,3583,0
"381",381,31519,"14:02:25",148261302,405682077,"4.0.10.0",1,2,"demographics","age",0,0,0,0,0,0,"23",1,3045,0
"382",382,31519,"14:02:25",148261302,405682077,"4.0.10.0",1,3,"demographics","gender",0,0,0,0,0,0,"Male",1,3369,0
"383",383,31519,"14:02:35",565834143,169689902,"4.0.10.0",1,2,"demographics","age",0,0,0,0,0,0,"25",1,2737,0
"384",384,31519,"14:02:35",565834143,169689902,"4.0.10.0",1,3,"demographics","gender",0,0,0,0,0,0,"Male",1,2929,0
"385",385,31519,"14:02:26",510087826,562497132,"4.0.10.0",1,2,"demographics","age",0,0,0,0,0,0,"24",1,3689,0
"386",386,31519,"14:02:26",510087826,562497132,"4.0.10.0",1,3,"demographics","gender",0,0,0,0,0,0,"Male",1,3881,0
"387",387,31519,"14:03:40",347330595,874439829,"4.0.10.0",1,2,"demographics","age",0,0,0,0,0,0,"30",1,3638,0
"388",388,31519,"14:03:40",347330595,874439829,"4.0.10.0",1,3,"demographics","gender",0,0,0,0,0,0,"Male",1,5495,0
"389",389,31519,"14:03:44",207553170,428694346,"4.0.10.0",1,2,"demographics","age",0,0,0,0,0,0,"21",1,3589,0
"390",390,31519,"14:03:44",207553170,428694346,"4.0.10.0",1,3,"demographics","gender",0,0,0,0,0,0,"male",1,3742,0
"391",391,31519,"10:03:47",231090279,65902677,"4.0.10.0",1,2,"demographics","age",0,0,0,0,0,0,"34",1,4769,0
"392",392,31519,"10:03:47",231090279,65902677,"4.0.10.0",1,3,"demographics","gender",0,0,0,0,0,0,"female",1,6279,0
"393",393,31519,"14:04:40",631848799,737917623,"4.0.10.0",1,2,"demographics","age",0,0,0,0,0,0,"52",1,6567,0
"394",394,31519,"14:04:40",631848799,737917623,"4.0.10.0",1,3,"demographics","gender",0,0,0,0,0,0,"male",1,6403,0
"395",395,31519,"10:04:55",392577144,193363352,"4.0.10.0",1,2,"demographics","age",0,0,0,0,0,0,"32",1,3307,0
"396",396,31519,"10:04:55",392577144,193363352,"4.0.10.0",1,3,"demographics","gender",0,0,0,0,0,0,"Female",1,4177,0
"397",397,31519,"14:04:51",728381139,527618037,"4.0.10.0",1,2,"demographics","age",0,0,0,0,0,0,"47",1,4515,0
"398",398,31519,"14:04:51",728381139,527618037,"4.0.10.0",1,3,"demographics","gender",0,0,0,0,0,0,"Male",1,6931,0
"399",399,31519,"10:04:38",407384853,172480377,"4.0.10.0",1,2,"demographics","age",0,0,0,0,0,0,"38",1,3512,0
"400",400,31519,"10:04:38",407384853,172480377,"4.0.10.0",1,3,"demographics","gender",0,0,0,0,0,0,"Female",1,4064,0
"401",401,31519,"14:04:47",239263994,559200334,"4.0.10.0",1,2,"demographics","age",0,0,0,0,0,0,"64",1,4022,0
"402",402,31519,"14:04:47",239263994,559200334,"4.0.10.0",1,3,"demographics","gender",0,0,0,0,0,0,"female",1,4904,0
"403",403,31519,"14:03:02",637220587,689331768,"4.0.10.0",1,2,"demographics","age",0,0,0,0,0,0,"53",1,5579,0
"404",404,31519,"14:03:02",637220587,689331768,"4.0.10.0",1,3,"demographics","gender",0,0,0,0,0,0,"female",1,7448,0
"405",405,31519,"14:05:24",211202741,531437207,"4.0.10.0",1,2,"demographics","age",0,0,0,0,0,0,"19",1,2875,0
"406",406,31519,"14:05:24",211202741,531437207,"4.0.10.0",1,3,"demographics","gender",0,0,0,0,0,0,"female",1,5084,0
"407",407,31519,"14:05:28",424457476,238880482,"4.0.10.0",1,2,"demographics","age",0,0,0,0,0,0,"49",1,8098,0
"408",408,31519,"14:05:28",424457476,238880482,"4.0.10.0",1,3,"demographics","gender",0,0,0,0,0,0,"Female",1,4034,0
"409",409,31519,"10:05:25",896994136,851893964,"4.0.10.0",1,2,"demographics","age",0,0,0,0,0,0,"19",1,7961,0
"410",410,31519,"10:05:25",896994136,851893964,"4.0.10.0",1,3,"demographics","gender",0,0,0,0,0,0,"male",1,7815,0
"411",411,31519,"14:05:45",704123941,728740624,"4.0.10.0",1,2,"demographics","age",0,0,0,0,0,0,"35",1,2650,0
"412",412,31519,"14:05:45",704123941,728740624,"4.0.10.0",1,3,"demographics","gender",0,0,0,0,0,0,"Male",1,3877,0
"413",413,31519,"14:05:43",247492981,777022764,"4.0.10.0",1,2,"demographics","age",0,0,0,0,0,0,"31",1,6956,0
"414",414,31519,"14:05:43",247492981,777022764,"4.0.10.0",1,3,"demographics","gender",0,0,0,0,0,0,"Female",1,4516,0
"415",415,31519,"14:09:51",574518684,293852761,"4.0.10.0",1,2,"demographics","age",0,0,0,0,0,0,"47",1,8387,0
"416",416,31519,"14:09:51",574518684,293852761,"4.0.10.0",1,3,"demographics","gender",0,0,0,0,0,0,"male",1,6143,0
"417",417,31519,"14:05:27",974879956,624776678,"4.0.10.0",1,2,"demographics","age",0,0,0,0,0,0,"23",1,5025,0
"418",418,31519,"14:05:27",974879956,624776678,"4.0.10.0",1,3,"demographics","gender",0,0,0,0,0,0,"female",1,5047,0
"419",419,31519,"14:04:36",226288660,755818443,"4.0.10.0",1,2,"demographics","age",0,0,0,0,0,0,"38",1,3224,0
"420",420,31519,"14:04:36",226288660,755818443,"4.0.10.0",1,3,"demographics","gender",0,0,0,0,0,0,"female",1,4152,0
"421",421,31519,"14:06:12",428892804,229679013,"4.0.10.0",1,2,"demographics","age",0,0,0,0,0,0,"40",1,3717,0
"422",422,31519,"14:06:12",428892804,229679013,"4.0.10.0",1,3,"demographics","gender",0,0,0,0,0,0,"female",1,5703,0
"423",423,31519,"14:06:21",274466584,229366395,"4.0.10.0",1,2,"demographics","age",0,0,0,0,0,0,"24",1,2641,0
"424",424,31519,"14:06:21",274466584,229366395,"4.0.10.0",1,3,"demographics","gender",0,0,0,0,0,0,"male",1,3043,0
"425",425,31519,"14:07:16",381602702,259414919,"4.0.10.0",1,2,"demographics","age",0,0,0,0,0,0,"28",1,6594,0
"426",426,31519,"14:07:16",381602702,259414919,"4.0.10.0",1,3,"demographics","gender",0,0,0,0,0,0,"Female",1,3940,0
"427",427,31519,"10:09:28",776800408,421808539,"4.0.10.0",1,2,"demographics","age",0,0,0,0,0,0,"29",1,3702,0
"428",428,31519,"10:09:28",776800408,421808539,"4.0.10.0",1,3,"demographics","gender",0,0,0,0,0,0,"female",1,3428,0
"429",429,31519,"14:09:24",132954404,173195330,"4.0.10.0",1,2,"demographics","age",0,0,0,0,0,0,"31",1,4842,0
"430",430,31519,"14:09:24",132954404,173195330,"4.0.10.0",1,3,"demographics","gender",0,0,0,0,0,0,"male",1,4084,0
"431",431,31519,"14:13:12",434724745,445981678,"4.0.10.0",1,2,"demographics","age",0,0,0,0,0,0,"29",1,4550,0
"432",432,31519,"14:13:12",434724745,445981678,"4.0.10.0",1,3,"demographics","gender",0,0,0,0,0,0,"female",1,6517,0
"433",433,31519,"14:19:03",381602702,259414919,"4.0.10.0",1,2,"demographics","age",0,0,0,0,0,0,"28",1,5468,0
"434",434,31519,"14:19:03",381602702,259414919,"4.0.10.0",1,3,"demographics","gender",0,0,0,0,0,0,"Female",1,3635,0
"435",435,31519,"15:51:13",401538739,63335408,"4.0.10.0",1,2,"demographics","age",0,0,0,0,0,0,"27",1,3602,0
"436",436,31519,"15:51:13",401538739,63335408,"4.0.10.0",1,3,"demographics","gender",0,0,0,0,0,0,"Agender",1,5064,0
"437",437,31519,"16:02:00",695716955,792625375,"4.0.10.0",1,2,"demographics","age",0,0,0,0,0,0,"39 ",1,6580,0
"438",438,31519,"16:02:00",695716955,792625375,"4.0.10.0",1,3,"demographics","gender",0,0,0,0,0,0,"female",1,5779,0
"439",439,31519,"17:11:59",529415905,383313835,"4.0.10.0",1,2,"demographics","age",0,0,0,0,0,0,"26",1,5090,0
"440",440,31519,"17:11:59",529415905,383313835,"4.0.10.0",1,3,"demographics","gender",0,0,0,0,0,0,"Female",1,3948,0
"441",441,31519,"17:12:48",763695764,465246862,"4.0.10.0",1,2,"demographics","age",0,0,0,0,0,0,"47",1,3907,0
"442",442,31519,"17:12:48",763695764,465246862,"4.0.10.0",1,3,"demographics","gender",0,0,0,0,0,0,"male",1,4668,0
"443",443,31519,"17:12:53",362591081,926115461,"4.0.10.0",1,2,"demographics","age",0,0,0,0,0,0,"22",1,3445,0
"444",444,31519,"17:12:53",362591081,926115461,"4.0.10.0",1,3,"demographics","gender",0,0,0,0,0,0,"Male",1,3543,0
"445",445,31519,"17:13:55",698999143,85949621,"4.0.10.0",1,2,"demographics","age",0,0,0,0,0,0,"27",1,3374,0
"446",446,31519,"17:13:55",698999143,85949621,"4.0.10.0",1,3,"demographics","gender",0,0,0,0,0,0,"Male",1,4311,0
"447",447,31519,"17:14:48",570978178,510795046,"4.0.10.0",1,2,"demographics","age",0,0,0,0,0,0,"22",1,2179,0
"448",448,31519,"17:14:48",570978178,510795046,"4.0.10.0",1,3,"demographics","gender",0,0,0,0,0,0,"male",1,2713,0
"449",449,31519,"12:14:46",925898041,770187176,"4.0.10.0",1,2,"demographics","age",0,0,0,0,0,0,"20",1,4760,0
"450",450,31519,"12:14:46",925898041,770187176,"4.0.10.0",1,3,"demographics","gender",0,0,0,0,0,0,"FEMALE",1,6909,0
"451",451,31519,"17:15:34",944810505,788801514,"4.0.10.0",1,2,"demographics","age",0,0,0,0,0,0,"32",1,3502,0
"452",452,31519,"17:15:34",944810505,788801514,"4.0.10.0",1,3,"demographics","gender",0,0,0,0,0,0,"female",1,5384,0
"453",453,31619,"04:15:24",23569555,943454472,"4.0.10.0",1,2,"demographics","age",0,0,0,0,0,0,"21",1,2275,0
"454",454,31619,"04:15:24",23569555,943454472,"4.0.10.0",1,3,"demographics","gender",0,0,0,0,0,0,"Male",1,9322,0
"455",455,31519,"13:15:45",610258406,240806961,"4.0.10.0",1,2,"demographics","age",0,0,0,0,0,0,"27",1,5661,0
"456",456,31519,"13:15:45",610258406,240806961,"4.0.10.0",1,3,"demographics","gender",0,0,0,0,0,0,"MALE",1,3451,0
"457",457,31519,"13:16:53",929316052,235220356,"4.0.10.0",1,2,"demographics","age",0,0,0,0,0,0,"19",1,2617,0
"458",458,31519,"13:16:53",929316052,235220356,"4.0.10.0",1,3,"demographics","gender",0,0,0,0,0,0,"male",1,3467,0
"459",459,31519,"11:17:41",101774064,41889064,"4.0.10.0",1,2,"demographics","age",0,0,0,0,0,0,"24",1,3305,0
"460",460,31519,"11:17:41",101774064,41889064,"4.0.10.0",1,3,"demographics","gender",0,0,0,0,0,0,"Male",1,3092,0
"461",461,31519,"11:23:32",468121995,540633250,"4.0.10.0",1,2,"demographics","age",0,0,0,0,0,0,"21",1,2878,0
"462",462,31519,"11:23:32",468121995,540633250,"4.0.10.0",1,3,"demographics","gender",0,0,0,0,0,0,"Female",1,3831,0
"463",463,31519,"17:18:31",326749666,529534103,"4.0.10.0",1,2,"demographics","age",0,0,0,0,0,0,"22",1,4254,0
"464",464,31519,"17:18:31",326749666,529534103,"4.0.10.0",1,3,"demographics","gender",0,0,0,0,0,0,"female",1,4697,0
"465",465,31519,"13:19:17",880263213,363039574,"4.0.10.0",1,2,"demographics","age",0,0,0,0,0,0,"19",1,4121,0
"466",466,31519,"13:19:17",880263213,363039574,"4.0.10.0",1,3,"demographics","gender",0,0,0,0,0,0,"Female",1,6058,0
"467",467,31519,"13:19:43",425858247,527767466,"4.0.10.0",1,2,"demographics","age",0,0,0,0,0,0,"35",1,3409,0
"468",468,31519,"13:19:43",425858247,527767466,"4.0.10.0",1,3,"demographics","gender",0,0,0,0,0,0,"Female",1,4154,0
"469",469,31519,"13:19:49",400517072,263862381,"4.0.10.0",1,2,"demographics","age",0,0,0,0,0,0,"40",1,3042,0
"470",470,31519,"13:19:49",400517072,263862381,"4.0.10.0",1,3,"demographics","gender",0,0,0,0,0,0,"male",1,4141,0
"471",471,31519,"10:19:45",365503081,848279411,"4.0.10.0",1,2,"demographics","age",0,0,0,0,0,0,"27",1,3664,0
"472",472,31519,"10:19:45",365503081,848279411,"4.0.10.0",1,3,"demographics","gender",0,0,0,0,0,0,"Male",1,3026,0
"473",473,31519,"13:19:52",132968579,981832325,"4.0.10.0",1,2,"demographics","age",0,0,0,0,0,0,"26",1,2343,0
"474",474,31519,"13:19:52",132968579,981832325,"4.0.10.0",1,3,"demographics","gender",0,0,0,0,0,0,"female",1,2913,0
"475",475,31519,"12:26:39",297140433,55212494,"4.0.10.0",1,2,"demographics","age",0,0,0,0,0,0,"19",1,4029,0
"476",476,31519,"12:26:39",297140433,55212494,"4.0.10.0",1,3,"demographics","gender",0,0,0,0,0,0,"Male",1,3405,0
"477",477,31519,"17:20:15",842240428,62542558,"4.0.10.0",1,2,"demographics","age",0,0,0,0,0,0,"28",1,3364,0
"478",478,31519,"17:20:15",842240428,62542558,"4.0.10.0",1,3,"demographics","gender",0,0,0,0,0,0,"Male",1,6625,0
"479",479,31519,"12:20:33",626770218,942420014,"4.0.10.0",1,2,"demographics","age",0,0,0,0,0,0,"44",1,2279,0
"480",480,31519,"12:20:33",626770218,942420014,"4.0.10.0",1,3,"demographics","gender",0,0,0,0,0,0,"male",1,3480,0
"481",481,31519,"17:20:27",563449781,107619858,"4.0.10.0",1,2,"demographics","age",0,0,0,0,0,0,"23",1,3801,0
"482",482,31519,"17:20:27",563449781,107619858,"4.0.10.0",1,3,"demographics","gender",0,0,0,0,0,0,"female",1,4932,0
"483",483,31519,"17:19:23",904625756,68090154,"4.0.10.0",1,2,"demographics","age",0,0,0,0,0,0,"59",1,4841,0
"484",484,31519,"17:19:23",904625756,68090154,"4.0.10.0",1,3,"demographics","gender",0,0,0,0,0,0,"Female",1,7371,0
"485",485,31519,"17:20:23",364520744,746598446,"4.0.10.0",1,2,"demographics","age",0,0,0,0,0,0,"40",1,4457,0
"486",486,31519,"17:20:23",364520744,746598446,"4.0.10.0",1,3,"demographics","gender",0,0,0,0,0,0,"female",1,7738,0
"487",487,31619,"06:21:01",591486626,465192354,"4.0.10.0",1,2,"demographics","age",0,0,0,0,0,0,"46",1,5010,0
"488",488,31619,"06:21:01",591486626,465192354,"4.0.10.0",1,3,"demographics","gender",0,0,0,0,0,0,"female",1,6072,0
"489",489,31519,"17:21:10",449123571,551032787,"4.0.10.0",1,2,"demographics","age",0,0,0,0,0,0,"24",1,3623,0
"490",490,31519,"17:21:10",449123571,551032787,"4.0.10.0",1,3,"demographics","gender",0,0,0,0,0,0,"male",1,3892,0
"491",491,31519,"17:18:40",137928817,898452413,"4.0.10.0",1,2,"demographics","age",0,0,0,0,0,0,"50",1,4587,0
"492",492,31519,"17:18:40",137928817,898452413,"4.0.10.0",1,3,"demographics","gender",0,0,0,0,0,0,"female",1,4800,0
"493",493,31519,"13:14:25",260459243,20982844,"4.0.10.0",1,2,"demographics","age",0,0,0,0,0,0,"57",1,4999,0
"494",494,31519,"13:14:25",260459243,20982844,"4.0.10.0",1,3,"demographics","gender",0,0,0,0,0,0,"male",1,7086,0
"495",495,31519,"10:21:40",198965137,804690348,"4.0.10.0",1,2,"demographics","age",0,0,0,0,0,0,"37",1,5645,0
"496",496,31519,"10:21:40",198965137,804690348,"4.0.10.0",1,3,"demographics","gender",0,0,0,0,0,0,"female",1,3268,0
"497",497,31519,"10:21:52",571249741,673158967,"4.0.10.0",1,2,"demographics","age",0,0,0,0,0,0,"20",1,3443,0
"498",498,31519,"10:21:52",571249741,673158967,"4.0.10.0",1,3,"demographics","gender",0,0,0,0,0,0,"Male",1,4055,0
"499",499,31519,"17:21:52",58460890,978625298,"4.0.10.0",1,2,"demographics","age",0,0,0,0,0,0,"32",1,6486,0
"500",500,31519,"17:21:52",58460890,978625298,"4.0.10.0",1,3,"demographics","gender",0,0,0,0,0,0,"Female",1,5228,0
"501",501,31519,"17:21:25",143627969,904151564,"4.0.10.0",1,2,"demographics","age",0,0,0,0,0,0,"33",1,3294,0
"502",502,31519,"17:21:25",143627969,904151564,"4.0.10.0",1,3,"demographics","gender",0,0,0,0,0,0,"female",1,4904,0
"503",503,31519,"13:22:07",48904422,268889768,"4.0.10.0",1,2,"demographics","age",0,0,0,0,0,0,"29",1,3997,0
"504",504,31519,"13:22:07",48904422,268889768,"4.0.10.0",1,3,"demographics","gender",0,0,0,0,0,0,"woman",1,6142,0
"505",505,31519,"17:22:45",879480079,42944478,"4.0.10.0",1,2,"demographics","age",0,0,0,0,0,0,"30",1,3122,0
"506",506,31519,"17:22:45",879480079,42944478,"4.0.10.0",1,3,"demographics","gender",0,0,0,0,0,0,"Male",1,6029,0
"507",507,31519,"13:23:01",987538371,593263598,"4.0.10.0",1,2,"demographics","age",0,0,0,0,0,0,"26",1,3120,0
"508",508,31519,"13:23:01",987538371,593263598,"4.0.10.0",1,3,"demographics","gender",0,0,0,0,0,0,"Female",1,4290,0
"509",509,31519,"10:23:30",27464504,43454799,"4.0.10.0",1,2,"demographics","age",0,0,0,0,0,0,"33",1,4047,0
"510",510,31519,"10:23:30",27464504,43454799,"4.0.10.0",1,3,"demographics","gender",0,0,0,0,0,0,"female",1,4261,0
"511",511,31519,"17:23:51",458015013,474005291,"4.0.10.0",1,2,"demographics","age",0,0,0,0,0,0,"34",1,4156,0
"512",512,31519,"17:23:51",458015013,474005291,"4.0.10.0",1,3,"demographics","gender",0,0,0,0,0,0,"female",1,6594,0
"513",513,31519,"17:24:09",341375587,6073319,"4.0.10.0",1,2,"demographics","age",0,0,0,0,0,0,"25",1,5539,0
"514",514,31519,"17:24:09",341375587,6073319,"4.0.10.0",1,3,"demographics","gender",0,0,0,0,0,0,"Female",1,8046,0
"515",515,31519,"17:23:53",345632924,565618261,"4.0.10.0",1,2,"demographics","age",0,0,0,0,0,0,"26",1,2938,0
"516",516,31519,"17:23:53",345632924,565618261,"4.0.10.0",1,3,"demographics","gender",0,0,0,0,0,0,"Male",1,4067,0
"517",517,31519,"13:24:00",19953841,35944137,"4.0.10.0",1,2,"demographics","age",0,0,0,0,0,0,"21",1,5489,0
"518",518,31519,"13:24:00",19953841,35944137,"4.0.10.0",1,3,"demographics","gender",0,0,0,0,0,0,"male",1,5562,0
"519",519,31519,"13:24:33",971899392,987889691,"4.0.10.0",1,2,"demographics","age",0,0,0,0,0,0,"21",1,5126,0
"520",520,31519,"13:24:33",971899392,987889691,"4.0.10.0",1,3,"demographics","gender",0,0,0,0,0,0,"female",1,5211,0
"521",521,31519,"13:24:27",299059358,929309769,"4.0.10.0",1,2,"demographics","age",0,0,0,0,0,0,"26",1,3049,0
"522",522,31519,"13:24:27",299059358,929309769,"4.0.10.0",1,3,"demographics","gender",0,0,0,0,0,0,"Female",1,6918,0
"523",523,31519,"13:24:26",487159961,151559558,"4.0.10.0",1,2,"demographics","age",0,0,0,0,0,0,"29",1,3745,0
"524",524,31519,"13:24:26",487159961,151559558,"4.0.10.0",1,3,"demographics","gender",0,0,0,0,0,0,"Female",1,5098,0
"525",525,31519,"17:24:26",352547302,992543226,"4.0.10.0",1,2,"demographics","age",0,0,0,0,0,0,"28",1,4290,0
"526",526,31519,"17:24:26",352547302,992543226,"4.0.10.0",1,3,"demographics","gender",0,0,0,0,0,0,"female",1,3352,0
"527",527,31519,"17:23:34",446767161,371804331,"4.0.10.0",1,2,"demographics","age",0,0,0,0,0,0,"20",1,3622,0
"528",528,31519,"17:23:34",446767161,371804331,"4.0.10.0",1,3,"demographics","gender",0,0,0,0,0,0,"female",1,3068,0
"529",529,31519,"17:21:04",167992164,21890092,"4.0.10.0",1,2,"demographics","age",0,0,0,0,0,0,"50",1,6283,0
"530",530,31519,"17:21:04",167992164,21890092,"4.0.10.0",1,3,"demographics","gender",0,0,0,0,0,0,"Female",1,5873,0
"531",531,31519,"17:26:25",584753618,990004073,"4.0.10.0",1,2,"demographics","age",0,0,0,0,0,0,"19",1,3612,0
"532",532,31519,"17:26:25",584753618,990004073,"4.0.10.0",1,3,"demographics","gender",0,0,0,0,0,0,"Male",1,7026,0
"533",533,31519,"17:26:35",82151933,744893120,"4.0.10.0",1,2,"demographics","age",0,0,0,0,0,0,"64",1,4492,0
"534",534,31519,"17:26:35",82151933,744893120,"4.0.10.0",1,3,"demographics","gender",0,0,0,0,0,0,"FEMALE",1,7200,0
"535",535,31519,"17:27:17",848522933,121240443,"4.0.10.0",1,2,"demographics","age",0,0,0,0,0,0,"20",1,3555,0
"536",536,31519,"17:27:17",848522933,121240443,"4.0.10.0",1,3,"demographics","gender",0,0,0,0,0,0,"male",1,4227,0
"537",537,31519,"17:27:43",442764140,26976226,"4.0.10.0",1,2,"demographics","age",0,0,0,0,0,0,"19",1,5702,0
"538",538,31519,"17:27:43",442764140,26976226,"4.0.10.0",1,3,"demographics","gender",0,0,0,0,0,0,"female",1,5536,0
"539",539,31519,"13:26:37",860671904,818950202,"4.0.10.0",1,2,"demographics","age",0,0,0,0,0,0,"38",1,2769,0
"540",540,31519,"13:26:37",860671904,818950202,"4.0.10.0",1,3,"demographics","gender",0,0,0,0,0,0,"Female",1,4240,0
"541",541,31519,"17:27:36",333630812,223125515,"4.0.10.0",1,2,"demographics","age",0,0,0,0,0,0,"27",1,3473,0
"542",542,31519,"17:27:36",333630812,223125515,"4.0.10.0",1,3,"demographics","gender",0,0,0,0,0,0,"Male",1,13730,0
"543",543,31519,"17:28:04",854557139,392074517,"4.0.10.0",1,2,"demographics","age",0,0,0,0,0,0,"33",1,5260,0
"544",544,31519,"17:28:04",854557139,392074517,"4.0.10.0",1,3,"demographics","gender",0,0,0,0,0,0,"female",1,4895,0
"545",545,31519,"17:27:44",177767562,229354629,"4.0.10.0",1,2,"demographics","age",0,0,0,0,0,0,"38",1,2810,0
"546",546,31519,"17:27:44",177767562,229354629,"4.0.10.0",1,3,"demographics","gender",0,0,0,0,0,0,"female",1,5464,0
"547",547,31519,"17:28:08",585508234,503333808,"4.0.10.0",1,2,"demographics","age",0,0,0,0,0,0,"23",1,2822,0
"548",548,31519,"17:28:08",585508234,503333808,"4.0.10.0",1,3,"demographics","gender",0,0,0,0,0,0,"Male",1,5769,0
"549",549,31519,"11:28:11",202938867,101590179,"4.0.10.0",1,2,"demographics","age",0,0,0,0,0,0,"55",1,3936,0
"550",550,31519,"11:28:11",202938867,101590179,"4.0.10.0",1,3,"demographics","gender",0,0,0,0,0,0,"female",1,8464,0
"551",551,31519,"17:28:30",654625582,383794676,"4.0.10.0",1,2,"demographics","age",0,0,0,0,0,0,"19",1,2838,0
"552",552,31519,"17:28:30",654625582,383794676,"4.0.10.0",1,3,"demographics","gender",0,0,0,0,0,0,"male",1,3294,0
"553",553,31519,"12:28:31",219034942,663590307,"4.0.10.0",1,2,"demographics","age",0,0,0,0,0,0,"30",1,2911,0
"554",554,31519,"12:28:31",219034942,663590307,"4.0.10.0",1,3,"demographics","gender",0,0,0,0,0,0,"female",1,3294,0
"555",555,31519,"10:28:53",111424331,773867391,"4.0.10.0",1,2,"demographics","age",0,0,0,0,0,0,"62",1,4551,0
"556",556,31519,"10:28:53",111424331,773867391,"4.0.10.0",1,3,"demographics","gender",0,0,0,0,0,0,"Male",1,5441,0
"557",557,31519,"17:28:55",696997997,328096299,"4.0.10.0",1,2,"demographics","age",0,0,0,0,0,0,"51",1,5026,0
"558",558,31519,"17:28:55",696997997,328096299,"4.0.10.0",1,3,"demographics","gender",0,0,0,0,0,0,"f",1,5133,0
"559",559,31519,"12:29:06",192261867,347375007,"4.0.10.0",1,2,"demographics","age",0,0,0,0,0,0,"35",1,5834,0
"560",560,31519,"12:29:06",192261867,347375007,"4.0.10.0",1,3,"demographics","gender",0,0,0,0,0,0,"Male",1,5194,0
"561",561,31519,"13:29:38",540587470,653157631,"4.0.10.0",1,2,"demographics","age",0,0,0,0,0,0,"19",1,3650,0
"562",562,31519,"13:29:38",540587470,653157631,"4.0.10.0",1,3,"demographics","gender",0,0,0,0,0,0,"male",1,3097,0
"563",563,31519,"17:29:10",728976341,580932903,"4.0.10.0",1,2,"demographics","age",0,0,0,0,0,0,"27",1,5630,0
"564",564,31519,"17:29:10",728976341,580932903,"4.0.10.0",1,3,"demographics","gender",0,0,0,0,0,0,"Female",1,4689,0
"565",565,31519,"17:30:24",665004254,81381063,"4.0.10.0",1,2,"demographics","age",0,0,0,0,0,0,"42",1,3284,0
"566",566,31519,"17:30:24",665004254,81381063,"4.0.10.0",1,3,"demographics","gender",0,0,0,0,0,0,"female",1,4213,0
"567",567,31519,"17:30:29",896394163,618053587,"4.0.10.0",1,2,"demographics","age",0,0,0,0,0,0,"55",1,2762,0
"568",568,31519,"17:30:29",896394163,618053587,"4.0.10.0",1,3,"demographics","gender",0,0,0,0,0,0,"male",1,5134,0
"569",569,31519,"17:30:24",507467759,580168797,"4.0.10.0",1,2,"demographics","age",0,0,0,0,0,0,"44",1,4504,0
"570",570,31519,"17:30:24",507467759,580168797,"4.0.10.0",1,3,"demographics","gender",0,0,0,0,0,0,"Male",1,4998,0
"571",571,31519,"11:30:26",656221751,270259321,"4.0.10.0",1,2,"demographics","age",0,0,0,0,0,0,"31",1,3957,0
"572",572,31519,"11:30:26",656221751,270259321,"4.0.10.0",1,3,"demographics","gender",0,0,0,0,0,0,"Male",1,3898,0
"573",573,31519,"13:30:21",670047412,284084985,"4.0.10.0",1,2,"demographics","age",0,0,0,0,0,0,"27",1,5743,0
"574",574,31519,"13:30:21",670047412,284084985,"4.0.10.0",1,3,"demographics","gender",0,0,0,0,0,0,"female",1,6403,0
"575",575,31519,"13:30:36",910015384,355994924,"4.0.10.0",1,2,"demographics","age",0,0,0,0,0,0,"27",1,2836,0
"576",576,31519,"13:30:36",910015384,355994924,"4.0.10.0",1,3,"demographics","gender",0,0,0,0,0,0,"female",1,3357,0
"577",577,31519,"17:30:28",286858907,60875287,"4.0.10.0",1,2,"demographics","age",0,0,0,0,0,0,"35",1,4483,0
"578",578,31519,"17:30:28",286858907,60875287,"4.0.10.0",1,3,"demographics","gender",0,0,0,0,0,0,"M",1,3988,0
"579",579,31519,"17:31:12",384738453,203399137,"4.0.10.0",1,2,"demographics","age",0,0,0,0,0,0,"32",1,1867,0
"580",580,31519,"17:31:12",384738453,203399137,"4.0.10.0",1,3,"demographics","gender",0,0,0,0,0,0,"m",1,2142,0
"581",581,31519,"17:30:45",372078770,101836780,"4.0.10.0",1,2,"demographics","age",0,0,0,0,0,0,"36",1,3408,0
"582",582,31519,"17:30:45",372078770,101836780,"4.0.10.0",1,3,"demographics","gender",0,0,0,0,0,0,"Male",1,4262,0
"583",583,31519,"17:31:15",552140922,497780199,"4.0.10.0",1,2,"demographics","age",0,0,0,0,0,0,"35",1,5166,0
"584",584,31519,"17:31:15",552140922,497780199,"4.0.10.0",1,3,"demographics","gender",0,0,0,0,0,0,"male",1,5938,0
"585",585,31519,"13:31:00",701037001,341393671,"4.0.10.0",1,2,"demographics","age",0,0,0,0,0,0,"46",1,3351,0
"586",586,31519,"13:31:00",701037001,341393671,"4.0.10.0",1,3,"demographics","gender",0,0,0,0,0,0,"female",1,4542,0
"587",587,31519,"17:31:21",911691832,633351257,"4.0.10.0",1,2,"demographics","age",0,0,0,0,0,0,"23",1,2920,0
"588",588,31519,"17:31:21",911691832,633351257,"4.0.10.0",1,3,"demographics","gender",0,0,0,0,0,0,"Male",1,4233,0
"589",589,31519,"11:31:41",682648620,570870348,"4.0.10.0",1,2,"demographics","age",0,0,0,0,0,0,"26",1,2658,0
"590",590,31519,"11:31:41",682648620,570870348,"4.0.10.0",1,3,"demographics","gender",0,0,0,0,0,0,"female",1,3625,0
"591",591,31519,"17:32:09",512110591,391771971,"4.0.10.0",1,2,"demographics","age",0,0,0,0,0,0,"22",1,3341,0
"592",592,31519,"17:32:09",512110591,391771971,"4.0.10.0",1,3,"demographics","gender",0,0,0,0,0,0,"female",1,3864,0
"593",593,31519,"17:32:19",941460844,852658454,"4.0.10.0",1,2,"demographics","age",0,0,0,0,0,0,"21",1,2612,0
"594",594,31519,"17:32:19",941460844,852658454,"4.0.10.0",1,3,"demographics","gender",0,0,0,0,0,0,"Male",1,5388,0
"595",595,31519,"17:32:41",548423410,61801502,"4.0.10.0",1,2,"demographics","age",0,0,0,0,0,0,"28",1,3510,0
"596",596,31519,"17:32:41",548423410,61801502,"4.0.10.0",1,3,"demographics","gender",0,0,0,0,0,0,"female",1,3841,0
"597",597,31519,"17:32:20",226880755,542530557,"4.0.10.0",1,2,"demographics","age",0,0,0,0,0,0,"21",1,3289,0
"598",598,31519,"17:32:20",226880755,542530557,"4.0.10.0",1,3,"demographics","gender",0,0,0,0,0,0,"female",1,5118,0
"599",599,31519,"17:31:34",59680576,878658015,"4.0.10.0",1,2,"demographics","age",0,0,0,0,0,0,"50",1,6540,0
"600",600,31519,"17:31:34",59680576,878658015,"4.0.10.0",1,3,"demographics","gender",0,0,0,0,0,0,"female",1,7216,0
"601",601,31619,"04:32:29",614203335,198618418,"4.0.10.0",1,2,"demographics","age",0,0,0,0,0,0,"40",1,3444,0
"602",602,31619,"04:32:29",614203335,198618418,"4.0.10.0",1,3,"demographics","gender",0,0,0,0,0,0,"Male",1,3506,0
"603",603,31519,"13:32:25",765404994,718021052,"4.0.10.0",1,2,"demographics","age",0,0,0,0,0,0,"29",1,2421,0
"604",604,31519,"13:32:25",765404994,718021052,"4.0.10.0",1,3,"demographics","gender",0,0,0,0,0,0,"female",1,3446,0
"605",605,31519,"17:32:40",66950940,651366022,"4.0.10.0",1,2,"demographics","age",0,0,0,0,0,0,"44",1,2702,0
"606",606,31519,"17:32:40",66950940,651366022,"4.0.10.0",1,3,"demographics","gender",0,0,0,0,0,0,"female",1,3945,0
"607",607,31519,"11:32:33",362753661,577757899,"4.0.10.0",1,2,"demographics","age",0,0,0,0,0,0,"33",1,3252,0
"608",608,31519,"11:32:33",362753661,577757899,"4.0.10.0",1,3,"demographics","gender",0,0,0,0,0,0,"male",1,3470,0
"609",609,31519,"17:32:39",210933593,489767949,"4.0.10.0",1,2,"demographics","age",0,0,0,0,0,0,"31",1,2531,0
"610",610,31519,"17:32:39",210933593,489767949,"4.0.10.0",1,3,"demographics","gender",0,0,0,0,0,0,"Male",1,6763,0
"611",611,31519,"17:33:04",965848423,304929990,"4.0.10.0",1,2,"demographics","age",0,0,0,0,0,0,"29",1,5333,0
"612",612,31519,"17:33:04",965848423,304929990,"4.0.10.0",1,3,"demographics","gender",0,0,0,0,0,0,"Female",1,3405,0
"613",613,31519,"17:33:38",546251243,498867305,"4.0.10.0",1,2,"demographics","age",0,0,0,0,0,0,"60",1,4301,0
"614",614,31519,"17:33:38",546251243,498867305,"4.0.10.0",1,3,"demographics","gender",0,0,0,0,0,0,"Female",1,9648,0
"615",615,31519,"17:33:47",954558376,157903390,"4.0.10.0",1,2,"demographics","age",0,0,0,0,0,0,"32",1,4151,0
"616",616,31519,"17:33:47",954558376,157903390,"4.0.10.0",1,3,"demographics","gender",0,0,0,0,0,0,"female",1,5837,0
"617",617,31519,"13:33:23",531267743,46229633,"4.0.10.0",1,2,"demographics","age",0,0,0,0,0,0,"24",1,21598,0
"618",618,31519,"13:33:23",531267743,46229633,"4.0.10.0",1,3,"demographics","gender",0,0,0,0,0,0,"Male",1,8205,0
"619",619,31519,"17:33:00",552867204,590813284,"4.0.10.0",1,2,"demographics","age",0,0,0,0,0,0,"52",1,3977,0
"620",620,31519,"17:33:00",552867204,590813284,"4.0.10.0",1,3,"demographics","gender",0,0,0,0,0,0,"Male",1,3161,0
"621",621,31519,"17:34:37",987283600,266416097,"4.0.10.0",1,2,"demographics","age",0,0,0,0,0,0,"40",1,3888,0
"622",622,31519,"17:34:37",987283600,266416097,"4.0.10.0",1,3,"demographics","gender",0,0,0,0,0,0,"male",1,4645,0
"623",623,31519,"17:34:26",728170069,350698819,"4.0.10.0",1,2,"demographics","age",0,0,0,0,0,0,"18",1,11932,0
"624",624,31519,"17:34:26",728170069,350698819,"4.0.10.0",1,3,"demographics","gender",0,0,0,0,0,0,"female",1,6151,0
"625",625,31519,"13:35:21",744259399,224764451,"4.0.10.0",1,2,"demographics","age",0,0,0,0,0,0,"39",1,4557,0
"626",626,31519,"13:35:21",744259399,224764451,"4.0.10.0",1,3,"demographics","gender",0,0,0,0,0,0,"female",1,2265,0
"627",627,31519,"13:36:13",531267743,46229633,"4.0.10.0",1,2,"demographics","age",0,0,0,0,0,0,"24",1,4203,0
"628",628,31519,"13:36:13",531267743,46229633,"4.0.10.0",1,3,"demographics","gender",0,0,0,0,0,0,"male",1,4222,0
"629",629,31519,"17:36:25",26510576,379969016,"4.0.10.0",1,2,"demographics","age",0,0,0,0,0,0,"46",1,2565,0
"630",630,31519,"17:36:25",26510576,379969016,"4.0.10.0",1,3,"demographics","gender",0,0,0,0,0,0,"female",1,5378,0
"631",631,31519,"17:36:18",900944043,244489507,"4.0.10.0",1,2,"demographics","age",0,0,0,0,0,0,"22",1,2750,0
"632",632,31519,"17:36:18",900944043,244489507,"4.0.10.0",1,3,"demographics","gender",0,0,0,0,0,0,"female",1,3742,0
"633",633,31519,"17:31:14",689558651,836810172,"4.0.10.0",1,2,"demographics","age",0,0,0,0,0,0,"42",1,20215,0
"634",634,31519,"17:31:14",689558651,836810172,"4.0.10.0",1,3,"demographics","gender",0,0,0,0,0,0,"female",1,18780,0
"635",635,31519,"13:35:43",983432213,21378310,"4.0.10.0",1,2,"demographics","age",0,0,0,0,0,0,"39",1,4308,0
"636",636,31519,"13:35:43",983432213,21378310,"4.0.10.0",1,3,"demographics","gender",0,0,0,0,0,0,"Male",1,6203,0
"637",637,31519,"12:37:16",774793866,724384632,"4.0.10.0",1,2,"demographics","age",0,0,0,0,0,0,"25",1,2303,0
"638",638,31519,"12:37:16",774793866,724384632,"4.0.10.0",1,3,"demographics","gender",0,0,0,0,0,0,"Male",1,2971,0
"639",639,31519,"17:36:55",870543236,213984031,"4.0.10.0",1,2,"demographics","age",0,0,0,0,0,0,"21",1,3472,0
"640",640,31519,"17:36:55",870543236,213984031,"4.0.10.0",1,3,"demographics","gender",0,0,0,0,0,0,"male",1,3825,0
"641",641,31519,"17:37:57",85399830,13788805,"4.0.10.0",1,2,"demographics","age",0,0,0,0,0,0,"51",1,3827,0
"642",642,31519,"17:37:57",85399830,13788805,"4.0.10.0",1,3,"demographics","gender",0,0,0,0,0,0,"f",1,3642,0
"643",643,31519,"17:38:48",675073864,747774911,"4.0.10.0",1,2,"demographics","age",0,0,0,0,0,0,"46",1,5599,0
"644",644,31519,"17:38:48",675073864,747774911,"4.0.10.0",1,3,"demographics","gender",0,0,0,0,0,0,"Male",1,6288,0
"645",645,31519,"10:38:56",971892766,254304666,"4.0.10.0",1,2,"demographics","age",0,0,0,0,0,0,"38",1,2967,0
"646",646,31519,"10:38:56",971892766,254304666,"4.0.10.0",1,3,"demographics","gender",0,0,0,0,0,0,"female ",1,6770,0
"647",647,31519,"13:40:43",784948424,580386458,"4.0.10.0",1,2,"demographics","age",0,0,0,0,0,0,"25",1,2249,0
"648",648,31519,"13:40:43",784948424,580386458,"4.0.10.0",1,3,"demographics","gender",0,0,0,0,0,0,"Female",1,4190,0
"649",649,31519,"17:41:32",327438921,240483984,"4.0.10.0",1,2,"demographics","age",0,0,0,0,0,0,"18",1,3804,0
"650",650,31519,"17:41:32",327438921,240483984,"4.0.10.0",1,3,"demographics","gender",0,0,0,0,0,0,"female",1,3231,0
"651",651,31519,"17:41:54",786798696,980601162,"4.0.10.0",1,2,"demographics","age",0,0,0,0,0,0,"57",1,9455,0
"652",652,31519,"17:41:54",786798696,980601162,"4.0.10.0",1,3,"demographics","gender",0,0,0,0,0,0,"female",1,4316,0
"653",653,31519,"17:36:47",5943796,742682526,"4.0.10.0",1,2,"demographics","age",0,0,0,0,0,0,"30",1,4749,0
"654",654,31519,"17:36:47",5943796,742682526,"4.0.10.0",1,3,"demographics","gender",0,0,0,0,0,0,"female",1,5780,0
"655",655,31519,"17:46:46",64843093,101239836,"4.0.10.0",1,2,"demographics","age",0,0,0,0,0,0,"36",1,4386,0
"656",656,31519,"17:46:46",64843093,101239836,"4.0.10.0",1,3,"demographics","gender",0,0,0,0,0,0,"female",1,4836,0
"657",657,31519,"18:01:36",240912915,825327997,"4.0.10.0",1,2,"demographics","age",0,0,0,0,0,0,"24",1,3541,0
"658",658,31519,"18:01:36",240912915,825327997,"4.0.10.0",1,3,"demographics","gender",0,0,0,0,0,0,"Male",1,3950,0
"659",659,31519,"18:01:48",119748835,777312037,"4.0.10.0",1,2,"demographics","age",0,0,0,0,0,0,"33",1,2998,0
"660",660,31519,"18:01:48",119748835,777312037,"4.0.10.0",1,3,"demographics","gender",0,0,0,0,0,0,"Female",1,7490,0
"661",661,31519,"18:01:58",42321649,785761984,"4.0.10.0",1,2,"demographics","age",0,0,0,0,0,0,"26",1,4204,0
"662",662,31519,"18:01:58",42321649,785761984,"4.0.10.0",1,3,"demographics","gender",0,0,0,0,0,0,"male",1,2796,0
"663",663,31519,"18:01:14",104227570,761790772,"4.0.10.0",1,2,"demographics","age",0,0,0,0,0,0,"23",1,2751,0
"664",664,31519,"18:01:14",104227570,761790772,"4.0.10.0",1,3,"demographics","gender",0,0,0,0,0,0,"female",1,5029,0
"665",665,31519,"18:07:41",423248143,565402374,"4.0.10.0",1,2,"demographics","age",0,0,0,0,0,0,"41",1,3504,0
"666",666,31519,"18:07:41",423248143,565402374,"4.0.10.0",1,3,"demographics","gender",0,0,0,0,0,0,"female",1,5639,0
"667",667,31519,"18:02:20",107009661,59625716,"4.0.10.0",1,2,"demographics","age",0,0,0,0,0,0,"18",1,16510,0
"668",668,31519,"18:02:20",107009661,59625716,"4.0.10.0",1,3,"demographics","gender",0,0,0,0,0,0,"Female",1,3923,0
"669",669,31519,"12:04:23",837716041,589257682,"4.0.10.0",1,2,"demographics","age",0,0,0,0,0,0,"34",1,3062,0
"670",670,31519,"12:04:23",837716041,589257682,"4.0.10.0",1,3,"demographics","gender",0,0,0,0,0,0,"female",1,6821,0
"671",671,31519,"14:05:27",97800966,149002102,"4.0.10.0",1,2,"demographics","age",0,0,0,0,0,0,"63",1,4814,0
"672",672,31519,"14:05:27",97800966,149002102,"4.0.10.0",1,3,"demographics","gender",0,0,0,0,0,0,"female",1,6515,0
"673",673,31519,"18:06:18",232362888,182270409,"4.0.10.0",1,2,"demographics","age",0,0,0,0,0,0,"39",1,5933,0
"674",674,31519,"18:06:18",232362888,182270409,"4.0.10.0",1,3,"demographics","gender",0,0,0,0,0,0,"male",1,4502,0
"675",675,31519,"18:06:31",925819995,372079030,"4.0.10.0",1,2,"demographics","age",0,0,0,0,0,0,"38",1,5464,0
"676",676,31519,"18:06:31",925819995,372079030,"4.0.10.0",1,3,"demographics","gender",0,0,0,0,0,0,"Female",1,4778,0
"677",677,31519,"19:07:54",306285641,256370170,"4.0.10.0",1,2,"demographics","age",0,0,0,0,0,0,"20",1,3042,0
"678",678,31519,"19:07:54",306285641,256370170,"4.0.10.0",1,3,"demographics","gender",0,0,0,0,0,0,"female",1,2731,0
"679",679,31519,"19:08:45",915688104,134015798,"4.0.10.0",1,2,"demographics","age",0,0,0,0,0,0,"37",1,3559,0
"680",680,31519,"19:08:45",915688104,134015798,"4.0.10.0",1,3,"demographics","gender",0,0,0,0,0,0,"Female",1,5430,0
"681",681,31519,"19:16:44",915688104,134015798,"4.0.10.0",1,2,"demographics","age",0,0,0,0,0,0,"37 ",1,4081,0
"682",682,31519,"19:16:44",915688104,134015798,"4.0.10.0",1,3,"demographics","gender",0,0,0,0,0,0,"Female",1,4043,0
"683",683,31519,"15:17:32",759011495,136995162,"4.0.10.0",1,2,"demographics","age",0,0,0,0,0,0,"39",1,6611,0
"684",684,31519,"15:17:32",759011495,136995162,"4.0.10.0",1,3,"demographics","gender",0,0,0,0,0,0,"male",1,4451,0
"685",685,31519,"12:43:28",662178687,550698544,"4.0.10.0",1,2,"demographics","age",0,0,0,0,0,0,"49",1,2432,0
"686",686,31519,"12:43:28",662178687,550698544,"4.0.10.0",1,3,"demographics","gender",0,0,0,0,0,0,"female",1,4790,0
"687",687,31519,"15:43:31",95831787,133777865,"4.0.10.0",1,2,"demographics","age",0,0,0,0,0,0,"54",1,4680,0
"688",688,31519,"15:43:31",95831787,133777865,"4.0.10.0",1,3,"demographics","gender",0,0,0,0,0,0,"male",1,5884,0
"689",689,31519,"19:44:13",787278473,444841700,"4.0.10.0",1,2,"demographics","age",0,0,0,0,0,0,"36",1,4057,0
"690",690,31519,"19:44:13",787278473,444841700,"4.0.10.0",1,3,"demographics","gender",0,0,0,0,0,0,"female",1,6601,0
"691",691,31519,"19:44:32",774005821,873934556,"4.0.10.0",1,2,"demographics","age",0,0,0,0,0,0,"48",1,5238,0
"692",692,31519,"19:44:32",774005821,873934556,"4.0.10.0",1,3,"demographics","gender",0,0,0,0,0,0,"male",1,12608,0
"693",693,31519,"12:44:32",164076630,558953516,"4.0.10.0",1,2,"demographics","age",0,0,0,0,0,0,"21",1,2439,0
"694",694,31519,"12:44:32",164076630,558953516,"4.0.10.0",1,3,"demographics","gender",0,0,0,0,0,0,"female",1,3102,0
"695",695,31519,"15:45:00",105078241,362590961,"4.0.10.0",1,2,"demographics","age",0,0,0,0,0,0,"27",1,3465,0
"696",696,31519,"15:45:00",105078241,362590961,"4.0.10.0",1,3,"demographics","gender",0,0,0,0,0,0,"Female",1,4926,0
"697",697,31519,"12:45:33",454851200,343371048,"4.0.10.0",1,2,"demographics","age",0,0,0,0,0,0,"26",1,3169,0
"698",698,31519,"12:45:33",454851200,343371048,"4.0.10.0",1,3,"demographics","gender",0,0,0,0,0,0,"Male",1,3324,0
"699",699,31519,"19:45:51",521059819,409579681,"4.0.10.0",1,2,"demographics","age",0,0,0,0,0,0,"44",1,3533,0
"700",700,31519,"19:45:51",521059819,409579681,"4.0.10.0",1,3,"demographics","gender",0,0,0,0,0,0,"Female",1,5156,0
"701",701,31519,"19:46:43",814467725,904062037,"4.0.10.0",1,2,"demographics","age",0,0,0,0,0,0,"52",1,4550,0
"702",702,31519,"19:46:43",814467725,904062037,"4.0.10.0",1,3,"demographics","gender",0,0,0,0,0,0,"male",1,5768,0
"703",703,31519,"19:45:35",840380553,591922197,"4.0.10.0",1,2,"demographics","age",0,0,0,0,0,0,"37",1,4124,0
"704",704,31519,"19:45:35",840380553,591922197,"4.0.10.0",1,3,"demographics","gender",0,0,0,0,0,0,"female",1,6775,0
"705",705,31519,"19:46:07",424950968,618473921,"4.0.10.0",1,2,"demographics","age",0,0,0,0,0,0,"24",1,2290,0
"706",706,31519,"19:46:07",424950968,618473921,"4.0.10.0",1,3,"demographics","gender",0,0,0,0,0,0,"Female",1,2747,0
"707",707,31619,"03:42:20",994462661,124435026,"4.0.10.0",1,2,"demographics","age",0,0,0,0,0,0,"32",1,3367,0
"708",708,31619,"03:42:20",994462661,124435026,"4.0.10.0",1,3,"demographics","gender",0,0,0,0,0,0,"male",1,6310,0
"709",709,31519,"15:47:18",496397243,891572260,"4.0.10.0",1,2,"demographics","age",0,0,0,0,0,0,"34",1,3410,0
"710",710,31519,"15:47:18",496397243,891572260,"4.0.10.0",1,3,"demographics","gender",0,0,0,0,0,0,"male",1,4578,0
"711",711,31519,"12:47:15",780127165,870019599,"4.0.10.0",1,2,"demographics","age",0,0,0,0,0,0,"38",1,4590,0
"712",712,31519,"12:47:15",780127165,870019599,"4.0.10.0",1,3,"demographics","gender",0,0,0,0,0,0,"Male",1,4475,0
"713",713,31619,"05:47:29",329040869,28516307,"4.0.10.0",1,2,"demographics","age",0,0,0,0,0,0,"51",1,5388,0
"714",714,31619,"05:47:29",329040869,28516307,"4.0.10.0",1,3,"demographics","gender",0,0,0,0,0,0,"Male",1,4343,0
"715",715,31519,"15:47:30",420320700,798304334,"4.0.10.0",1,2,"demographics","age",0,0,0,0,0,0,"24",1,3942,0
"716",716,31519,"15:47:30",420320700,798304334,"4.0.10.0",1,3,"demographics","gender",0,0,0,0,0,0,"Male",1,3047,0
"717",717,31519,"12:47:52",822673557,617319702,"4.0.10.0",1,2,"demographics","age",0,0,0,0,0,0,"25",1,2668,0
"718",718,31519,"12:47:52",822673557,617319702,"4.0.10.0",1,3,"demographics","gender",0,0,0,0,0,0,"Male",1,4647,0
"719",719,31519,"19:48:17",572298734,156713829,"4.0.10.0",1,2,"demographics","age",0,0,0,0,0,0,"47",1,2654,0
"720",720,31519,"19:48:17",572298734,156713829,"4.0.10.0",1,3,"demographics","gender",0,0,0,0,0,0,"Male",1,3652,0
"721",721,31519,"19:48:11",843052694,898699104,"4.0.10.0",1,2,"demographics","age",0,0,0,0,0,0,"21",1,2439,0
"722",722,31519,"19:48:11",843052694,898699104,"4.0.10.0",1,3,"demographics","gender",0,0,0,0,0,0,"male",1,3479,0
"723",723,31519,"19:48:23",109271819,324574186,"4.0.10.0",1,2,"demographics","age",0,0,0,0,0,0,"21",1,1780,0
"724",724,31519,"19:48:23",109271819,324574186,"4.0.10.0",1,3,"demographics","gender",0,0,0,0,0,0,"Male",1,2531,0
"725",725,31519,"19:47:51",322886394,769145415,"4.0.10.0",1,2,"demographics","age",0,0,0,0,0,0,"34",1,3585,0
"726",726,31519,"19:47:51",322886394,769145415,"4.0.10.0",1,3,"demographics","gender",0,0,0,0,0,0,"Male",1,5459,0
"727",727,31519,"19:47:47",424950968,618473921,"4.0.10.0",1,2,"demographics","age",0,0,0,0,0,0,"24",1,2763,0
"728",728,31519,"19:47:47",424950968,618473921,"4.0.10.0",1,3,"demographics","gender",0,0,0,0,0,0,"Female",1,2796,0
"729",729,31519,"15:48:25",540759667,351047144,"4.0.10.0",1,2,"demographics","age",0,0,0,0,0,0,"24",1,4003,0
"730",730,31519,"15:48:25",540759667,351047144,"4.0.10.0",1,3,"demographics","gender",0,0,0,0,0,0,"Male",1,3376,0
"731",731,31519,"15:48:18",325776935,352333029,"4.0.10.0",1,2,"demographics","age",0,0,0,0,0,0,"37",1,2960,0
"732",732,31519,"15:48:18",325776935,352333029,"4.0.10.0",1,3,"demographics","gender",0,0,0,0,0,0,"male",1,4272,0
"733",733,31519,"19:48:41",680845432,179050802,"4.0.10.0",1,2,"demographics","age",0,0,0,0,0,0,"43",1,3605,0
"734",734,31519,"19:48:41",680845432,179050802,"4.0.10.0",1,3,"demographics","gender",0,0,0,0,0,0,"male",1,4267,0
"735",735,31519,"19:48:17",234762449,819177542,"4.0.10.0",1,2,"demographics","age",0,0,0,0,0,0,"50",1,3835,0
"736",736,31519,"19:48:17",234762449,819177542,"4.0.10.0",1,3,"demographics","gender",0,0,0,0,0,0,"male",1,6381,0
"737",737,31519,"15:48:34",977141592,939987414,"4.0.10.0",1,2,"demographics","age",0,0,0,0,0,0,"62",1,4556,0
"738",738,31519,"15:48:34",977141592,939987414,"4.0.10.0",1,3,"demographics","gender",0,0,0,0,0,0,"Male",1,5689,0
"739",739,31519,"19:48:40",538832733,702752991,"4.0.10.0",1,2,"demographics","age",0,0,0,0,0,0,"27",1,3616,0
"740",740,31519,"19:48:40",538832733,702752991,"4.0.10.0",1,3,"demographics","gender",0,0,0,0,0,0,"male",1,4520,0
"741",741,31519,"19:49:03",623153525,674354661,"4.0.10.0",1,2,"demographics","age",0,0,0,0,0,0,"36",1,3492,0
"742",742,31519,"19:49:03",623153525,674354661,"4.0.10.0",1,3,"demographics","gender",0,0,0,0,0,0,"female",1,4588,0
"743",743,31519,"19:48:56",177913263,762328347,"4.0.10.0",1,2,"demographics","age",0,0,0,0,0,0,"31",1,2968,0
"744",744,31519,"19:48:56",177913263,762328347,"4.0.10.0",1,3,"demographics","gender",0,0,0,0,0,0,"Male",1,4506,0
"745",745,31519,"19:50:37",649652296,170237285,"4.0.10.0",1,2,"demographics","age",0,0,0,0,0,0,"45",1,5330,0
"746",746,31519,"19:50:37",649652296,170237285,"4.0.10.0",1,3,"demographics","gender",0,0,0,0,0,0,"Male",1,5432,0
"747",747,31519,"15:47:42",860733810,685423578,"4.0.10.0",1,2,"demographics","age",0,0,0,0,0,0,"30",1,5639,0
"748",748,31519,"15:47:42",860733810,685423578,"4.0.10.0",1,3,"demographics","gender",0,0,0,0,0,0,"Female",1,5120,0
"749",749,31519,"12:49:12",832008904,652253420,"4.0.10.0",1,2,"demographics","age",0,0,0,0,0,0,"30",1,3525,0
"750",750,31519,"12:49:12",832008904,652253420,"4.0.10.0",1,3,"demographics","gender",0,0,0,0,0,0,"Female",1,6309,0
"751",751,31519,"15:49:20",977141592,939987414,"4.0.10.0",1,2,"demographics","age",0,0,0,0,0,0,"62",1,4191,0
"752",752,31519,"15:49:20",977141592,939987414,"4.0.10.0",1,3,"demographics","gender",0,0,0,0,0,0,"Male",1,5340,0
"753",753,31519,"15:48:54",406390765,685225112,"4.0.10.0",1,2,"demographics","age",0,0,0,0,0,0,"25",1,3878,0
"754",754,31519,"15:48:54",406390765,685225112,"4.0.10.0",1,3,"demographics","gender",0,0,0,0,0,0,"female",1,4468,0
"755",755,31519,"12:49:01",634011131,913143616,"4.0.10.0",1,2,"demographics","age",0,0,0,0,0,0,"20",1,5668,0
"756",756,31519,"12:49:01",634011131,913143616,"4.0.10.0",1,3,"demographics","gender",0,0,0,0,0,0,"Male",1,4849,0
"757",757,31519,"19:49:36",738334523,942896505,"4.0.10.0",1,2,"demographics","age",0,0,0,0,0,0,"20",1,3288,0
"758",758,31519,"19:49:36",738334523,942896505,"4.0.10.0",1,3,"demographics","gender",0,0,0,0,0,0,"Male",1,2993,0
"759",759,31519,"19:49:21",454855125,39270211,"4.0.10.0",1,2,"demographics","age",0,0,0,0,0,0,"52",1,6471,0
"760",760,31519,"19:49:21",454855125,39270211,"4.0.10.0",1,3,"demographics","gender",0,0,0,0,0,0,"male",1,5861,0
"761",761,31519,"13:49:35",687236544,185143784,"4.0.10.0",1,2,"demographics","age",0,0,0,0,0,0,"26",1,3279,0
"762",762,31519,"13:49:35",687236544,185143784,"4.0.10.0",1,3,"demographics","gender",0,0,0,0,0,0,"Female",1,4698,0
"763",763,31519,"19:49:41",53495673,76153849,"4.0.10.0",1,2,"demographics","age",0,0,0,0,0,0,"18",1,2399,0
"764",764,31519,"19:49:41",53495673,76153849,"4.0.10.0",1,3,"demographics","gender",0,0,0,0,0,0,"Male",1,2567,0
"765",765,31519,"12:49:08",932500842,895346667,"4.0.10.0",1,2,"demographics","age",0,0,0,0,0,0,"29",1,6517,0
"766",766,31519,"12:49:08",932500842,895346667,"4.0.10.0",1,3,"demographics","gender",0,0,0,0,0,0,"Male",1,4616,0
"767",767,31519,"19:49:46",543789105,707709361,"4.0.10.0",1,2,"demographics","age",0,0,0,0,0,0,"30",1,4837,0
"768",768,31519,"19:49:46",543789105,707709361,"4.0.10.0",1,3,"demographics","gender",0,0,0,0,0,0,"Male",1,4681,0
"769",769,31519,"15:49:54",901994807,559558041,"4.0.10.0",1,2,"demographics","age",0,0,0,0,0,0,"20",1,2640,0
"770",770,31519,"15:49:54",901994807,559558041,"4.0.10.0",1,3,"demographics","gender",0,0,0,0,0,0,"Male",1,3498,0
"771",771,31519,"19:49:55",561230746,145645844,"4.0.10.0",1,2,"demographics","age",0,0,0,0,0,0,"19",1,2499,0
"772",772,31519,"19:49:55",561230746,145645844,"4.0.10.0",1,3,"demographics","gender",0,0,0,0,0,0,"female",1,4314,0
"773",773,31519,"19:49:59",161385820,745800901,"4.0.10.0",1,2,"demographics","age",0,0,0,0,0,0,"28",1,3023,0
"774",774,31519,"19:49:59",161385820,745800901,"4.0.10.0",1,3,"demographics","gender",0,0,0,0,0,0,"male",1,4357,0
"775",775,31519,"19:49:55",879789734,539439858,"4.0.10.0",1,2,"demographics","age",0,0,0,0,0,0,"32",1,2140,0
"776",776,31519,"19:49:55",879789734,539439858,"4.0.10.0",1,3,"demographics","gender",0,0,0,0,0,0,"Male",1,3522,0
"777",777,31519,"15:50:23",52161804,14728127,"4.0.10.0",1,2,"demographics","age",0,0,0,0,0,0,"29",1,5752,0
"778",778,31519,"15:50:23",52161804,14728127,"4.0.10.0",1,3,"demographics","gender",0,0,0,0,0,0,"Female",1,6428,0
"779",779,31519,"15:50:38",648805392,675361479,"4.0.10.0",1,2,"demographics","age",0,0,0,0,0,0,"36",1,2487,0
"780",780,31519,"15:50:38",648805392,675361479,"4.0.10.0",1,3,"demographics","gender",0,0,0,0,0,0,"male",1,3127,0
"781",781,31519,"19:50:25",190448430,302720478,"4.0.10.0",1,2,"demographics","age",0,0,0,0,0,0,"25",1,3198,0
"782",782,31519,"19:50:25",190448430,302720478,"4.0.10.0",1,3,"demographics","gender",0,0,0,0,0,0,"male",1,4194,0
"783",783,31519,"12:50:33",531978275,835934101,"4.0.10.0",1,2,"demographics","age",0,0,0,0,0,0,"32",1,3764,0
"784",784,31519,"12:50:33",531978275,835934101,"4.0.10.0",1,3,"demographics","gender",0,0,0,0,0,0,"Male",1,4986,0
"785",785,31519,"15:50:34",549704633,512550463,"4.0.10.0",1,2,"demographics","age",0,0,0,0,0,0,"21",1,2354,0
"786",786,31519,"15:50:34",549704633,512550463,"4.0.10.0",1,3,"demographics","gender",0,0,0,0,0,0,"male ",1,5602,0
"787",787,31519,"19:50:58",61581623,88137704,"4.0.10.0",1,2,"demographics","age",0,0,0,0,0,0,"50",1,4130,0
"788",788,31519,"19:50:58",61581623,88137704,"4.0.10.0",1,3,"demographics","gender",0,0,0,0,0,0,"FEMALE",1,7171,0
"789",789,31519,"14:50:49",904558148,299435067,"4.0.10.0",1,2,"demographics","age",0,0,0,0,0,0,"61",1,5309,0
"790",790,31519,"14:50:49",904558148,299435067,"4.0.10.0",1,3,"demographics","gender",0,0,0,0,0,0,"Male",1,8626,0
"791",791,31519,"19:50:47",582457659,80364900,"4.0.10.0",1,2,"demographics","age",0,0,0,0,0,0,"50",1,4753,0
"792",792,31519,"19:50:47",582457659,80364900,"4.0.10.0",1,3,"demographics","gender",0,0,0,0,0,0,"female",1,11121,0
"793",793,31519,"15:51:36",568739833,153154931,"4.0.10.0",1,2,"demographics","age",0,0,0,0,0,0,"34",1,2575,0
"794",794,31519,"15:51:36",568739833,153154931,"4.0.10.0",1,3,"demographics","gender",0,0,0,0,0,0,"f",1,3751,0
"795",795,31519,"15:51:12",253739445,700296587,"4.0.10.0",1,2,"demographics","age",0,0,0,0,0,0,"56",1,25378,0
"796",796,31519,"15:51:12",253739445,700296587,"4.0.10.0",1,3,"demographics","gender",0,0,0,0,0,0,"female",1,7004,0
"797",797,31519,"19:51:30",718495055,839923697,"4.0.10.0",1,2,"demographics","age",0,0,0,0,0,0,"28",1,2761,0
"798",798,31519,"19:51:30",718495055,839923697,"4.0.10.0",1,3,"demographics","gender",0,0,0,0,0,0,"Male",1,4112,0
"799",799,31519,"19:51:52",442974990,405820804,"4.0.10.0",1,2,"demographics","age",0,0,0,0,0,0,"45",1,3252,0
"800",800,31519,"19:51:52",442974990,405820804,"4.0.10.0",1,3,"demographics","gender",0,0,0,0,0,0,"female",1,5045,0
"801",801,31519,"12:52:07",218522405,918295972,"4.0.10.0",1,2,"demographics","age",0,0,0,0,0,0,"24",1,1689,0
"802",802,31519,"12:52:07",218522405,918295972,"4.0.10.0",1,3,"demographics","gender",0,0,0,0,0,0,"Male",1,3653,0
"803",803,31519,"12:52:02",350245192,50018756,"4.0.10.0",1,2,"demographics","age",0,0,0,0,0,0,"24",1,5873,0
"804",804,31519,"12:52:02",350245192,50018756,"4.0.10.0",1,3,"demographics","gender",0,0,0,0,0,0,"female",1,5545,0
"805",805,31519,"15:45:12",530953925,419194294,"4.0.10.0",1,2,"demographics","age",0,0,0,0,0,0,"35",1,2844,0
"806",806,31519,"15:45:12",530953925,419194294,"4.0.10.0",1,3,"demographics","gender",0,0,0,0,0,0,"male",1,8801,0
"807",807,31519,"19:50:02",541884428,263543853,"4.0.10.0",1,2,"demographics","age",0,0,0,0,0,0,"25",1,3258,0
"808",808,31519,"19:50:02",541884428,263543853,"4.0.10.0",1,3,"demographics","gender",0,0,0,0,0,0,"Male",1,6060,0
"809",809,31519,"15:50:39",532949851,336456457,"4.0.10.0",1,2,"demographics","age",0,0,0,0,0,0,"30",1,3879,0
"810",810,31519,"15:50:39",532949851,336456457,"4.0.10.0",1,3,"demographics","gender",0,0,0,0,0,0,"female",1,5563,0
"811",811,31519,"19:52:50",904902944,816100564,"4.0.10.0",1,2,"demographics","age",0,0,0,0,0,0,"29",1,2569,0
"812",812,31519,"19:52:50",904902944,816100564,"4.0.10.0",1,3,"demographics","gender",0,0,0,0,0,0,"Female",1,5000,0
"813",813,31519,"12:53:21",323711621,211933365,"4.0.10.0",1,2,"demographics","age",0,0,0,0,0,0,"30",1,3559,0
"814",814,31519,"12:53:21",323711621,211933365,"4.0.10.0",1,3,"demographics","gender",0,0,0,0,0,0,"Female",1,4726,0
"815",815,31519,"19:53:39",8858779,971704584,"4.0.10.0",1,2,"demographics","age",0,0,0,0,0,0,"47",1,8838,0
"816",816,31519,"19:53:39",8858779,971704584,"4.0.10.0",1,3,"demographics","gender",0,0,0,0,0,0,"female",1,6662,0
"817",817,31519,"12:52:11",512033946,84530807,"4.0.10.0",1,2,"demographics","age",0,0,0,0,0,0,"39",1,5294,0
"818",818,31519,"12:52:11",512033946,84530807,"4.0.10.0",1,3,"demographics","gender",0,0,0,0,0,0,"male",1,7143,0
"819",819,31519,"19:54:19",890150279,641691918,"4.0.10.0",1,2,"demographics","age",0,0,0,0,0,0,"23",1,3785,0
"820",820,31519,"19:54:19",890150279,641691918,"4.0.10.0",1,3,"demographics","gender",0,0,0,0,0,0,"male",1,5115,0
"821",821,31519,"19:54:35",439261948,327781808,"4.0.10.0",1,2,"demographics","age",0,0,0,0,0,0,"31",1,3920,0
"822",822,31519,"19:54:35",439261948,327781808,"4.0.10.0",1,3,"demographics","gender",0,0,0,0,0,0,"Female",1,4499,0
"823",823,31519,"13:54:37",131386738,723869894,"4.0.10.0",1,2,"demographics","age",0,0,0,0,0,0,"40",1,3824,0
"824",824,31519,"13:54:37",131386738,723869894,"4.0.10.0",1,3,"demographics","gender",0,0,0,0,0,0,"male",1,5684,0
"825",825,31519,"14:54:37",452227874,35152324,"4.0.10.0",1,2,"demographics","age",0,0,0,0,0,0,"50",1,3524,0
"826",826,31519,"14:54:37",452227874,35152324,"4.0.10.0",1,3,"demographics","gender",0,0,0,0,0,0,"female",1,3604,0
"827",827,31519,"19:55:41",245939926,134459794,"4.0.10.0",1,2,"demographics","age",0,0,0,0,0,0,"47",1,13898,0
"828",828,31519,"19:55:41",245939926,134459794,"4.0.10.0",1,3,"demographics","gender",0,0,0,0,0,0,"female",1,6454,0
"829",829,31519,"19:55:36",510094153,389457417,"4.0.10.0",1,2,"demographics","age",0,0,0,0,0,0,"39",1,13144,0
"830",830,31519,"19:55:36",510094153,389457417,"4.0.10.0",1,3,"demographics","gender",0,0,0,0,0,0,"male",1,11752,0
"831",831,31519,"19:57:25",249947365,834362450,"4.0.10.0",1,2,"demographics","age",0,0,0,0,0,0,"30",1,7596,0
"832",832,31519,"19:57:25",249947365,834362450,"4.0.10.0",1,3,"demographics","gender",0,0,0,0,0,0,"female",1,8190,0
"833",833,31519,"19:57:40",324405604,631499240,"4.0.10.0",1,2,"demographics","age",0,0,0,0,0,0,"24",1,6877,0
"834",834,31519,"19:57:40",324405604,631499240,"4.0.10.0",1,3,"demographics","gender",0,0,0,0,0,0,"male",1,3503,0
"835",835,31519,"20:00:46",594820588,864516972,"4.0.10.0",1,2,"demographics","age",0,0,0,0,0,0,"49",1,2976,0
"836",836,31519,"20:00:46",594820588,864516972,"4.0.10.0",1,3,"demographics","gender",0,0,0,0,0,0,"male",1,4267,0
"837",837,31519,"13:15:56",672868018,268732042,"4.0.10.0",1,2,"demographics","age",0,0,0,0,0,0,"25",1,3239,0
"838",838,31519,"13:15:56",672868018,268732042,"4.0.10.0",1,3,"demographics","gender",0,0,0,0,0,0,"female",1,2927,0
"839",839,31519,"16:18:21",189162402,410769485,"4.0.10.0",1,2,"demographics","age",0,0,0,0,0,0,"20",1,2233,0
"840",840,31519,"16:18:21",189162402,410769485,"4.0.10.0",1,3,"demographics","gender",0,0,0,0,0,0,"Female",1,3941,0
"841",841,31519,"13:22:52",623075860,838378230,"4.0.10.0",1,2,"demographics","age",0,0,0,0,0,0,"30",1,4672,0
"842",842,31519,"13:22:52",623075860,838378230,"4.0.10.0",1,3,"demographics","gender",0,0,0,0,0,0,"Female",1,5122,0
"843",843,31519,"20:31:47",403994109,61259196,"4.0.10.0",1,2,"demographics","age",0,0,0,0,0,0,"43",1,4918,0
"844",844,31519,"20:31:47",403994109,61259196,"4.0.10.0",1,3,"demographics","gender",0,0,0,0,0,0,"Male",1,6944,0
"845",845,31519,"20:33:20",994651329,273783824,"4.0.10.0",1,2,"demographics","age",0,0,0,0,0,0,"37",1,3485,0
"846",846,31519,"20:33:20",994651329,273783824,"4.0.10.0",1,3,"demographics","gender",0,0,0,0,0,0,"female",1,5385,0
"847",847,31519,"16:34:04",707892369,670738183,"4.0.10.0",1,2,"demographics","age",0,0,0,0,0,0,"44",1,7546,0
"848",848,31519,"16:34:04",707892369,670738183,"4.0.10.0",1,3,"demographics","gender",0,0,0,0,0,0,"female",1,5164,0
"849",849,31519,"21:18:49",504201837,847325847,"4.0.10.0",1,2,"demographics","age",0,0,0,0,0,0,"39",1,4187,0
"850",850,31519,"21:18:49",504201837,847325847,"4.0.10.0",1,3,"demographics","gender",0,0,0,0,0,0,"Female",1,7440,0
