"date","time","group","subject","build","blocknum","trialnum","blockcode","trialcode","pretrialpause","posttrialpause","windowcenter","trialduration","trialtimeout","blocktimeout","response","correct","latency","inwindow"
"031419","15:51:47","464455574","898951393","4.0.10.0","1","1","demographics","ProlificCode","0","0","0","0","0","0","dwqdqwe","1","1856","0"
"031419","15:51:47","464455574","898951393","4.0.10.0","1","2","demographics","age","0","0","0","0","0","0","efe","1","2049","0"
"031419","15:51:47","464455574","898951393","4.0.10.0","1","3","demographics","gender","0","0","0","0","0","0","fefe","1","1199","0"
"031519","12:16:41","502381355","512611727","4.0.10.0","1","1","demographics","ProlificCode","0","0","0","0","0","0","5bdcb3f9a2016000011c94f6","1","6371","0"
"031519","12:16:41","502381355","512611727","4.0.10.0","1","2","demographics","age","0","0","0","0","0","0","19","1","4290","0"
"031519","12:16:41","502381355","512611727","4.0.10.0","1","3","demographics","gender","0","0","0","0","0","0","Male","1","4366","0"
"031519","23:27:06","127219859","144535166","4.0.10.0","1","1","demographics","ProlificCode","0","0","0","0","0","0","5c429af0848dbb000157feac","1","13626","0"
"031519","23:27:06","127219859","144535166","4.0.10.0","1","2","demographics","age","0","0","0","0","0","0","31","1","2887","0"
"031519","23:27:06","127219859","144535166","4.0.10.0","1","3","demographics","gender","0","0","0","0","0","0","Male","1","5711","0"
"031519","12:35:18","600910811","924884559","4.0.10.0","1","1","demographics","ProlificCode","0","0","0","0","0","0","ada169a00001639ac96","1","56420","0"
"031519","12:35:18","600910811","924884559","4.0.10.0","1","2","demographics","age","0","0","0","0","0","0","38","1","4285","0"
"031519","12:35:18","600910811","924884559","4.0.10.0","1","3","demographics","gender","0","0","0","0","0","0","female","1","6134","0"
"031519","12:44:43","807491352","438458371","4.0.10.0","1","1","demographics","ProlificCode","0","0","0","0","0","0","59ef24e07f3d71000171e38d","1","9873","0"
"031519","12:44:43","807491352","438458371","4.0.10.0","1","2","demographics","age","0","0","0","0","0","0","54","1","5512","0"
"031519","12:44:43","807491352","438458371","4.0.10.0","1","3","demographics","gender","0","0","0","0","0","0","male","1","6807","0"
"031519","12:52:35","553009849","202158371","4.0.10.0","1","1","demographics","ProlificCode","0","0","0","0","0","0","59bc14b00ac77f0001f05533","1","6567","0"
"031519","12:52:35","553009849","202158371","4.0.10.0","1","2","demographics","age","0","0","0","0","0","0","32","1","5315","0"
"031519","12:52:35","553009849","202158371","4.0.10.0","1","3","demographics","gender","0","0","0","0","0","0","FEMALE","1","9794","0"
"031519","12:57:59","31714135","115650521","4.0.10.0","1","1","demographics","ProlificCode","0","0","0","0","0","0","56051814e372c00011bd556a","1","12517","0"
"031519","12:57:59","31714135","115650521","4.0.10.0","1","2","demographics","age","0","0","0","0","0","0","31","1","4542","0"
"031519","12:57:59","31714135","115650521","4.0.10.0","1","3","demographics","gender","0","0","0","0","0","0","female","1","4813","0"
"031519","12:54:32","305032034","190080177","4.0.10.0","1","1","demographics","ProlificCode","0","0","0","0","0","0","5b36a113fb22f300017f6373","1","18682","0"
"031519","12:54:32","305032034","190080177","4.0.10.0","1","2","demographics","age","0","0","0","0","0","0","35","1","4078","0"
"031519","12:54:32","305032034","190080177","4.0.10.0","1","3","demographics","gender","0","0","0","0","0","0","male","1","19770","0"
"031519","08:55:51","839609764","613037481","4.0.10.0","1","1","demographics","ProlificCode","0","0","0","0","0","0","5c6077e24ee81200018ecb5d","1","8236","0"
"031519","08:55:51","839609764","613037481","4.0.10.0","1","2","demographics","age","0","0","0","0","0","0","26","1","2272","0"
"031519","08:55:51","839609764","613037481","4.0.10.0","1","3","demographics","gender","0","0","0","0","0","0","female","1","3068","0"
"031519","12:57:13","68873509","602548494","4.0.10.0","1","1","demographics","ProlificCode","0","0","0","0","0","0","5a982acd1ade740001b8e94b","1","8835","0"
"031519","12:57:13","68873509","602548494","4.0.10.0","1","2","demographics","age","0","0","0","0","0","0","46","1","17956","0"
"031519","12:57:13","68873509","602548494","4.0.10.0","1","3","demographics","gender","0","0","0","0","0","0","male","1","5670","0"
"031519","13:08:10","347862908","10805941","4.0.10.0","1","1","demographics","ProlificCode","0","0","0","0","0","0","5c1958a9d9241d000136458a","1","26493","0"
"031519","13:08:10","347862908","10805941","4.0.10.0","1","2","demographics","age","0","0","0","0","0","0","48","1","8172","0"
"031519","13:08:10","347862908","10805941","4.0.10.0","1","3","demographics","gender","0","0","0","0","0","0","Female","1","4685","0"
"031519","09:01:02","410833745","6953868","4.0.10.0","1","1","demographics","ProlificCode","0","0","0","0","0","0","566f7fecb937e400122ce330","1","2436","0"
"031519","09:01:02","410833745","6953868","4.0.10.0","1","2","demographics","age","0","0","0","0","0","0","34","1","2728","0"
"031519","09:01:02","410833745","6953868","4.0.10.0","1","3","demographics","gender","0","0","0","0","0","0","Female","1","3233","0"
"031519","13:01:57","743770280","171053919","4.0.10.0","1","1","demographics","ProlificCode","0","0","0","0","0","0","5c8a1e7f973d93000165304a","1","22135","0"
"031519","13:01:57","743770280","171053919","4.0.10.0","1","2","demographics","age","0","0","0","0","0","0","41","1","3966","0"
"031519","13:01:57","743770280","171053919","4.0.10.0","1","3","demographics","gender","0","0","0","0","0","0","Female","1","5754","0"
"031519","13:02:33","824331117","68993172","4.0.10.0","1","1","demographics","ProlificCode","0","0","0","0","0","0","5be42a51720f71000160f8eb","1","4052","0"
"031519","13:02:33","824331117","68993172","4.0.10.0","1","2","demographics","age","0","0","0","0","0","0","18 ","1","4681","0"
"031519","13:02:33","824331117","68993172","4.0.10.0","1","3","demographics","gender","0","0","0","0","0","0","Male","1","3664","0"
"031519","13:01:15","556667775","711959696","4.0.10.0","1","1","demographics","ProlificCode","0","0","0","0","0","0","5a78838d1904200001557dfc","1","108912","0"
"031519","13:01:15","556667775","711959696","4.0.10.0","1","2","demographics","age","0","0","0","0","0","0","45","1","4924","0"
"031519","13:01:15","556667775","711959696","4.0.10.0","1","3","demographics","gender","0","0","0","0","0","0","female","1","11253","0"
"031519","13:03:13","174687233","93940251","4.0.10.0","1","1","demographics","ProlificCode","0","0","0","0","0","0","5a27eee353fc4b0001414fe8","1","3443","0"
"031519","13:03:13","174687233","93940251","4.0.10.0","1","2","demographics","age","0","0","0","0","0","0","40","1","2468","0"
"031519","13:03:13","174687233","93940251","4.0.10.0","1","3","demographics","gender","0","0","0","0","0","0","Female","1","5931","0"
"031519","13:04:29","732943993","977944306","4.0.10.0","1","1","demographics","ProlificCode","0","0","0","0","0","0","5660c8ff9df648001102f010","1","3878","0"
"031519","13:04:29","732943993","977944306","4.0.10.0","1","2","demographics","age","0","0","0","0","0","0","31","1","3522","0"
"031519","13:04:29","732943993","977944306","4.0.10.0","1","3","demographics","gender","0","0","0","0","0","0","Female","1","4633","0"
"031519","06:04:51","820575150","850846837","4.0.10.0","1","1","demographics","ProlificCode","0","0","0","0","0","0","558cdd7efdf99b0f1cc5f4c1 ","1","5000","0"
"031519","06:04:51","820575150","850846837","4.0.10.0","1","2","demographics","age","0","0","0","0","0","0","25","1","2792","0"
"031519","06:04:51","820575150","850846837","4.0.10.0","1","3","demographics","gender","0","0","0","0","0","0","female","1","2060","0"
"031519","13:04:39","936528133","734893857","4.0.10.0","1","1","demographics","ProlificCode","0","0","0","0","0","0","5a779dfa190420000155771a","1","16901","0"
"031519","13:04:39","936528133","734893857","4.0.10.0","1","2","demographics","age","0","0","0","0","0","0","30","1","2760","0"
"031519","13:04:39","936528133","734893857","4.0.10.0","1","3","demographics","gender","0","0","0","0","0","0","male","1","4177","0"
"031519","06:06:45","919348501","486257201","4.0.10.0","1","1","demographics","ProlificCode","0","0","0","0","0","0","5a69f41df10cdb0001b10329","1","11444","0"
"031519","06:06:45","919348501","486257201","4.0.10.0","1","2","demographics","age","0","0","0","0","0","0","31","1","3051","0"
"031519","06:06:45","919348501","486257201","4.0.10.0","1","3","demographics","gender","0","0","0","0","0","0","male","1","7076","0"
"031519","13:04:52","325837894","637506975","4.0.10.0","1","1","demographics","ProlificCode","0","0","0","0","0","0","5c7af7dc585d100017a8fdc4","1","125415","0"
"031519","13:04:52","325837894","637506975","4.0.10.0","1","2","demographics","age","0","0","0","0","0","0","47","1","5439","0"
"031519","13:04:52","325837894","637506975","4.0.10.0","1","3","demographics","gender","0","0","0","0","0","0","Female","1","6292","0"
"031519","07:12:48","86034751","187304078","4.0.10.0","1","1","demographics","ProlificCode","0","0","0","0","0","0","5c43ee603be7b70001fd4ab4","1","3486","0"
"031519","07:12:48","86034751","187304078","4.0.10.0","1","2","demographics","age","0","0","0","0","0","0","21","1","2920","0"
"031519","07:12:48","86034751","187304078","4.0.10.0","1","3","demographics","gender","0","0","0","0","0","0","Female","1","3597","0"
"031619","00:11:20","859640727","413698088","4.0.10.0","1","1","demographics","ProlificCode","0","0","0","0","0","0","5c752e710f3961000167eec0","1","5385","0"
"031619","00:11:20","859640727","413698088","4.0.10.0","1","2","demographics","age","0","0","0","0","0","0","19","1","5588","0"
"031619","00:11:20","859640727","413698088","4.0.10.0","1","3","demographics","gender","0","0","0","0","0","0","male","1","4181","0"
"031519","13:09:35","793504291","478250718","4.0.10.0","1","1","demographics","ProlificCode","0","0","0","0","0","0","5c557d6e2fea380001a8b381","1","21433","0"
"031519","13:09:35","793504291","478250718","4.0.10.0","1","2","demographics","age","0","0","0","0","0","0","19","1","8173","0"
"031519","13:09:35","793504291","478250718","4.0.10.0","1","3","demographics","gender","0","0","0","0","0","0","Male","1","6184","0"
"031519","13:10:25","638267713","244458478","4.0.10.0","1","1","demographics","ProlificCode","0","0","0","0","0","0","5c3f8da9cf455a000194bdcc ","1","12349","0"
"031519","13:10:25","638267713","244458478","4.0.10.0","1","2","demographics","age","0","0","0","0","0","0","21","1","2689","0"
"031519","13:10:25","638267713","244458478","4.0.10.0","1","3","demographics","gender","0","0","0","0","0","0","female","1","2570","0"
"031519","13:08:27","144555172","684939008","4.0.10.0","1","1","demographics","ProlificCode","0","0","0","0","0","0","5bfaa1d9cad1240001e8ceb9","1","137682","0"
"031519","13:08:27","144555172","684939008","4.0.10.0","1","2","demographics","age","0","0","0","0","0","0","47","1","4333","0"
"031519","13:08:27","144555172","684939008","4.0.10.0","1","3","demographics","gender","0","0","0","0","0","0","Female","1","6205","0"
"031519","06:11:19","985358607","771393402","4.0.10.0","1","1","demographics","ProlificCode","0","0","0","0","0","0","572d2656109ab6000f514e48","1","19135","0"
"031519","06:11:19","985358607","771393402","4.0.10.0","1","2","demographics","age","0","0","0","0","0","0","33","1","6156","0"
"031519","06:11:19","985358607","771393402","4.0.10.0","1","3","demographics","gender","0","0","0","0","0","0","Male","1","4610","0"
"031519","13:07:59","391410957","967257877","4.0.10.0","1","1","demographics","ProlificCode","0","0","0","0","0","0","56872a0b369319000c269035","1","2962","0"
"031519","13:07:59","391410957","967257877","4.0.10.0","1","2","demographics","age","0","0","0","0","0","0","20","1","3607","0"
"031519","13:07:59","391410957","967257877","4.0.10.0","1","3","demographics","gender","0","0","0","0","0","0","Male","1","3625","0"
"031519","09:12:12","778591618","724120034","4.0.10.0","1","1","demographics","ProlificCode","0","0","0","0","0","0","5a61f6d535f26b0001490562","1","4804","0"
"031519","09:12:12","778591618","724120034","4.0.10.0","1","2","demographics","age","0","0","0","0","0","0","62","1","3664","0"
"031519","09:12:12","778591618","724120034","4.0.10.0","1","3","demographics","gender","0","0","0","0","0","0","Male","1","5815","0"
"031519","08:11:10","157244495","479317863","4.0.10.0","1","1","demographics","ProlificCode","0","0","0","0","0","0","5c5629c79fcbc40001dc55cc","1","74220","0"
"031519","08:11:10","157244495","479317863","4.0.10.0","1","2","demographics","age","0","0","0","0","0","0","64","1","5683","0"
"031519","08:11:10","157244495","479317863","4.0.10.0","1","3","demographics","gender","0","0","0","0","0","0","male","1","9543","0"
"031519","13:12:13","282975715","221319752","4.0.10.0","1","1","demographics","ProlificCode","0","0","0","0","0","0","595a89ebe4bdfd00016101e7","1","3274","0"
"031519","13:12:13","282975715","221319752","4.0.10.0","1","2","demographics","age","0","0","0","0","0","0","27","1","6022","0"
"031519","13:12:13","282975715","221319752","4.0.10.0","1","3","demographics","gender","0","0","0","0","0","0","Male","1","3461","0"
"031519","13:13:09","380617865","582727002","4.0.10.0","1","1","demographics","ProlificCode","0","0","0","0","0","0","542c1dd2fdf99b324f7632f0","1","3944","0"
"031519","13:13:09","380617865","582727002","4.0.10.0","1","2","demographics","age","0","0","0","0","0","0","50","1","2817","0"
"031519","13:13:09","380617865","582727002","4.0.10.0","1","3","demographics","gender","0","0","0","0","0","0","f","1","2650","0"
"031519","23:43:18","812269675","386743179","4.0.10.0","1","1","demographics","ProlificCode","0","0","0","0","0","0","5bded71809e1b40001df500e","1","11412","0"
"031519","23:43:18","812269675","386743179","4.0.10.0","1","2","demographics","age","0","0","0","0","0","0","24","1","5293","0"
"031519","23:43:18","812269675","386743179","4.0.10.0","1","3","demographics","gender","0","0","0","0","0","0","Male","1","3351","0"
"031519","09:21:30","823374928","375637928","4.0.10.0","1","1","demographics","ProlificCode","0","0","0","0","0","0","597a030bdc7b090001c76082","1","22931","0"
"031519","09:21:30","823374928","375637928","4.0.10.0","1","2","demographics","age","0","0","0","0","0","0","21","1","2987","0"
"031519","09:21:30","823374928","375637928","4.0.10.0","1","3","demographics","gender","0","0","0","0","0","0","Male","1","6290","0"
"031519","13:15:15","237955371","179832241","4.0.10.0","1","1","demographics","ProlificCode","0","0","0","0","0","0","57375b4912d1d8000e35ebc4","1","3761","0"
"031519","13:15:15","237955371","179832241","4.0.10.0","1","2","demographics","age","0","0","0","0","0","0","23","1","2729","0"
"031519","13:15:15","237955371","179832241","4.0.10.0","1","3","demographics","gender","0","0","0","0","0","0","Female","1","4746","0"
"031519","13:14:29","509065116","626117628","4.0.10.0","1","1","demographics","ProlificCode","0","0","0","0","0","0","5c2bb9cc8c35040001a59dde","1","24106","0"
"031519","13:14:29","509065116","626117628","4.0.10.0","1","2","demographics","age","0","0","0","0","0","0","35","1","3858","0"
"031519","13:14:29","509065116","626117628","4.0.10.0","1","3","demographics","gender","0","0","0","0","0","0","female","1","4691","0"
"031519","13:15:13","495516285","215372028","4.0.10.0","1","1","demographics","ProlificCode","0","0","0","0","0","0","","1","18059","0"
"031519","13:15:56","157361094","857911484","4.0.10.0","1","1","demographics","ProlificCode","0","0","0","0","0","0","5c778c52419b560001020625","1","3409","0"
"031519","13:15:56","157361094","857911484","4.0.10.0","1","2","demographics","age","0","0","0","0","0","0","46","1","2918","0"
"031519","13:15:56","157361094","857911484","4.0.10.0","1","3","demographics","gender","0","0","0","0","0","0","Female","1","5628","0"
"031519","13:15:54","389980591","577758862","4.0.10.0","1","1","demographics","ProlificCode","0","0","0","0","0","0","59ee541dae9f950001d849e5","1","5431","0"
"031519","13:15:54","389980591","577758862","4.0.10.0","1","2","demographics","age","0","0","0","0","0","0","38","1","3721","0"
"031519","13:15:54","389980591","577758862","4.0.10.0","1","3","demographics","gender","0","0","0","0","0","0","F","1","3324","0"
"031519","23:16:05","873133170","798288819","4.0.10.0","1","1","demographics","ProlificCode","0","0","0","0","0","0","5be2b8a216d2e200015357b1","1","4931","0"
"031519","23:16:05","873133170","798288819","4.0.10.0","1","2","demographics","age","0","0","0","0","0","0","20","1","2907","0"
"031519","23:16:05","873133170","798288819","4.0.10.0","1","3","demographics","gender","0","0","0","0","0","0","Male","1","5117","0"
"031519","13:16:30","824056033","449282783","4.0.10.0","1","1","demographics","ProlificCode","0","0","0","0","0","0","56a884547f05cb000dd04963","1","4992","0"
"031519","13:16:30","824056033","449282783","4.0.10.0","1","2","demographics","age","0","0","0","0","0","0","49","1","4159","0"
"031519","13:16:30","824056033","449282783","4.0.10.0","1","3","demographics","gender","0","0","0","0","0","0","female","1","6764","0"
"031619","00:16:49","256606976","161180637","4.0.10.0","1","1","demographics","ProlificCode","0","0","0","0","0","0","5be677307514d00001084e85","1","16934","0"
"031619","00:16:49","256606976","161180637","4.0.10.0","1","2","demographics","age","0","0","0","0","0","0","21","1","2988","0"
"031619","00:16:49","256606976","161180637","4.0.10.0","1","3","demographics","gender","0","0","0","0","0","0","female","1","16756","0"
"031519","13:17:21","342820411","14264635","4.0.10.0","1","1","demographics","ProlificCode","0","0","0","0","0","0","5c0a4795d56d2200015a7e3f","1","4537","0"
"031519","13:17:21","342820411","14264635","4.0.10.0","1","2","demographics","age","0","0","0","0","0","0","32","1","3476","0"
"031519","13:17:21","342820411","14264635","4.0.10.0","1","3","demographics","gender","0","0","0","0","0","0","male","1","7543","0"
"031519","09:17:18","800241517","473097294","4.0.10.0","1","1","demographics","ProlificCode","0","0","0","0","0","0","5b54fd70ae722a0001c02b21","1","5563","0"
"031519","09:17:18","800241517","473097294","4.0.10.0","1","2","demographics","age","0","0","0","0","0","0","30","1","6514","0"
"031519","09:17:18","800241517","473097294","4.0.10.0","1","3","demographics","gender","0","0","0","0","0","0","Male","1","2450","0"
"031519","23:17:52","873133170","798288819","4.0.10.0","1","1","demographics","ProlificCode","0","0","0","0","0","0","5be2b8a216d2e200015357b1","1","2506","0"
"031519","23:17:52","873133170","798288819","4.0.10.0","1","2","demographics","age","0","0","0","0","0","0","20 ","1","3093","0"
"031519","23:17:52","873133170","798288819","4.0.10.0","1","3","demographics","gender","0","0","0","0","0","0","Male","1","3479","0"
"031519","09:17:35","765222857","640382841","4.0.10.0","1","1","demographics","ProlificCode","0","0","0","0","0","0","5bf3185e17a7de0001cf6b57","1","14314","0"
"031519","09:17:35","765222857","640382841","4.0.10.0","1","2","demographics","age","0","0","0","0","0","0","25","1","3463","0"
"031519","09:17:35","765222857","640382841","4.0.10.0","1","3","demographics","gender","0","0","0","0","0","0","Female","1","5450","0"
"031519","13:17:42","944074813","276330115","4.0.10.0","1","1","demographics","ProlificCode","0","0","0","0","0","0","5ae09751e0feeb0001caf94d","1","10724","0"
"031519","13:17:42","944074813","276330115","4.0.10.0","1","2","demographics","age","0","0","0","0","0","0","50","1","4833","0"
"031519","13:17:42","944074813","276330115","4.0.10.0","1","3","demographics","gender","0","0","0","0","0","0","Male","1","5190","0"
"031519","13:17:49","191671139","80083886","4.0.10.0","1","1","demographics","ProlificCode","0","0","0","0","0","0","5c5c9a127bca5b000167acb8","1","9052","0"
"031519","13:17:49","191671139","80083886","4.0.10.0","1","2","demographics","age","0","0","0","0","0","0","51","1","9036","0"
"031519","13:17:49","191671139","80083886","4.0.10.0","1","3","demographics","gender","0","0","0","0","0","0","f","1","6007","0"
"031519","08:18:24","133737940","306727422","4.0.10.0","1","1","demographics","ProlificCode","0","0","0","0","0","0","59c25b315364260001dc4b45","1","6975","0"
"031519","08:18:24","133737940","306727422","4.0.10.0","1","2","demographics","age","0","0","0","0","0","0","48","1","3568","0"
"031519","08:18:24","133737940","306727422","4.0.10.0","1","3","demographics","gender","0","0","0","0","0","0","Female","1","5508","0"
"031519","13:19:04","523216323","482502282","4.0.10.0","1","1","demographics","ProlificCode","0","0","0","0","0","0","","1","12097","0"
"031519","13:19:40","523216323","482502282","4.0.10.0","1","1","demographics","ProlificCode","0","0","0","0","0","0","573a0bef12d1d8000e36c3c3","1","6448","0"
"031519","13:19:40","523216323","482502282","4.0.10.0","1","2","demographics","age","0","0","0","0","0","0","28","1","5397","0"
"031519","13:19:40","523216323","482502282","4.0.10.0","1","3","demographics","gender","0","0","0","0","0","0","female","1","5074","0"
"031519","13:19:48","379480804","702411223","4.0.10.0","1","1","demographics","ProlificCode","0","0","0","0","0","0","5995ced6f9db7d00018959bb","1","5718","0"
"031519","13:19:48","379480804","702411223","4.0.10.0","1","2","demographics","age","0","0","0","0","0","0","34","1","3145","0"
"031519","13:19:48","379480804","702411223","4.0.10.0","1","3","demographics","gender","0","0","0","0","0","0","Female","1","4962","0"
"031519","06:19:56","552388124","625329770","4.0.10.0","1","1","demographics","ProlificCode","0","0","0","0","0","0","593ab35d51244c00013dcb69 ","1","5280","0"
"031519","06:19:56","552388124","625329770","4.0.10.0","1","2","demographics","age","0","0","0","0","0","0","53","1","3304","0"
"031519","06:19:56","552388124","625329770","4.0.10.0","1","3","demographics","gender","0","0","0","0","0","0","Male","1","1960","0"
"031519","13:20:05","721283284","719182058","4.0.10.0","1","1","demographics","ProlificCode","0","0","0","0","0","0","587fcfb3311c4700014d4528","1","2318","0"
"031519","13:20:05","721283284","719182058","4.0.10.0","1","2","demographics","age","0","0","0","0","0","0","37","1","7413","0"
"031519","13:20:05","721283284","719182058","4.0.10.0","1","3","demographics","gender","0","0","0","0","0","0","female","1","3107","0"
"031619","00:19:26","131937946","697556235","4.0.10.0","1","1","demographics","ProlificCode","0","0","0","0","0","0","5b6f0cfd5035e100019cc46e","1","5317","0"
"031619","00:19:26","131937946","697556235","4.0.10.0","1","2","demographics","age","0","0","0","0","0","0","31","1","2303","0"
"031619","00:19:26","131937946","697556235","4.0.10.0","1","3","demographics","gender","0","0","0","0","0","0","Female","1","3630","0"
"031519","13:21:04","525079621","480638985","4.0.10.0","1","1","demographics","ProlificCode","0","0","0","0","0","0","54b60d74fdf99b1ce0367ab5","1","3033","0"
"031519","13:21:04","525079621","480638985","4.0.10.0","1","2","demographics","age","0","0","0","0","0","0","30","1","2757","0"
"031519","13:21:04","525079621","480638985","4.0.10.0","1","3","demographics","gender","0","0","0","0","0","0","female","1","3113","0"
"031519","13:21:12","702655354","14778563","4.0.10.0","1","1","demographics","ProlificCode","0","0","0","0","0","0","587144a7d6df7000018746d4","1","4337","0"
"031519","13:21:12","702655354","14778563","4.0.10.0","1","2","demographics","age","0","0","0","0","0","0","29","1","4300","0"
"031519","13:21:12","702655354","14778563","4.0.10.0","1","3","demographics","gender","0","0","0","0","0","0","female","1","5564","0"
"031519","13:22:09","592035143","413385331","4.0.10.0","1","1","demographics","ProlificCode","0","0","0","0","0","0","5c48644542213c0001f59917","1","6922","0"
"031519","13:22:09","592035143","413385331","4.0.10.0","1","2","demographics","age","0","0","0","0","0","0","25","1","2459","0"
"031519","13:22:09","592035143","413385331","4.0.10.0","1","3","demographics","gender","0","0","0","0","0","0","Female","1","3346","0"
"031519","13:22:46","217499410","804926324","4.0.10.0","1","1","demographics","ProlificCode","0","0","0","0","0","0","5b7b1ea123c271000113dbcb","1","29614","0"
"031519","13:22:46","217499410","804926324","4.0.10.0","1","2","demographics","age","0","0","0","0","0","0","30","1","5075","0"
"031519","13:22:46","217499410","804926324","4.0.10.0","1","3","demographics","gender","0","0","0","0","0","0","Male","1","3989","0"
"031519","13:21:21","322964784","530705107","4.0.10.0","1","1","demographics","ProlificCode","0","0","0","0","0","0","5b8e917bbca3400001fb4a59","1","9928","0"
"031519","13:21:21","322964784","530705107","4.0.10.0","1","2","demographics","age","0","0","0","0","0","0","26","1","3333","0"
"031519","13:21:21","322964784","530705107","4.0.10.0","1","3","demographics","gender","0","0","0","0","0","0","Female","1","3800","0"
"031519","13:23:27","306290545","542372835","4.0.10.0","1","1","demographics","ProlificCode","0","0","0","0","0","0","","1","34118","0"
"031519","09:23:49","146337829","945540243","4.0.10.0","1","1","demographics","ProlificCode","0","0","0","0","0","0","5bf817d6e2c9ae000169b342","1","11057","0"
"031519","09:23:49","146337829","945540243","4.0.10.0","1","2","demographics","age","0","0","0","0","0","0","27","1","3477","0"
"031519","09:23:49","146337829","945540243","4.0.10.0","1","3","demographics","gender","0","0","0","0","0","0","male","1","3527","0"
"031519","13:24:12","353960763","246714095","4.0.10.0","1","1","demographics","ProlificCode","0","0","0","0","0","0","5be7752e66e3d1000103957f","1","6126","0"
"031519","13:24:12","353960763","246714095","4.0.10.0","1","2","demographics","age","0","0","0","0","0","0","51","1","3750","0"
"031519","13:24:12","353960763","246714095","4.0.10.0","1","3","demographics","gender","0","0","0","0","0","0","Female","1","4187","0"
"031519","13:24:03","862087890","824619681","4.0.10.0","1","1","demographics","ProlificCode","0","0","0","0","0","0","5c49e145b54bd00001badf83","1","14333","0"
"031519","13:24:03","862087890","824619681","4.0.10.0","1","2","demographics","age","0","0","0","0","0","0","23","1","6856","0"
"031519","13:24:03","862087890","824619681","4.0.10.0","1","3","demographics","gender","0","0","0","0","0","0","female","1","6893","0"
"031519","13:24:27","306290545","542372835","4.0.10.0","1","1","demographics","ProlificCode","0","0","0","0","0","0","542926d2fdf99b0b7ac2904e","1","7237","0"
"031519","13:24:27","306290545","542372835","4.0.10.0","1","2","demographics","age","0","0","0","0","0","0","46","1","4901","0"
"031519","13:24:27","306290545","542372835","4.0.10.0","1","3","demographics","gender","0","0","0","0","0","0","Female","1","6949","0"
"031519","13:22:51","972818738","150007497","4.0.10.0","1","1","demographics","ProlificCode","0","0","0","0","0","0","5c766a65023c2f0001a0a7a6","1","141408","0"
"031519","13:22:51","972818738","150007497","4.0.10.0","1","2","demographics","age","0","0","0","0","0","0","38","1","4136","0"
"031519","13:22:51","972818738","150007497","4.0.10.0","1","3","demographics","gender","0","0","0","0","0","0","female","1","5938","0"
"031519","10:55:32","794621433","334808505","4.0.10.0","1","1","demographics","ProlificCode","0","0","0","0","0","0","5b87e13126d98700015ed667","1","5419","0"
"031519","10:55:32","794621433","334808505","4.0.10.0","1","2","demographics","age","0","0","0","0","0","0","51","1","3458","0"
"031519","10:55:32","794621433","334808505","4.0.10.0","1","3","demographics","gender","0","0","0","0","0","0","female","1","4951","0"
"031519","13:26:07","841886341","619817464","4.0.10.0","1","1","demographics","ProlificCode","0","0","0","0","0","0","5c2bdb35ee08ca000159a4df","1","8709","0"
"031519","13:26:07","841886341","619817464","4.0.10.0","1","2","demographics","age","0","0","0","0","0","0","34","1","3837","0"
"031519","13:26:07","841886341","619817464","4.0.10.0","1","3","demographics","gender","0","0","0","0","0","0","Male","1","6524","0"
"031519","13:26:21","963265264","336164387","4.0.10.0","1","1","demographics","ProlificCode","0","0","0","0","0","0","56a3fe0e582971000a7b0fa8","1","7543","0"
"031519","13:26:21","963265264","336164387","4.0.10.0","1","2","demographics","age","0","0","0","0","0","0","45","1","2191","0"
"031519","13:26:21","963265264","336164387","4.0.10.0","1","3","demographics","gender","0","0","0","0","0","0","male","1","4212","0"
"031519","13:26:11","924032820","718587244","4.0.10.0","1","1","demographics","ProlificCode","0","0","0","0","0","0","5b9a9067d8b0a40001f3db89","1","20183","0"
"031519","13:26:11","924032820","718587244","4.0.10.0","1","2","demographics","age","0","0","0","0","0","0","28","1","3763","0"
"031519","13:26:11","924032820","718587244","4.0.10.0","1","3","demographics","gender","0","0","0","0","0","0","male ","1","3372","0"
"031519","13:25:25","710808934","639900562","4.0.10.0","1","1","demographics","ProlificCode","0","0","0","0","0","0","5be4bb1df7d347000128f461","1","27442","0"
"031519","13:25:25","710808934","639900562","4.0.10.0","1","2","demographics","age","0","0","0","0","0","0","49","1","3895","0"
"031519","13:25:25","710808934","639900562","4.0.10.0","1","3","demographics","gender","0","0","0","0","0","0","male","1","4496","0"
"031519","13:26:30","917073623","863080510","4.0.10.0","1","1","demographics","ProlificCode","0","0","0","0","0","0","59634af44d00a70001bf38bd","1","15521","0"
"031519","13:26:30","917073623","863080510","4.0.10.0","1","2","demographics","age","0","0","0","0","0","0","39","1","4399","0"
"031519","13:26:30","917073623","863080510","4.0.10.0","1","3","demographics","gender","0","0","0","0","0","0","female","1","7272","0"
"031519","13:27:26","815949886","168180141","4.0.10.0","1","1","demographics","ProlificCode","0","0","0","0","0","0","579fb449275be6000135b03e","1","4705","0"
"031519","13:27:26","815949886","168180141","4.0.10.0","1","2","demographics","age","0","0","0","0","0","0","27","1","3986","0"
"031519","13:27:26","815949886","168180141","4.0.10.0","1","3","demographics","gender","0","0","0","0","0","0","Female","1","4215","0"
"031519","13:27:21","560153925","258819137","4.0.10.0","1","1","demographics","ProlificCode","0","0","0","0","0","0","5c792f16477abb00178f871e","1","7563","0"
"031519","13:27:21","560153925","258819137","4.0.10.0","1","2","demographics","age","0","0","0","0","0","0","39","1","4396","0"
"031519","13:27:21","560153925","258819137","4.0.10.0","1","3","demographics","gender","0","0","0","0","0","0","Female","1","4829","0"
"031519","13:27:40","534239829","649971045","4.0.10.0","1","1","demographics","ProlificCode","0","0","0","0","0","0","5c3f9ae8ef1d0d0001b2d5e4","1","4814","0"
"031519","13:27:40","534239829","649971045","4.0.10.0","1","2","demographics","age","0","0","0","0","0","0","30","1","2833","0"
"031519","13:27:40","534239829","649971045","4.0.10.0","1","3","demographics","gender","0","0","0","0","0","0","Male","1","3977","0"
"031619","02:27:38","472883825","824444440","4.0.10.0","1","1","demographics","ProlificCode","0","0","0","0","0","0","5c537b8b87d9ef0001f195d4","1","4774","0"
"031619","02:27:38","472883825","824444440","4.0.10.0","1","2","demographics","age","0","0","0","0","0","0","53","1","3404","0"
"031619","02:27:38","472883825","824444440","4.0.10.0","1","3","demographics","gender","0","0","0","0","0","0","male","1","4747","0"
"031519","13:27:49","33051812","214091782","4.0.10.0","1","1","demographics","ProlificCode","0","0","0","0","0","0","5a980eb44eecca0001dd69fb","1","2666","0"
"031519","13:27:49","33051812","214091782","4.0.10.0","1","2","demographics","age","0","0","0","0","0","0","20","1","3274","0"
"031519","13:27:49","33051812","214091782","4.0.10.0","1","3","demographics","gender","0","0","0","0","0","0","Male","1","10305","0"
"031519","13:28:16","305793232","774679626","4.0.10.0","1","1","demographics","ProlificCode","0","0","0","0","0","0","5c3cdb31c965c4000198e4b5","1","8305","0"
"031519","13:28:16","305793232","774679626","4.0.10.0","1","2","demographics","age","0","0","0","0","0","0","49","1","5610","0"
"031519","13:28:16","305793232","774679626","4.0.10.0","1","3","demographics","gender","0","0","0","0","0","0","Male","1","5610","0"
"031619","00:27:58","24246639","207341466","4.0.10.0","1","1","demographics","ProlificCode","0","0","0","0","0","0","5c1653c41135060001e02ece","1","86038","0"
"031619","00:27:58","24246639","207341466","4.0.10.0","1","2","demographics","age","0","0","0","0","0","0","23","1","2848","0"
"031619","00:27:58","24246639","207341466","4.0.10.0","1","3","demographics","gender","0","0","0","0","0","0","F","1","3827","0"
"031519","13:29:33","397693725","5244407","4.0.10.0","1","1","demographics","ProlificCode","0","0","0","0","0","0","59b52b59834a170001d609c7","1","8182","0"
"031519","13:29:33","397693725","5244407","4.0.10.0","1","2","demographics","age","0","0","0","0","0","0","32","1","2889","0"
"031519","13:29:33","397693725","5244407","4.0.10.0","1","3","demographics","gender","0","0","0","0","0","0","male","1","2942","0"
"031519","13:28:54","360055724","562700758","4.0.10.0","1","1","demographics","ProlificCode","0","0","0","0","0","0","5c48f1ce91d23d0001b8b4fb","1","60146","0"
"031519","13:28:54","360055724","562700758","4.0.10.0","1","2","demographics","age","0","0","0","0","0","0","41","1","4973","0"
"031519","13:28:54","360055724","562700758","4.0.10.0","1","3","demographics","gender","0","0","0","0","0","0","Male","1","4022","0"
"031619","00:29:38","13839581","824288176","4.0.10.0","1","1","demographics","ProlificCode","0","0","0","0","0","0","5c093a3f600aff0001d7002c","1","32833","0"
"031619","00:29:38","13839581","824288176","4.0.10.0","1","2","demographics","age","0","0","0","0","0","0","40","1","3729","0"
"031619","00:29:38","13839581","824288176","4.0.10.0","1","3","demographics","gender","0","0","0","0","0","0","Male","1","5698","0"
"031519","13:30:39","386103847","762697877","4.0.10.0","1","1","demographics","ProlificCode","0","0","0","0","0","0","5c3b594dc348020001f34799","1","9817","0"
"031519","13:30:39","386103847","762697877","4.0.10.0","1","2","demographics","age","0","0","0","0","0","0","26","1","2580","0"
"031519","13:30:39","386103847","762697877","4.0.10.0","1","3","demographics","gender","0","0","0","0","0","0","Female","1","4782","0"
"031519","08:29:46","183370515","451795364","4.0.10.0","1","1","demographics","ProlificCode","0","0","0","0","0","0","5a3dfbbcdaea400001ac1adc ","1","28740","0"
"031519","08:29:46","183370515","451795364","4.0.10.0","1","2","demographics","age","0","0","0","0","0","0","41","1","5798","0"
"031519","08:29:46","183370515","451795364","4.0.10.0","1","3","demographics","gender","0","0","0","0","0","0","female","1","11711","0"
"031519","13:30:39","386103847","762697877","4.0.10.0","1","1","demographics","ProlificCode","0","0","0","0","0","0","5c3b594dc348020001f34799","1","9817","0"
"031519","13:30:39","386103847","762697877","4.0.10.0","1","2","demographics","age","0","0","0","0","0","0","26","1","2580","0"
"031519","13:30:39","386103847","762697877","4.0.10.0","1","3","demographics","gender","0","0","0","0","0","0","Female","1","4782","0"
"031519","13:30:59","837493426","360891929","4.0.10.0","1","1","demographics","ProlificCode","0","0","0","0","0","0","5c4075032f5dc200018","1","32722","0"
"031519","13:30:59","837493426","360891929","4.0.10.0","1","2","demographics","age","0","0","0","0","0","0","38","1","3695","0"
"031519","13:30:59","837493426","360891929","4.0.10.0","1","3","demographics","gender","0","0","0","0","0","0","Male","1","3355","0"
"031519","13:30:59","837493426","360891929","4.0.10.0","1","1","demographics","ProlificCode","0","0","0","0","0","0","5c4075032f5dc200018","1","32722","0"
"031519","13:30:59","837493426","360891929","4.0.10.0","1","2","demographics","age","0","0","0","0","0","0","38","1","3695","0"
"031519","13:30:59","837493426","360891929","4.0.10.0","1","3","demographics","gender","0","0","0","0","0","0","Male","1","3355","0"
"031519","13:32:46","841886341","619817464","4.0.10.0","1","1","demographics","ProlificCode","0","0","0","0","0","0","5c2bdb35ee08ca000159a4df","1","3140","0"
"031519","13:32:46","841886341","619817464","4.0.10.0","1","2","demographics","age","0","0","0","0","0","0","34","1","2960","0"
"031519","13:32:46","841886341","619817464","4.0.10.0","1","3","demographics","gender","0","0","0","0","0","0","34","1","3377","0"
"031519","13:31:32","982685299","91454182","4.0.10.0","1","1","demographics","ProlificCode","0","0","0","0","0","0","5bd0c9f525db7b00017","1","77309","0"
"031519","13:31:32","982685299","91454182","4.0.10.0","1","2","demographics","age","0","0","0","0","0","0","26","1","3140","0"
"031519","13:31:32","982685299","91454182","4.0.10.0","1","3","demographics","gender","0","0","0","0","0","0","Male","1","3268","0"
"031519","13:33:32","89137308","969948633","4.0.10.0","1","1","demographics","ProlificCode","0","0","0","0","0","0","591352fa5c9346000127d366","1","4224","0"
"031519","13:33:32","89137308","969948633","4.0.10.0","1","2","demographics","age","0","0","0","0","0","0","35","1","2726","0"
"031519","13:33:32","89137308","969948633","4.0.10.0","1","3","demographics","gender","0","0","0","0","0","0","female","1","4816","0"
"031519","13:33:39","841886341","619817464","4.0.10.0","1","1","demographics","ProlificCode","0","0","0","0","0","0","5c2bdb35ee08ca000159a4df","1","2402","0"
"031519","13:33:39","841886341","619817464","4.0.10.0","1","2","demographics","age","0","0","0","0","0","0","34","1","2545","0"
"031519","13:33:39","841886341","619817464","4.0.10.0","1","3","demographics","gender","0","0","0","0","0","0","Male","1","4513","0"
"031519","13:32:40","391400777","365200288","4.0.10.0","1","1","demographics","ProlificCode","0","0","0","0","0","0","5c35b60c7ab36100015bfc00","1","70885","0"
"031519","13:32:40","391400777","365200288","4.0.10.0","1","2","demographics","age","0","0","0","0","0","0","20","1","2196","0"
"031519","13:32:40","391400777","365200288","4.0.10.0","1","3","demographics","gender","0","0","0","0","0","0","male","1","2304","0"
"031519","09:33:13","634928292","65768348","4.0.10.0","1","1","demographics","ProlificCode","0","0","0","0","0","0","5c1c181289f03500017281f9","1","7078","0"
"031519","09:33:13","634928292","65768348","4.0.10.0","1","2","demographics","age","0","0","0","0","0","0","52","1","5350","0"
"031519","09:33:13","634928292","65768348","4.0.10.0","1","3","demographics","gender","0","0","0","0","0","0","male","1","4427","0"
"031519","13:33:35","913783198","936257094","4.0.10.0","1","1","demographics","ProlificCode","0","0","0","0","0","0","5af7e22933b0ee00011ec6e1","1","19708","0"
"031519","13:33:35","913783198","936257094","4.0.10.0","1","2","demographics","age","0","0","0","0","0","0","45","1","4692","0"
"031519","13:33:35","913783198","936257094","4.0.10.0","1","3","demographics","gender","0","0","0","0","0","0","female","1","5454","0"
"031519","13:33:58","652303943","5951467","4.0.10.0","1","1","demographics","ProlificCode","0","0","0","0","0","0","5c42457e848dbb000157f052 ","1","18225","0"
"031519","13:33:58","652303943","5951467","4.0.10.0","1","2","demographics","age","0","0","0","0","0","0","28","1","4569","0"
"031519","13:33:58","652303943","5951467","4.0.10.0","1","3","demographics","gender","0","0","0","0","0","0","Male","1","5548","0"
"031519","09:32:24","911542258","402720245","4.0.10.0","1","1","demographics","ProlificCode","0","0","0","0","0","0","5c630fb49874ef0001f4458c","1","4440","0"
"031519","09:32:24","911542258","402720245","4.0.10.0","1","2","demographics","age","0","0","0","0","0","0","30","1","2445","0"
"031519","09:32:24","911542258","402720245","4.0.10.0","1","3","demographics","gender","0","0","0","0","0","0","Female","1","125687","0"
"031519","09:35:41","987819960","900653247","4.0.10.0","1","1","demographics","ProlificCode","0","0","0","0","0","0","5c86833d39b97600179387d3","1","7570","0"
"031519","09:35:41","987819960","900653247","4.0.10.0","1","2","demographics","age","0","0","0","0","0","0","28","1","3512","0"
"031519","09:35:41","987819960","900653247","4.0.10.0","1","3","demographics","gender","0","0","0","0","0","0","Male","1","7072","0"
"031519","13:36:18","456863347","328544281","4.0.10.0","1","1","demographics","ProlificCode","0","0","0","0","0","0","5c700db9c72d0f0001b0f243 ","1","24831","0"
"031519","13:36:18","456863347","328544281","4.0.10.0","1","2","demographics","age","0","0","0","0","0","0","21","1","3083","0"
"031519","13:36:18","456863347","328544281","4.0.10.0","1","3","demographics","gender","0","0","0","0","0","0","male","1","3334","0"
"031519","13:36:31","959627777","491919221","4.0.10.0","1","1","demographics","ProlificCode","0","0","0","0","0","0","5a94ee9bf6dfdd0001ea50f1","1","8069","0"
"031519","13:36:31","959627777","491919221","4.0.10.0","1","2","demographics","age","0","0","0","0","0","0","31","1","3301","0"
"031519","13:36:31","959627777","491919221","4.0.10.0","1","3","demographics","gender","0","0","0","0","0","0","male","1","4334","0"
"031519","09:36:15","561173474","335342488","4.0.10.0","1","1","demographics","ProlificCode","0","0","0","0","0","0","5c57c3453f325d00016a94af","1","20211","0"
"031519","09:36:15","561173474","335342488","4.0.10.0","1","2","demographics","age","0","0","0","0","0","0","49","1","3099","0"
"031519","09:36:15","561173474","335342488","4.0.10.0","1","3","demographics","gender","0","0","0","0","0","0","Female","1","6054","0"
"031519","09:37:12","509737959","276646504","4.0.10.0","1","1","demographics","ProlificCode","0","0","0","0","0","0","5bf32090a155c300016f3c06","1","3120","0"
"031519","09:37:12","509737959","276646504","4.0.10.0","1","2","demographics","age","0","0","0","0","0","0","30","1","1819","0"
"031519","09:37:12","509737959","276646504","4.0.10.0","1","3","demographics","gender","0","0","0","0","0","0","male","1","2164","0"
"031519","13:37:10","266417419","28751330","4.0.10.0","1","1","demographics","ProlificCode","0","0","0","0","0","0","5c3a28266c4e3d0001b894d5","1","12506","0"
"031519","13:37:10","266417419","28751330","4.0.10.0","1","2","demographics","age","0","0","0","0","0","0","32","1","2260","0"
"031519","13:37:10","266417419","28751330","4.0.10.0","1","3","demographics","gender","0","0","0","0","0","0","Male","1","3049","0"
"031519","09:37:17","131358387","504257496","4.0.10.0","1","1","demographics","ProlificCode","0","0","0","0","0","0","5bf71298048ea60001620852","1","5581","0"
"031519","09:37:17","131358387","504257496","4.0.10.0","1","2","demographics","age","0","0","0","0","0","0","34","1","2980","0"
"031519","09:37:17","131358387","504257496","4.0.10.0","1","3","demographics","gender","0","0","0","0","0","0","Male","1","3341","0"
"031519","13:37:08","806016411","663722728","4.0.10.0","1","1","demographics","ProlificCode","0","0","0","0","0","0","5b7de8361e7bc100011dc574","1","6828","0"
"031519","13:37:08","806016411","663722728","4.0.10.0","1","2","demographics","age","0","0","0","0","0","0","55","1","4337","0"
"031519","13:37:08","806016411","663722728","4.0.10.0","1","3","demographics","gender","0","0","0","0","0","0","Female","1","6881","0"
"031519","13:37:50","262083863","794375296","4.0.10.0","1","1","demographics","ProlificCode","0","0","0","0","0","0","5c732418e45ff10001404bc6","1","6054","0"
"031519","13:37:50","262083863","794375296","4.0.10.0","1","2","demographics","age","0","0","0","0","0","0","18","1","2388","0"
"031519","13:37:50","262083863","794375296","4.0.10.0","1","3","demographics","gender","0","0","0","0","0","0","Male","1","3256","0"
"031519","13:37:32","99042787","178900360","4.0.10.0","1","1","demographics","ProlificCode","0","0","0","0","0","0","5c6f27b24e08ad00018cd175","1","76279","0"
"031519","13:37:32","99042787","178900360","4.0.10.0","1","2","demographics","age","0","0","0","0","0","0","22","1","2992","0"
"031519","13:37:32","99042787","178900360","4.0.10.0","1","3","demographics","gender","0","0","0","0","0","0","female","1","4978","0"
"031519","13:38:43","402971211","470587717","4.0.10.0","1","1","demographics","ProlificCode","0","0","0","0","0","0","5c49e6d8d1150d0001e11a41","1","7536","0"
"031519","13:38:43","402971211","470587717","4.0.10.0","1","2","demographics","age","0","0","0","0","0","0","28","1","3821","0"
"031519","13:38:43","402971211","470587717","4.0.10.0","1","3","demographics","gender","0","0","0","0","0","0","FEMALE","1","20619","0"
"031519","09:37:31","565429127","88827637","4.0.10.0","1","1","demographics","ProlificCode","0","0","0","0","0","0","559e7713fdf99b7a9a12410b","1","93211","0"
"031519","09:37:31","565429127","88827637","4.0.10.0","1","2","demographics","age","0","0","0","0","0","0","63","1","8331","0"
"031519","09:37:31","565429127","88827637","4.0.10.0","1","3","demographics","gender","0","0","0","0","0","0","Male","1","8549","0"
"031519","09:39:32","645762891","908462411","4.0.10.0","1","1","demographics","ProlificCode","0","0","0","0","0","0","5c3612b5befdcb0001acd488","1","7977","0"
"031519","09:39:32","645762891","908462411","4.0.10.0","1","2","demographics","age","0","0","0","0","0","0","40","1","3544","0"
"031519","09:39:32","645762891","908462411","4.0.10.0","1","3","demographics","gender","0","0","0","0","0","0","Female","1","7361","0"
"031519","09:40:36","939540021","872187172","4.0.10.0","1","1","demographics","ProlificCode","0","0","0","0","0","0","5c44c5bc8bb6fd0001642213","1","20458","0"
"031519","09:40:36","939540021","872187172","4.0.10.0","1","2","demographics","age","0","0","0","0","0","0","48","1","4313","0"
"031519","09:40:36","939540021","872187172","4.0.10.0","1","3","demographics","gender","0","0","0","0","0","0","Female","1","5642","0"
"031519","13:40:24","438792140","412274892","4.0.10.0","1","1","demographics","ProlificCode","0","0","0","0","0","0","581c4e8d9ec6d80001e20ad9","1","4440","0"
"031519","13:40:24","438792140","412274892","4.0.10.0","1","2","demographics","age","0","0","0","0","0","0","37","1","33924","0"
"031519","13:40:24","438792140","412274892","4.0.10.0","1","3","demographics","gender","0","0","0","0","0","0","female","1","7685","0"
"031519","13:41:02","132954404","173195330","4.0.10.0","1","1","demographics","ProlificCode","0","0","0","0","0","0","5c5b1b609d974300015d85d4","1","22089","0"
"031519","13:41:02","132954404","173195330","4.0.10.0","1","2","demographics","age","0","0","0","0","0","0","32","1","4715","0"
"031519","13:41:02","132954404","173195330","4.0.10.0","1","3","demographics","gender","0","0","0","0","0","0","male ","1","16377","0"
"031619","00:41:38","15525936","788517091","4.0.10.0","1","1","demographics","ProlificCode","0","0","0","0","0","0","5c021b989b7d4e0001aa764e","1","6677","0"
"031619","00:41:38","15525936","788517091","4.0.10.0","1","2","demographics","age","0","0","0","0","0","0","37","1","4299","0"
"031619","00:41:38","15525936","788517091","4.0.10.0","1","3","demographics","gender","0","0","0","0","0","0","Male","1","3873","0"
"031519","09:41:08","556731964","848279434","4.0.10.0","1","1","demographics","ProlificCode","0","0","0","0","0","0","5bdcceb8ee652a0001eff364","1","42438","0"
"031519","09:41:08","556731964","848279434","4.0.10.0","1","2","demographics","age","0","0","0","0","0","0","47","1","2972","0"
"031519","09:41:08","556731964","848279434","4.0.10.0","1","3","demographics","gender","0","0","0","0","0","0","Female","1","4761","0"
"031519","08:42:01","442025620","205571831","4.0.10.0","1","1","demographics","ProlificCode","0","0","0","0","0","0","lorijack@sbcglobal.net","1","10489","0"
"031519","08:42:01","442025620","205571831","4.0.10.0","1","2","demographics","age","0","0","0","0","0","0","54","1","3598","0"
"031519","08:42:01","442025620","205571831","4.0.10.0","1","3","demographics","gender","0","0","0","0","0","0","female","1","4603","0"
"031519","13:42:55","249517279","774797699","4.0.10.0","1","1","demographics","ProlificCode","0","0","0","0","0","0","5bed5d8c9d25370001b28222","1","8261","0"
"031519","13:42:55","249517279","774797699","4.0.10.0","1","2","demographics","age","0","0","0","0","0","0","29","1","3457","0"
"031519","13:42:55","249517279","774797699","4.0.10.0","1","3","demographics","gender","0","0","0","0","0","0","Female","1","5998","0"
"031519","09:42:46","541794062","456211157","4.0.10.0","1","1","demographics","ProlificCode","0","0","0","0","0","0","5962eb69241f8d0001064bd3","1","7973","0"
"031519","09:42:46","541794062","456211157","4.0.10.0","1","2","demographics","age","0","0","0","0","0","0","30","1","3293","0"
"031519","09:42:46","541794062","456211157","4.0.10.0","1","3","demographics","gender","0","0","0","0","0","0","Male","1","3497","0"
"031519","13:43:21","861138738","354072186","4.0.10.0","1","1","demographics","ProlificCode","0","0","0","0","0","0","584d88ee6a3e990001bf1b67","1","3402","0"
"031519","13:43:21","861138738","354072186","4.0.10.0","1","2","demographics","age","0","0","0","0","0","0","39","1","3877","0"
"031519","13:43:21","861138738","354072186","4.0.10.0","1","3","demographics","gender","0","0","0","0","0","0","female","1","5003","0"
"031519","08:43:27","999738107","78011892","4.0.10.0","1","1","demographics","ProlificCode","0","0","0","0","0","0","5c736cb2e165d10001e8c586","1","3753","0"
"031519","08:43:27","999738107","78011892","4.0.10.0","1","2","demographics","age","0","0","0","0","0","0","27","1","3163","0"
"031519","08:43:27","999738107","78011892","4.0.10.0","1","3","demographics","gender","0","0","0","0","0","0","male","1","4399","0"
"031519","13:43:33","35677611","694368279","4.0.10.0","1","1","demographics","ProlificCode","0","0","0","0","0","0","560ce7f901c38a0012769e31","1","2980","0"
"031519","13:43:33","35677611","694368279","4.0.10.0","1","2","demographics","age","0","0","0","0","0","0","39","1","3332","0"
"031519","13:43:33","35677611","694368279","4.0.10.0","1","3","demographics","gender","0","0","0","0","0","0","F","1","2949","0"
"031519","13:43:52","960613231","303100394","4.0.10.0","1","1","demographics","ProlificCode","0","0","0","0","0","0","5c0e87f97804780001837efb","1","7482","0"
"031519","13:43:52","960613231","303100394","4.0.10.0","1","2","demographics","age","0","0","0","0","0","0","28","1","3031","0"
"031519","13:43:52","960613231","303100394","4.0.10.0","1","3","demographics","gender","0","0","0","0","0","0","female","1","5478","0"
"031519","13:44:42","146241670","517293315","4.0.10.0","1","1","demographics","ProlificCode","0","0","0","0","0","0","5c5e8c04ab60620001462733","1","18460","0"
"031519","13:44:42","146241670","517293315","4.0.10.0","1","2","demographics","age","0","0","0","0","0","0","33","1","3247","0"
"031519","13:44:42","146241670","517293315","4.0.10.0","1","3","demographics","gender","0","0","0","0","0","0","male","1","4069","0"
"031519","13:45:11","70242107","44041616","4.0.10.0","1","1","demographics","ProlificCode","0","0","0","0","0","0","5a991dd86475f900019fe4b6","1","8184","0"
"031519","13:45:11","70242107","44041616","4.0.10.0","1","2","demographics","age","0","0","0","0","0","0","39","1","3303","0"
"031519","13:45:11","70242107","44041616","4.0.10.0","1","3","demographics","gender","0","0","0","0","0","0","female","1","4341","0"
"031519","13:44:08","956035182","272574749","4.0.10.0","1","1","demographics","ProlificCode","0","0","0","0","0","0","5bc20e2f7870b900012dd279","1","21759","0"
"031519","13:44:08","956035182","272574749","4.0.10.0","1","2","demographics","age","0","0","0","0","0","0","31","1","4596","0"
"031519","13:44:08","956035182","272574749","4.0.10.0","1","3","demographics","gender","0","0","0","0","0","0","Female","1","13680","0"
"031519","13:45:32","132954404","173195330","4.0.10.0","1","1","demographics","ProlificCode","0","0","0","0","0","0","5c5b1b609d974300015d85d4","1","5973","0"
"031519","13:45:32","132954404","173195330","4.0.10.0","1","2","demographics","age","0","0","0","0","0","0","32","1","3619","0"
"031519","13:45:32","132954404","173195330","4.0.10.0","1","3","demographics","gender","0","0","0","0","0","0","male","1","3649","0"
"031519","13:45:30","248633345","506054133","4.0.10.0","1","1","demographics","ProlificCode","0","0","0","0","0","0","56114aa67ffc8a000f81148d","1","18967","0"
"031519","13:45:30","248633345","506054133","4.0.10.0","1","2","demographics","age","0","0","0","0","0","0","47","1","3470","0"
"031519","13:45:30","248633345","506054133","4.0.10.0","1","3","demographics","gender","0","0","0","0","0","0","Male","1","2774","0"
"031519","06:45:38","493700965","118919930","4.0.10.0","1","1","demographics","ProlificCode","0","0","0","0","0","0","5c7aab2f7732eb0015b92746","1","22094","0"
"031519","06:45:38","493700965","118919930","4.0.10.0","1","2","demographics","age","0","0","0","0","0","0","38","1","3866","0"
"031519","06:45:38","493700965","118919930","4.0.10.0","1","3","demographics","gender","0","0","0","0","0","0","Male","1","4979","0"
"031519","13:45:39","94429417","888089443","4.0.10.0","1","1","demographics","ProlificCode","0","0","0","0","0","0","5bec1432d1ac4f0001ff723e","1","10414","0"
"031519","13:45:39","94429417","888089443","4.0.10.0","1","2","demographics","age","0","0","0","0","0","0","39","1","4757","0"
"031519","13:45:39","94429417","888089443","4.0.10.0","1","3","demographics","gender","0","0","0","0","0","0","female","1","5733","0"
"031519","13:46:08","526749069","173604659","4.0.10.0","1","1","demographics","ProlificCode","0","0","0","0","0","0","59e73a5bae9f950001d84255","1","3384","0"
"031519","13:46:08","526749069","173604659","4.0.10.0","1","2","demographics","age","0","0","0","0","0","0","28  ","1","3111","0"
"031519","13:46:08","526749069","173604659","4.0.10.0","1","3","demographics","gender","0","0","0","0","0","0","Female","1","5001","0"
"031519","08:45:42","586037733","554294865","4.0.10.0","1","1","demographics","ProlificCode","0","0","0","0","0","0","5c12f6b1c4b80e000192c555","1","56894","0"
"031519","08:45:42","586037733","554294865","4.0.10.0","1","2","demographics","age","0","0","0","0","0","0","35","1","2609","0"
"031519","08:45:42","586037733","554294865","4.0.10.0","1","3","demographics","gender","0","0","0","0","0","0","male","1","3113","0"
"031519","13:46:36","700559182","312029553","4.0.10.0","1","1","demographics","ProlificCode","0","0","0","0","0","0","5be159dd4c397b0001ec66c3","1","5505","0"
"031519","13:46:36","700559182","312029553","4.0.10.0","1","2","demographics","age","0","0","0","0","0","0","46","1","3173","0"
"031519","13:46:36","700559182","312029553","4.0.10.0","1","3","demographics","gender","0","0","0","0","0","0","Male","1","4114","0"
"031519","13:46:31","221013910","53126276","4.0.10.0","1","1","demographics","ProlificCode","0","0","0","0","0","0","59d5f2a4078dbe00019513cc","1","16030","0"
"031519","13:46:31","221013910","53126276","4.0.10.0","1","2","demographics","age","0","0","0","0","0","0","34","1","2499","0"
"031519","13:46:31","221013910","53126276","4.0.10.0","1","3","demographics","gender","0","0","0","0","0","0","f","1","2309","0"
"031519","13:49:21","287166331","544587117","4.0.10.0","1","1","demographics","ProlificCode","0","0","0","0","0","0","594f5f0b6208900001db0b8f","1","4910","0"
"031519","13:49:21","287166331","544587117","4.0.10.0","1","2","demographics","age","0","0","0","0","0","0","36","1","3494","0"
"031519","13:49:21","287166331","544587117","4.0.10.0","1","3","demographics","gender","0","0","0","0","0","0","female","1","4064","0"
"031519","13:46:39","334949358","729193027","4.0.10.0","1","1","demographics","ProlificCode","0","0","0","0","0","0","5955b6df620d1400019f2787","1","25510","0"
"031519","13:46:39","334949358","729193027","4.0.10.0","1","2","demographics","age","0","0","0","0","0","0","25","1","3516","0"
"031519","13:46:39","334949358","729193027","4.0.10.0","1","3","demographics","gender","0","0","0","0","0","0","male","1","8896","0"
"031519","09:47:15","248082442","947925477","4.0.10.0","1","1","demographics","ProlificCode","0","0","0","0","0","0","5ba4309d6347f70001650348","1","7213","0"
"031519","09:47:15","248082442","947925477","4.0.10.0","1","2","demographics","age","0","0","0","0","0","0","29","1","3021","0"
"031519","09:47:15","248082442","947925477","4.0.10.0","1","3","demographics","gender","0","0","0","0","0","0","female","1","3389","0"
"031519","13:46:20","122743951","59674939","4.0.10.0","1","1","demographics","ProlificCode","0","0","0","0","0","0","5bc1e162a907070001220130","1","9526","0"
"031519","13:46:20","122743951","59674939","4.0.10.0","1","2","demographics","age","0","0","0","0","0","0","22","1","2721","0"
"031519","13:46:20","122743951","59674939","4.0.10.0","1","3","demographics","gender","0","0","0","0","0","0","Female","1","4168","0"
"031619","00:47:32","245901452","365327585","4.0.10.0","1","1","demographics","ProlificCode","0","0","0","0","0","0","5c28408d10677f0001dbd5ff","1","7185","0"
"031619","00:47:32","245901452","365327585","4.0.10.0","1","2","demographics","age","0","0","0","0","0","0","24","1","1184","0"
"031619","00:47:32","245901452","365327585","4.0.10.0","1","3","demographics","gender","0","0","0","0","0","0","Male","1","2118","0"
"031519","13:47:02","628362109","833363030","4.0.10.0","1","1","demographics","ProlificCode","0","0","0","0","0","0","5ac7837be1099600016","1","47557","0"
"031519","13:47:02","628362109","833363030","4.0.10.0","1","2","demographics","age","0","0","0","0","0","0","37 ","1","7972","0"
"031519","13:47:02","628362109","833363030","4.0.10.0","1","3","demographics","gender","0","0","0","0","0","0","Male","1","3222","0"
"031519","13:48:01","132954404","173195330","4.0.10.0","1","1","demographics","ProlificCode","0","0","0","0","0","0","5c5b1b609d974300015d85d4","1","4169","0"
"031519","13:48:01","132954404","173195330","4.0.10.0","1","2","demographics","age","0","0","0","0","0","0","32","1","3767","0"
"031519","13:48:01","132954404","173195330","4.0.10.0","1","3","demographics","gender","0","0","0","0","0","0","male","1","3532","0"
"031519","09:48:38","334048463","706947568","4.0.10.0","1","1","demographics","ProlificCode","0","0","0","0","0","0","5c84002036f2450001c86167","1","6612","0"
"031519","09:48:38","334048463","706947568","4.0.10.0","1","2","demographics","age","0","0","0","0","0","0","22","1","2905","0"
"031519","09:48:38","334048463","706947568","4.0.10.0","1","3","demographics","gender","0","0","0","0","0","0","Female","1","3847","0"
"031519","13:48:28","397507322","365764444","4.0.10.0","1","1","demographics","ProlificCode","0","0","0","0","0","0","5c6561a15c15a30001445ac3","1","12674","0"
"031519","13:48:28","397507322","365764444","4.0.10.0","1","2","demographics","age","0","0","0","0","0","0","29","1","4452","0"
"031519","13:48:28","397507322","365764444","4.0.10.0","1","3","demographics","gender","0","0","0","0","0","0","female","1","4765","0"
"031519","13:49:17","256540471","945428108","4.0.10.0","1","1","demographics","ProlificCode","0","0","0","0","0","0","","1","19618","0"
"031519","13:49:31","745716013","445559065","4.0.10.0","1","1","demographics","ProlificCode","0","0","0","0","0","0","5c5ad828903c7700010a4635","1","8766","0"
"031519","13:49:31","745716013","445559065","4.0.10.0","1","2","demographics","age","0","0","0","0","0","0","42","1","4463","0"
"031519","13:49:31","745716013","445559065","4.0.10.0","1","3","demographics","gender","0","0","0","0","0","0","FEMALE","1","7087","0"
"031519","13:49:36","452239618","925409847","4.0.10.0","1","1","demographics","ProlificCode","0","0","0","0","0","0","5bf541ac3a426e00019e348e","1","17591","0"
"031519","13:49:36","452239618","925409847","4.0.10.0","1","2","demographics","age","0","0","0","0","0","0","34","1","3089","0"
"031519","13:49:36","452239618","925409847","4.0.10.0","1","3","demographics","gender","0","0","0","0","0","0","male","1","2231","0"
"031519","13:50:01","256540471","945428108","4.0.10.0","1","1","demographics","ProlificCode","0","0","0","0","0","0","5c6ebda238de4a0001e08788","1","5533","0"
"031519","13:50:01","256540471","945428108","4.0.10.0","1","2","demographics","age","0","0","0","0","0","0","65","1","3443","0"
"031519","13:50:01","256540471","945428108","4.0.10.0","1","3","demographics","gender","0","0","0","0","0","0","female","1","5462","0"
"031519","13:49:57","107203595","907583841","4.0.10.0","1","1","demographics","ProlificCode","0","0","0","0","0","0","5acca930a3ba7a0001b500fa","1","20334","0"
"031519","13:49:57","107203595","907583841","4.0.10.0","1","2","demographics","age","0","0","0","0","0","0","34","1","2877","0"
"031519","13:49:57","107203595","907583841","4.0.10.0","1","3","demographics","gender","0","0","0","0","0","0","female","1","6138","0"
"031519","13:50:12","237775537","242901184","4.0.10.0","1","1","demographics","ProlificCode","0","0","0","0","0","0","59d68da3e2762800015eb577","1","8835","0"
"031519","13:50:12","237775537","242901184","4.0.10.0","1","2","demographics","age","0","0","0","0","0","0","28","1","2367","0"
"031519","13:50:12","237775537","242901184","4.0.10.0","1","3","demographics","gender","0","0","0","0","0","0","Female","1","3818","0"
"031519","13:49:25","710174056","52924881","4.0.10.0","1","1","demographics","ProlificCode","0","0","0","0","0","0","5c5d66a1b1ba80","1","57748","0"
"031519","13:49:25","710174056","52924881","4.0.10.0","1","2","demographics","age","0","0","0","0","0","0","53","1","5069","0"
"031519","13:49:25","710174056","52924881","4.0.10.0","1","3","demographics","gender","0","0","0","0","0","0","female","1","5928","0"
"031519","13:50:29","448699354","921869582","4.0.10.0","1","1","demographics","ProlificCode","0","0","0","0","0","0","5c1a1a8e792f4400015d5b86","1","5771","0"
"031519","13:50:29","448699354","921869582","4.0.10.0","1","2","demographics","age","0","0","0","0","0","0","29","1","2452","0"
"031519","13:50:29","448699354","921869582","4.0.10.0","1","3","demographics","gender","0","0","0","0","0","0","Female","1","3601","0"
"031519","13:50:26","252082665","915057176","4.0.10.0","1","1","demographics","ProlificCode","0","0","0","0","0","0","5641c95d17bdbe00102a0b51","1","6621","0"
"031519","13:50:26","252082665","915057176","4.0.10.0","1","2","demographics","age","0","0","0","0","0","0","54","1","3385","0"
"031519","13:50:26","252082665","915057176","4.0.10.0","1","3","demographics","gender","0","0","0","0","0","0","female","1","5048","0"
"031519","13:50:27","249629628","484534075","4.0.10.0","1","1","demographics","ProlificCode","0","0","0","0","0","0","5c714f902c03ec0001ed11d1","1","4733","0"
"031519","13:50:27","249629628","484534075","4.0.10.0","1","2","demographics","age","0","0","0","0","0","0","29","1","4142","0"
"031519","13:50:27","249629628","484534075","4.0.10.0","1","3","demographics","gender","0","0","0","0","0","0","Male","1","3866","0"
"031519","13:48:04","55234492","702090064","4.0.10.0","1","1","demographics","ProlificCode","0","0","0","0","0","0","53721fcffdf99b3973699a76","1","68032","0"
"031519","13:48:04","55234492","702090064","4.0.10.0","1","2","demographics","age","0","0","0","0","0","0","25","1","4011","0"
"031519","13:48:04","55234492","702090064","4.0.10.0","1","3","demographics","gender","0","0","0","0","0","0","Female","1","3637","0"
"031519","13:50:37","971291032","79039533","4.0.10.0","1","1","demographics","ProlificCode","0","0","0","0","0","0","5c506220ba50dc0001862088","1","20166","0"
"031519","13:50:37","971291032","79039533","4.0.10.0","1","2","demographics","age","0","0","0","0","0","0","20","1","3703","0"
"031519","13:50:37","971291032","79039533","4.0.10.0","1","3","demographics","gender","0","0","0","0","0","0","male","1","3780","0"
"031519","13:50:38","376762390","611666838","4.0.10.0","1","1","demographics","ProlificCode","0","0","0","0","0","0","5beb425f1d34e300016e3fb4","1","9888","0"
"031519","13:50:38","376762390","611666838","4.0.10.0","1","2","demographics","age","0","0","0","0","0","0","32","1","6791","0"
"031519","13:50:38","376762390","611666838","4.0.10.0","1","3","demographics","gender","0","0","0","0","0","0","female","1","7726","0"
"031519","10:50:51","723399408","414168999","4.0.10.0","1","1","demographics","ProlificCode","0","0","0","0","0","0","5c574cab1f4e4400010c9d3d","1","12207","0"
"031519","10:50:51","723399408","414168999","4.0.10.0","1","2","demographics","age","0","0","0","0","0","0","27","1","3674","0"
"031519","10:50:51","723399408","414168999","4.0.10.0","1","3","demographics","gender","0","0","0","0","0","0","female","1","4498","0"
"031519","13:51:18","723045067","869860297","4.0.10.0","1","1","demographics","ProlificCode","0","0","0","0","0","0","5669fc987da0350012b39e9f","1","8248","0"
"031519","13:51:18","723045067","869860297","4.0.10.0","1","2","demographics","age","0","0","0","0","0","0","52","1","6101","0"
"031519","13:51:18","723045067","869860297","4.0.10.0","1","3","demographics","gender","0","0","0","0","0","0","Male","1","5921","0"
"031519","13:51:37","967521341","659185310","4.0.10.0","1","1","demographics","ProlificCode","0","0","0","0","0","0","58b6424b8f14260001a6bcd0","1","11763","0"
"031519","13:51:37","967521341","659185310","4.0.10.0","1","2","demographics","age","0","0","0","0","0","0","31","1","3682","0"
"031519","13:51:37","967521341","659185310","4.0.10.0","1","3","demographics","gender","0","0","0","0","0","0","male","1","4755","0"
"031519","13:51:34","741834820","25200793","4.0.10.0","1","1","demographics","ProlificCode","0","0","0","0","0","0","5b6008e12696a70001eee61b","1","4534","0"
"031519","13:51:34","741834820","25200793","4.0.10.0","1","2","demographics","age","0","0","0","0","0","0","41","1","5302","0"
"031519","13:51:34","741834820","25200793","4.0.10.0","1","3","demographics","gender","0","0","0","0","0","0","m","1","3848","0"
"031519","13:50:33","392337009","431389013","4.0.10.0","1","1","demographics","ProlificCode","0","0","0","0","0","0","5c4ba6a722df82000166ea8b","1","89989","0"
"031519","13:50:33","392337009","431389013","4.0.10.0","1","2","demographics","age","0","0","0","0","0","0","19","1","4403","0"
"031519","13:50:33","392337009","431389013","4.0.10.0","1","3","demographics","gender","0","0","0","0","0","0","Male","1","6563","0"
"031519","13:52:25","132954404","173195330","4.0.10.0","1","1","demographics","ProlificCode","0","0","0","0","0","0","5c5b1b609d974300015d85d4","1","3793","0"
"031519","13:52:25","132954404","173195330","4.0.10.0","1","2","demographics","age","0","0","0","0","0","0","32","1","3326","0"
"031519","13:52:25","132954404","173195330","4.0.10.0","1","3","demographics","gender","0","0","0","0","0","0","male","1","3562","0"
"031519","13:52:54","58749721","394191388","4.0.10.0","1","1","demographics","ProlificCode","0","0","0","0","0","0","5c42c4b05aca820001f71477","1","3766","0"
"031519","13:52:54","58749721","394191388","4.0.10.0","1","2","demographics","age","0","0","0","0","0","0","59","1","4281","0"
"031519","13:52:54","58749721","394191388","4.0.10.0","1","3","demographics","gender","0","0","0","0","0","0","Female","1","5565","0"
"031519","06:52:51","33270945","331844090","4.0.10.0","1","1","demographics","ProlificCode","0","0","0","0","0","0","55f7f2df32af7400101708f7","1","12794","0"
"031519","06:52:51","33270945","331844090","4.0.10.0","1","2","demographics","age","0","0","0","0","0","0","27","1","2986","0"
"031519","06:52:51","33270945","331844090","4.0.10.0","1","3","demographics","gender","0","0","0","0","0","0","Male","1","3209","0"
"031519","13:52:40","560594126","202902210","4.0.10.0","1","1","demographics","ProlificCode","0","0","0","0","0","0","585ffaf6a205a90001e7e30d","1","7995","0"
"031519","13:52:40","560594126","202902210","4.0.10.0","1","2","demographics","age","0","0","0","0","0","0","21","1","2237","0"
"031519","13:52:40","560594126","202902210","4.0.10.0","1","3","demographics","gender","0","0","0","0","0","0","Male","1","3027","0"
"031519","13:52:56","998491500","776944350","4.0.10.0","1","1","demographics","ProlificCode","0","0","0","0","0","0","5c37218fcae26e00013205ad","1","15330","0"
"031519","13:52:56","998491500","776944350","4.0.10.0","1","2","demographics","age","0","0","0","0","0","0","29","1","2643","0"
"031519","13:52:56","998491500","776944350","4.0.10.0","1","3","demographics","gender","0","0","0","0","0","0","Male","1","2724","0"
"031519","13:53:16","539557498","181865586","4.0.10.0","1","1","demographics","ProlificCode","0","0","0","0","0","0","5c81701127f8cb0016c93705","1","7630","0"
"031519","13:53:16","539557498","181865586","4.0.10.0","1","2","demographics","age","0","0","0","0","0","0","18","1","4080","0"
"031519","13:53:16","539557498","181865586","4.0.10.0","1","3","demographics","gender","0","0","0","0","0","0","Male","1","4805","0"
"031519","13:52:49","984564508","321184028","4.0.10.0","1","1","demographics","ProlificCode","0","0","0","0","0","0","5c58bdb5a2f0f6000157e4e6","1","32508","0"
"031519","13:52:49","984564508","321184028","4.0.10.0","1","2","demographics","age","0","0","0","0","0","0","41","1","9292","0"
"031519","13:52:49","984564508","321184028","4.0.10.0","1","3","demographics","gender","0","0","0","0","0","0","female","1","9318","0"
"031519","13:53:53","858063503","503351129","4.0.10.0","1","1","demographics","ProlificCode","0","0","0","0","0","0","5936fe11e727090001678d2c","1","8144","0"
"031519","13:53:53","858063503","503351129","4.0.10.0","1","2","demographics","age","0","0","0","0","0","0","40","1","4464","0"
"031519","13:53:53","858063503","503351129","4.0.10.0","1","3","demographics","gender","0","0","0","0","0","0","female","1","7370","0"
"031519","13:53:53","43940064","576529618","4.0.10.0","1","1","demographics","ProlificCode","0","0","0","0","0","0","55f2a7e332af740010170166","1","8884","0"
"031519","13:53:53","43940064","576529618","4.0.10.0","1","2","demographics","age","0","0","0","0","0","0","29","1","3007","0"
"031519","13:53:53","43940064","576529618","4.0.10.0","1","3","demographics","gender","0","0","0","0","0","0","female","1","4009","0"
"031519","09:54:16","995009863","527301308","4.0.10.0","1","1","demographics","ProlificCode","0","0","0","0","0","0","5c05cc4cc776820001be0347","1","12179","0"
"031519","09:54:16","995009863","527301308","4.0.10.0","1","2","demographics","age","0","0","0","0","0","0","28","1","3013","0"
"031519","09:54:16","995009863","527301308","4.0.10.0","1","3","demographics","gender","0","0","0","0","0","0","male","1","2799","0"
"031519","21:54:52","32849776","259858603","4.0.10.0","1","1","demographics","ProlificCode","0","0","0","0","0","0","","1","48617","0"
"031519","09:56:04","415323598","806189096","4.0.10.0","1","1","demographics","ProlificCode","0","0","0","0","0","0","5c32ab110091e40001cc7282","1","15726","0"
"031519","09:56:04","415323598","806189096","4.0.10.0","1","2","demographics","age","0","0","0","0","0","0","26","1","2558","0"
"031519","09:56:04","415323598","806189096","4.0.10.0","1","3","demographics","gender","0","0","0","0","0","0","male","1","3261","0"
"031519","13:54:46","606780484","325816439","4.0.10.0","1","1","demographics","ProlificCode","0","0","0","0","0","0","5c1528d4bc35fd00018c4f00","1","37079","0"
"031519","13:54:46","606780484","325816439","4.0.10.0","1","2","demographics","age","0","0","0","0","0","0","21","1","5771","0"
"031519","13:54:46","606780484","325816439","4.0.10.0","1","3","demographics","gender","0","0","0","0","0","0","female","1","8938","0"
"031519","13:56:54","476627642","982971467","4.0.10.0","1","1","demographics","ProlificCode","0","0","0","0","0","0","5b27dfb87f7816000146480c","1","8596","0"
"031519","13:56:54","476627642","982971467","4.0.10.0","1","2","demographics","age","0","0","0","0","0","0","18","1","3796","0"
"031519","13:56:54","476627642","982971467","4.0.10.0","1","3","demographics","gender","0","0","0","0","0","0","female","1","4077","0"
"031519","09:56:45","651027031","67840148","4.0.10.0","1","1","demographics","ProlificCode","0","0","0","0","0","0","5bf8898f6669ae000122e9ad","1","10951","0"
"031519","09:56:45","651027031","67840148","4.0.10.0","1","2","demographics","age","0","0","0","0","0","0","22","1","3719","0"
"031519","09:56:45","651027031","67840148","4.0.10.0","1","3","demographics","gender","0","0","0","0","0","0","Female","1","3556","0"
"031519","13:56:48","341659189","999172017","4.0.10.0","1","1","demographics","ProlificCode","0","0","0","0","0","0","5bec10c66b08bf0001e4ab7b","1","17561","0"
"031519","13:56:48","341659189","999172017","4.0.10.0","1","2","demographics","age","0","0","0","0","0","0","46","1","4302","0"
"031519","13:56:48","341659189","999172017","4.0.10.0","1","3","demographics","gender","0","0","0","0","0","0","female","1","6398","0"
"031519","09:57:14","197777988","698743276","4.0.10.0","1","1","demographics","ProlificCode","0","0","0","0","0","0","5b6ee4584acbad0001fd0481","1","7186","0"
"031519","09:57:14","197777988","698743276","4.0.10.0","1","2","demographics","age","0","0","0","0","0","0","25","1","3531","0"
"031519","09:57:14","197777988","698743276","4.0.10.0","1","3","demographics","gender","0","0","0","0","0","0","Female","1","3560","0"
"031519","13:57:20","785828563","505162654","4.0.10.0","1","1","demographics","ProlificCode","0","0","0","0","0","0","57ade933b7a5690001ae184a","1","7149","0"
"031519","13:57:20","785828563","505162654","4.0.10.0","1","2","demographics","age","0","0","0","0","0","0","27","1","5978","0"
"031519","13:57:20","785828563","505162654","4.0.10.0","1","3","demographics","gender","0","0","0","0","0","0","FEMALE","1","7582","0"
"031519","13:57:39","674302244","752576015","4.0.10.0","1","1","demographics","ProlificCode","0","0","0","0","0","0","5bfda1a8252ef20001524030","1","13571","0"
"031519","13:57:39","674302244","752576015","4.0.10.0","1","2","demographics","age","0","0","0","0","0","0","18","1","2923","0"
"031519","13:57:39","674302244","752576015","4.0.10.0","1","3","demographics","gender","0","0","0","0","0","0","female","1","2494","0"
"031519","13:57:24","70535423","850835713","4.0.10.0","1","1","demographics","ProlificCode","0","0","0","0","0","0","5b98701eb79d6d0001d08882","1","7768","0"
"031519","13:57:24","70535423","850835713","4.0.10.0","1","2","demographics","age","0","0","0","0","0","0","54","1","4710","0"
"031519","13:57:24","70535423","850835713","4.0.10.0","1","3","demographics","gender","0","0","0","0","0","0","male","1","4907","0"
"031519","13:58:00","556257717","667788225","4.0.10.0","1","1","demographics","ProlificCode","0","0","0","0","0","0","","1","19126","0"
"031519","13:58:24","381913669","734143895","4.0.10.0","1","1","demographics","ProlificCode","0","0","0","0","0","0","5c51c71e556ac300018be1b7","1","5330","0"
"031519","13:58:24","381913669","734143895","4.0.10.0","1","2","demographics","age","0","0","0","0","0","0","40","1","2662","0"
"031519","13:58:24","381913669","734143895","4.0.10.0","1","3","demographics","gender","0","0","0","0","0","0","male","1","5609","0"
"031519","13:58:30","674302244","752576015","4.0.10.0","1","1","demographics","ProlificCode","0","0","0","0","0","0","5bfda1a8252ef20001524030","1","3528","0"
"031519","13:58:30","674302244","752576015","4.0.10.0","1","2","demographics","age","0","0","0","0","0","0","18","1","2489","0"
"031519","13:58:30","674302244","752576015","4.0.10.0","1","3","demographics","gender","0","0","0","0","0","0","female","1","3660","0"
"031519","13:58:45","411839906","15397527","4.0.10.0","1","1","demographics","ProlificCode","0","0","0","0","0","0","56ea3053f20ef3000c946e75","1","5780","0"
"031519","13:58:45","411839906","15397527","4.0.10.0","1","2","demographics","age","0","0","0","0","0","0","28","1","5384","0"
"031519","13:58:45","411839906","15397527","4.0.10.0","1","3","demographics","gender","0","0","0","0","0","0","male","1","3426","0"
"031519","13:59:12","902887617","206333542","4.0.10.0","1","1","demographics","ProlificCode","0","0","0","0","0","0","5c54cab8e66e510001ee599e","1","3692","0"
"031519","13:59:12","902887617","206333542","4.0.10.0","1","2","demographics","age","0","0","0","0","0","0","50","1","3679","0"
"031519","13:59:12","902887617","206333542","4.0.10.0","1","3","demographics","gender","0","0","0","0","0","0","Female","1","4106","0"
"031519","13:58:38","102466674","603431960","4.0.10.0","1","1","demographics","ProlificCode","0","0","0","0","0","0","5c706265b21f1500014fa390","1","16076","0"
"031519","13:58:38","102466674","603431960","4.0.10.0","1","2","demographics","age","0","0","0","0","0","0","21","1","3336","0"
"031519","13:58:38","102466674","603431960","4.0.10.0","1","3","demographics","gender","0","0","0","0","0","0","Male","1","4912","0"
"031519","13:57:50","752866840","472200928","4.0.10.0","1","1","demographics","ProlificCode","0","0","0","0","0","0","5c1918d2a5c0df00011681ce","1","28826","0"
"031519","13:57:50","752866840","472200928","4.0.10.0","1","2","demographics","age","0","0","0","0","0","0","39","1","4632","0"
"031519","13:57:50","752866840","472200928","4.0.10.0","1","3","demographics","gender","0","0","0","0","0","0","female","1","6337","0"
"031519","13:59:19","3675944","893323259","4.0.10.0","1","1","demographics","ProlificCode","0","0","0","0","0","0","5c3a7da8f5ebd50001853e47","1","19498","0"
"031519","13:59:19","3675944","893323259","4.0.10.0","1","2","demographics","age","0","0","0","0","0","0","20","1","2886","0"
"031519","13:59:19","3675944","893323259","4.0.10.0","1","3","demographics","gender","0","0","0","0","0","0","Female","1","5941","0"
"031519","13:58:35","253320340","712739175","4.0.10.0","1","1","demographics","ProlificCode","0","0","0","0","0","0","594a96ecf36b7a000198f3df","1","5193","0"
"031519","13:58:35","253320340","712739175","4.0.10.0","1","2","demographics","age","0","0","0","0","0","0","31","1","3683","0"
"031519","13:58:35","253320340","712739175","4.0.10.0","1","3","demographics","gender","0","0","0","0","0","0","female","1","4153","0"
"031519","13:59:30","201837437","659802904","4.0.10.0","1","1","demographics","ProlificCode","0","0","0","0","0","0","59317a9fe7866d00016187e7","1","8194","0"
"031519","13:59:30","201837437","659802904","4.0.10.0","1","2","demographics","age","0","0","0","0","0","0","28","1","4357","0"
"031519","13:59:30","201837437","659802904","4.0.10.0","1","3","demographics","gender","0","0","0","0","0","0","female","1","12102","0"
"031519","13:59:59","315554622","594636730","4.0.10.0","1","1","demographics","ProlificCode","0","0","0","0","0","0","59e9bf613e4b5a00016aa6af","1","4680","0"
"031519","13:59:59","315554622","594636730","4.0.10.0","1","2","demographics","age","0","0","0","0","0","0","31","1","2701","0"
"031519","13:59:59","315554622","594636730","4.0.10.0","1","3","demographics","gender","0","0","0","0","0","0","female","1","4152","0"
"031519","14:00:21","193029891","51351075","4.0.10.0","1","1","demographics","ProlificCode","0","0","0","0","0","0","54dfac92fdf99b4b6b6595d9","1","2288","0"
"031519","14:00:21","193029891","51351075","4.0.10.0","1","2","demographics","age","0","0","0","0","0","0","47","1","2499","0"
"031519","14:00:21","193029891","51351075","4.0.10.0","1","3","demographics","gender","0","0","0","0","0","0","Male","1","3455","0"
"031519","13:56:31","354615994","823502382","4.0.10.0","1","1","demographics","ProlificCode","0","0","0","0","0","0","5c5af2cc2bde10001b7","1","230063","0"
"031519","13:56:31","354615994","823502382","4.0.10.0","1","2","demographics","age","0","0","0","0","0","0","50","1","6582","0"
"031519","13:56:31","354615994","823502382","4.0.10.0","1","3","demographics","gender","0","0","0","0","0","0","female","1","6255","0"
"031519","14:00:32","263043767","890408292","4.0.10.0","1","1","demographics","ProlificCode","0","0","0","0","0","0","5c7cf4e3ac90ae000144c9b9","1","20064","0"
"031519","14:00:32","263043767","890408292","4.0.10.0","1","2","demographics","age","0","0","0","0","0","0","26","1","2945","0"
"031519","14:00:32","263043767","890408292","4.0.10.0","1","3","demographics","gender","0","0","0","0","0","0","male","1","2762","0"
"031519","10:01:14","178607056","91440333","4.0.10.0","1","1","demographics","ProlificCode","0","0","0","0","0","0","5c51b115551b4a000153d6ae","1","16616","0"
"031519","10:01:14","178607056","91440333","4.0.10.0","1","2","demographics","age","0","0","0","0","0","0","34","1","3063","0"
"031519","10:01:14","178607056","91440333","4.0.10.0","1","3","demographics","gender","0","0","0","0","0","0","female","1","4339","0"
"031519","09:01:43","364074288","22764964","4.0.10.0","1","1","demographics","ProlificCode","0","0","0","0","0","0","5a67725b63394a000155abbb","1","6351","0"
"031519","09:01:43","364074288","22764964","4.0.10.0","1","2","demographics","age","0","0","0","0","0","0","43","1","5067","0"
"031519","09:01:43","364074288","22764964","4.0.10.0","1","3","demographics","gender","0","0","0","0","0","0","female","1","5018","0"
"031519","14:02:36","78240424","793290647","4.0.10.0","1","1","demographics","ProlificCode","0","0","0","0","0","0","5bdf1c1d8a08da0001895fb6","1","4183","0"
"031519","14:02:36","78240424","793290647","4.0.10.0","1","2","demographics","age","0","0","0","0","0","0","39","1","2888","0"
"031519","14:02:36","78240424","793290647","4.0.10.0","1","3","demographics","gender","0","0","0","0","0","0","Male","1","3583","0"
"031519","14:02:25","148261302","405682077","4.0.10.0","1","1","demographics","ProlificCode","0","0","0","0","0","0","a027d252e000105bda9","1","27111","0"
"031519","14:02:25","148261302","405682077","4.0.10.0","1","2","demographics","age","0","0","0","0","0","0","23","1","3045","0"
"031519","14:02:25","148261302","405682077","4.0.10.0","1","3","demographics","gender","0","0","0","0","0","0","Male","1","3369","0"
"031519","14:02:35","565834143","169689902","4.0.10.0","1","1","demographics","ProlificCode","0","0","0","0","0","0","5c7913da19b8d40001e6c651","1","9841","0"
"031519","14:02:35","565834143","169689902","4.0.10.0","1","2","demographics","age","0","0","0","0","0","0","25","1","2737","0"
"031519","14:02:35","565834143","169689902","4.0.10.0","1","3","demographics","gender","0","0","0","0","0","0","Male","1","2929","0"
"031519","14:02:26","510087826","562497132","4.0.10.0","1","1","demographics","ProlificCode","0","0","0","0","0","0","5c6cc9e2ffe5270001d3e90c","1","17702","0"
"031519","14:02:26","510087826","562497132","4.0.10.0","1","2","demographics","age","0","0","0","0","0","0","24","1","3689","0"
"031519","14:02:26","510087826","562497132","4.0.10.0","1","3","demographics","gender","0","0","0","0","0","0","Male","1","3881","0"
"031519","14:02:45","728381139","527618037","4.0.10.0","1","1","demographics","ProlificCode","0","0","0","0","0","0","","1","60114","0"
"031519","14:03:40","347330595","874439829","4.0.10.0","1","1","demographics","ProlificCode","0","0","0","0","0","0","564d1b57b48dec0005b518f0","1","10219","0"
"031519","14:03:40","347330595","874439829","4.0.10.0","1","2","demographics","age","0","0","0","0","0","0","30","1","3638","0"
"031519","14:03:40","347330595","874439829","4.0.10.0","1","3","demographics","gender","0","0","0","0","0","0","Male","1","5495","0"
"031519","14:03:44","207553170","428694346","4.0.10.0","1","1","demographics","ProlificCode","0","0","0","0","0","0","5c2f7fbb2c45d400014ad89a","1","22225","0"
"031519","14:03:44","207553170","428694346","4.0.10.0","1","2","demographics","age","0","0","0","0","0","0","21","1","3589","0"
"031519","14:03:44","207553170","428694346","4.0.10.0","1","3","demographics","gender","0","0","0","0","0","0","male","1","3742","0"
"031519","10:03:47","231090279","65902677","4.0.10.0","1","1","demographics","ProlificCode","0","0","0","0","0","0","59d65d404f19050001763c39","1","7866","0"
"031519","10:03:47","231090279","65902677","4.0.10.0","1","2","demographics","age","0","0","0","0","0","0","34","1","4769","0"
"031519","10:03:47","231090279","65902677","4.0.10.0","1","3","demographics","gender","0","0","0","0","0","0","female","1","6279","0"
"031519","14:04:40","631848799","737917623","4.0.10.0","1","1","demographics","ProlificCode","0","0","0","0","0","0","5c18c1db8f67bd0001f72d30","1","6309","0"
"031519","14:04:40","631848799","737917623","4.0.10.0","1","2","demographics","age","0","0","0","0","0","0","52","1","6567","0"
"031519","14:04:40","631848799","737917623","4.0.10.0","1","3","demographics","gender","0","0","0","0","0","0","male","1","6403","0"
"031519","10:04:55","392577144","193363352","4.0.10.0","1","1","demographics","ProlificCode","0","0","0","0","0","0","5c40cd0bfe87360001a564a0","1","7471","0"
"031519","10:04:55","392577144","193363352","4.0.10.0","1","2","demographics","age","0","0","0","0","0","0","32","1","3307","0"
"031519","10:04:55","392577144","193363352","4.0.10.0","1","3","demographics","gender","0","0","0","0","0","0","Female","1","4177","0"
"031519","14:04:51","728381139","527618037","4.0.10.0","1","1","demographics","ProlificCode","0","0","0","0","0","0","5705655861ab6a000ed482df","1","12185","0"
"031519","14:04:51","728381139","527618037","4.0.10.0","1","2","demographics","age","0","0","0","0","0","0","47","1","4515","0"
"031519","14:04:51","728381139","527618037","4.0.10.0","1","3","demographics","gender","0","0","0","0","0","0","Male","1","6931","0"
"031519","10:04:38","407384853","172480377","4.0.10.0","1","1","demographics","ProlificCode","0","0","0","0","0","0","5c732f631388ff0001100e6d","1","4146","0"
"031519","10:04:38","407384853","172480377","4.0.10.0","1","2","demographics","age","0","0","0","0","0","0","38","1","3512","0"
"031519","10:04:38","407384853","172480377","4.0.10.0","1","3","demographics","gender","0","0","0","0","0","0","Female","1","4064","0"
"031519","14:01:52","647284899","451948998","4.0.10.0","1","1","demographics","ProlificCode","0","0","0","0","0","0","","1","445474","0"
"031519","14:04:47","239263994","559200334","4.0.10.0","1","1","demographics","ProlificCode","0","0","0","0","0","0","5c5c7c598da44c00015c6787","1","6428","0"
"031519","14:04:47","239263994","559200334","4.0.10.0","1","2","demographics","age","0","0","0","0","0","0","64","1","4022","0"
"031519","14:04:47","239263994","559200334","4.0.10.0","1","3","demographics","gender","0","0","0","0","0","0","female","1","4904","0"
"031519","14:03:02","637220587","689331768","4.0.10.0","1","1","demographics","ProlificCode","0","0","0","0","0","0","5c3cb1b98bdcf400011dbe02","1","136071","0"
"031519","14:03:02","637220587","689331768","4.0.10.0","1","2","demographics","age","0","0","0","0","0","0","53","1","5579","0"
"031519","14:03:02","637220587","689331768","4.0.10.0","1","3","demographics","gender","0","0","0","0","0","0","female","1","7448","0"
"031519","14:05:24","211202741","531437207","4.0.10.0","1","1","demographics","ProlificCode","0","0","0","0","0","0","5c62eb6ff558a80001762ec4 ","1","8749","0"
"031519","14:05:24","211202741","531437207","4.0.10.0","1","2","demographics","age","0","0","0","0","0","0","19","1","2875","0"
"031519","14:05:24","211202741","531437207","4.0.10.0","1","3","demographics","gender","0","0","0","0","0","0","female","1","5084","0"
"031519","14:05:28","424457476","238880482","4.0.10.0","1","1","demographics","ProlificCode","0","0","0","0","0","0","5b8707288e5b7500014c5714","1","10871","0"
"031519","14:05:28","424457476","238880482","4.0.10.0","1","2","demographics","age","0","0","0","0","0","0","49","1","8098","0"
"031519","14:05:28","424457476","238880482","4.0.10.0","1","3","demographics","gender","0","0","0","0","0","0","Female","1","4034","0"
"031519","10:05:25","896994136","851893964","4.0.10.0","1","1","demographics","ProlificCode","0","0","0","0","0","0","5b11f11d1e55760001b9e1dd","1","16089","0"
"031519","10:05:25","896994136","851893964","4.0.10.0","1","2","demographics","age","0","0","0","0","0","0","19","1","7961","0"
"031519","10:05:25","896994136","851893964","4.0.10.0","1","3","demographics","gender","0","0","0","0","0","0","male","1","7815","0"
"031519","14:05:45","704123941","728740624","4.0.10.0","1","1","demographics","ProlificCode","0","0","0","0","0","0","5c46a62056f2780001bf6dc6","1","4694","0"
"031519","14:05:45","704123941","728740624","4.0.10.0","1","2","demographics","age","0","0","0","0","0","0","35","1","2650","0"
"031519","14:05:45","704123941","728740624","4.0.10.0","1","3","demographics","gender","0","0","0","0","0","0","Male","1","3877","0"
"031519","14:05:43","247492981","777022764","4.0.10.0","1","1","demographics","ProlificCode","0","0","0","0","0","0","5c2d5d3a5005b60001ad0cf5","1","11782","0"
"031519","14:05:43","247492981","777022764","4.0.10.0","1","2","demographics","age","0","0","0","0","0","0","31","1","6956","0"
"031519","14:05:43","247492981","777022764","4.0.10.0","1","3","demographics","gender","0","0","0","0","0","0","Female","1","4516","0"
"031519","14:09:51","574518684","293852761","4.0.10.0","1","1","demographics","ProlificCode","0","0","0","0","0","0","5c830bf4d24531000168143a","1","5640","0"
"031519","14:09:51","574518684","293852761","4.0.10.0","1","2","demographics","age","0","0","0","0","0","0","47","1","8387","0"
"031519","14:09:51","574518684","293852761","4.0.10.0","1","3","demographics","gender","0","0","0","0","0","0","male","1","6143","0"
"031519","14:05:27","974879956","624776678","4.0.10.0","1","1","demographics","ProlificCode","0","0","0","0","0","0","5c7ed588d46b39001531ba94","1","38906","0"
"031519","14:05:27","974879956","624776678","4.0.10.0","1","2","demographics","age","0","0","0","0","0","0","23","1","5025","0"
"031519","14:05:27","974879956","624776678","4.0.10.0","1","3","demographics","gender","0","0","0","0","0","0","female","1","5047","0"
"031519","14:04:36","226288660","755818443","4.0.10.0","1","1","demographics","ProlificCode","0","0","0","0","0","0","5c3cc3bad06aa00001ebc484","1","109084","0"
"031519","14:04:36","226288660","755818443","4.0.10.0","1","2","demographics","age","0","0","0","0","0","0","38","1","3224","0"
"031519","14:04:36","226288660","755818443","4.0.10.0","1","3","demographics","gender","0","0","0","0","0","0","female","1","4152","0"
"031519","14:06:12","428892804","229679013","4.0.10.0","1","1","demographics","ProlificCode","0","0","0","0","0","0","5c519ec789254700019f7934","1","7391","0"
"031519","14:06:12","428892804","229679013","4.0.10.0","1","2","demographics","age","0","0","0","0","0","0","40","1","3717","0"
"031519","14:06:12","428892804","229679013","4.0.10.0","1","3","demographics","gender","0","0","0","0","0","0","female","1","5703","0"
"031519","14:06:21","274466584","229366395","4.0.10.0","1","1","demographics","ProlificCode","0","0","0","0","0","0","5c716a42e165d10001e8db82f","1","95932","0"
"031519","14:06:21","274466584","229366395","4.0.10.0","1","2","demographics","age","0","0","0","0","0","0","24","1","2641","0"
"031519","14:06:21","274466584","229366395","4.0.10.0","1","3","demographics","gender","0","0","0","0","0","0","male","1","3043","0"
"031519","14:07:16","381602702","259414919","4.0.10.0","1","1","demographics","ProlificCode","0","0","0","0","0","0","5c816b816fa68d0015f4e6ca","1","62526","0"
"031519","14:07:16","381602702","259414919","4.0.10.0","1","2","demographics","age","0","0","0","0","0","0","28","1","6594","0"
"031519","14:07:16","381602702","259414919","4.0.10.0","1","3","demographics","gender","0","0","0","0","0","0","Female","1","3940","0"
"031519","10:09:28","776800408","421808539","4.0.10.0","1","1","demographics","ProlificCode","0","0","0","0","0","0","5c2eb9c30091e40001cba678","1","15446","0"
"031519","10:09:28","776800408","421808539","4.0.10.0","1","2","demographics","age","0","0","0","0","0","0","29","1","3702","0"
"031519","10:09:28","776800408","421808539","4.0.10.0","1","3","demographics","gender","0","0","0","0","0","0","female","1","3428","0"
"031519","14:09:24","132954404","173195330","4.0.10.0","1","1","demographics","ProlificCode","0","0","0","0","0","0","5c5b1b609d974300015d85d4","1","29443","0"
"031519","14:09:24","132954404","173195330","4.0.10.0","1","2","demographics","age","0","0","0","0","0","0","31","1","4842","0"
"031519","14:09:24","132954404","173195330","4.0.10.0","1","3","demographics","gender","0","0","0","0","0","0","male","1","4084","0"
"031519","14:13:12","434724745","445981678","4.0.10.0","1","1","demographics","ProlificCode","0","0","0","0","0","0","5c730ca1f674750001df8d09","1","11427","0"
"031519","14:13:12","434724745","445981678","4.0.10.0","1","2","demographics","age","0","0","0","0","0","0","29","1","4550","0"
"031519","14:13:12","434724745","445981678","4.0.10.0","1","3","demographics","gender","0","0","0","0","0","0","female","1","6517","0"
"031519","14:19:03","381602702","259414919","4.0.10.0","1","1","demographics","ProlificCode","0","0","0","0","0","0","5c816b816fa68d0015f4e6ca","1","26598","0"
"031519","14:19:03","381602702","259414919","4.0.10.0","1","2","demographics","age","0","0","0","0","0","0","28","1","5468","0"
"031519","14:19:03","381602702","259414919","4.0.10.0","1","3","demographics","gender","0","0","0","0","0","0","Female","1","3635","0"
"031519","15:51:13","401538739","63335408","4.0.10.0","1","1","demographics","ProlificCode","0","0","0","0","0","0","5c670b89cfb22100016a60e2","1","10031","0"
"031519","15:51:13","401538739","63335408","4.0.10.0","1","2","demographics","age","0","0","0","0","0","0","27","1","3602","0"
"031519","15:51:13","401538739","63335408","4.0.10.0","1","3","demographics","gender","0","0","0","0","0","0","Agender","1","5064","0"
"031519","16:00:50","851605809","521258191","4.0.10.0","1","1","demographics","ProlificCode","0","0","0","0","0","0","5c6bface4e6ad40001f0aaa9  ","1","47405","0"
"031519","16:02:00","695716955","792625375","4.0.10.0","1","1","demographics","ProlificCode","0","0","0","0","0","0","5c6bface4e6ad40001f0aaa9","1","5200","0"
"031519","16:02:00","695716955","792625375","4.0.10.0","1","2","demographics","age","0","0","0","0","0","0","39 ","1","6580","0"
"031519","16:02:00","695716955","792625375","4.0.10.0","1","3","demographics","gender","0","0","0","0","0","0","female","1","5779","0"
"031519","17:11:59","529415905","383313835","4.0.10.0","1","1","demographics","ProlificCode","0","0","0","0","0","0","5b4b28a5b8b20a00015a3542","1","19281","0"
"031519","17:11:59","529415905","383313835","4.0.10.0","1","2","demographics","age","0","0","0","0","0","0","26","1","5090","0"
"031519","17:11:59","529415905","383313835","4.0.10.0","1","3","demographics","gender","0","0","0","0","0","0","Female","1","3948","0"
"031519","17:12:48","763695764","465246862","4.0.10.0","1","1","demographics","ProlificCode","0","0","0","0","0","0","5b03bbe9331e8100018f63cf","1","5369","0"
"031519","17:12:48","763695764","465246862","4.0.10.0","1","2","demographics","age","0","0","0","0","0","0","47","1","3907","0"
"031519","17:12:48","763695764","465246862","4.0.10.0","1","3","demographics","gender","0","0","0","0","0","0","male","1","4668","0"
"031519","17:12:53","362591081","926115461","4.0.10.0","1","1","demographics","ProlificCode","0","0","0","0","0","0","5b7ecd2ef5d86100017bd4d8","1","15765","0"
"031519","17:12:53","362591081","926115461","4.0.10.0","1","2","demographics","age","0","0","0","0","0","0","22","1","3445","0"
"031519","17:12:53","362591081","926115461","4.0.10.0","1","3","demographics","gender","0","0","0","0","0","0","Male","1","3543","0"
"031519","17:13:55","698999143","85949621","4.0.10.0","1","1","demographics","ProlificCode","0","0","0","0","0","0","595e744fba58f30001d47b3f","1","13914","0"
"031519","17:13:55","698999143","85949621","4.0.10.0","1","2","demographics","age","0","0","0","0","0","0","27","1","3374","0"
"031519","17:13:55","698999143","85949621","4.0.10.0","1","3","demographics","gender","0","0","0","0","0","0","Male","1","4311","0"
"031519","17:14:48","570978178","510795046","4.0.10.0","1","1","demographics","ProlificCode","0","0","0","0","0","0","5aef5e0276b7630001330b37","1","2811","0"
"031519","17:14:48","570978178","510795046","4.0.10.0","1","2","demographics","age","0","0","0","0","0","0","22","1","2179","0"
"031519","17:14:48","570978178","510795046","4.0.10.0","1","3","demographics","gender","0","0","0","0","0","0","male","1","2713","0"
"031519","12:14:46","925898041","770187176","4.0.10.0","1","1","demographics","ProlificCode","0","0","0","0","0","0","5c005838232b6c0001221acf","1","4638","0"
"031519","12:14:46","925898041","770187176","4.0.10.0","1","2","demographics","age","0","0","0","0","0","0","20","1","4760","0"
"031519","12:14:46","925898041","770187176","4.0.10.0","1","3","demographics","gender","0","0","0","0","0","0","FEMALE","1","6909","0"
"031519","17:15:34","944810505","788801514","4.0.10.0","1","1","demographics","ProlificCode","0","0","0","0","0","0","568e3e02e3ef9e000ca13b18","1","6587","0"
"031519","17:15:34","944810505","788801514","4.0.10.0","1","2","demographics","age","0","0","0","0","0","0","32","1","3502","0"
"031519","17:15:34","944810505","788801514","4.0.10.0","1","3","demographics","gender","0","0","0","0","0","0","female","1","5384","0"
"031619","04:15:24","23569555","943454472","4.0.10.0","1","1","demographics","ProlificCode","0","0","0","0","0","0","5be036055db0ca0001b37ded","1","16390","0"
"031619","04:15:24","23569555","943454472","4.0.10.0","1","2","demographics","age","0","0","0","0","0","0","21","1","2275","0"
"031619","04:15:24","23569555","943454472","4.0.10.0","1","3","demographics","gender","0","0","0","0","0","0","Male","1","9322","0"
"031519","13:15:45","610258406","240806961","4.0.10.0","1","1","demographics","ProlificCode","0","0","0","0","0","0","5c49c9c5d9326c0001f3effe","1","12445","0"
"031519","13:15:45","610258406","240806961","4.0.10.0","1","2","demographics","age","0","0","0","0","0","0","27","1","5661","0"
"031519","13:15:45","610258406","240806961","4.0.10.0","1","3","demographics","gender","0","0","0","0","0","0","MALE","1","3451","0"
"031519","13:16:53","929316052","235220356","4.0.10.0","1","1","demographics","ProlificCode","0","0","0","0","0","0","5c00c9ec881e700001c2bb05","1","10584","0"
"031519","13:16:53","929316052","235220356","4.0.10.0","1","2","demographics","age","0","0","0","0","0","0","19","1","2617","0"
"031519","13:16:53","929316052","235220356","4.0.10.0","1","3","demographics","gender","0","0","0","0","0","0","male","1","3467","0"
"031519","11:17:41","101774064","41889064","4.0.10.0","1","1","demographics","ProlificCode","0","0","0","0","0","0","5c5a060fcb75f20001e60f78","1","6080","0"
"031519","11:17:41","101774064","41889064","4.0.10.0","1","2","demographics","age","0","0","0","0","0","0","24","1","3305","0"
"031519","11:17:41","101774064","41889064","4.0.10.0","1","3","demographics","gender","0","0","0","0","0","0","Male","1","3092","0"
"031519","11:23:32","468121995","540633250","4.0.10.0","1","1","demographics","ProlificCode","0","0","0","0","0","0","5c43ee603be7b70001fd4ab4 ","1","4021","0"
"031519","11:23:32","468121995","540633250","4.0.10.0","1","2","demographics","age","0","0","0","0","0","0","21","1","2878","0"
"031519","11:23:32","468121995","540633250","4.0.10.0","1","3","demographics","gender","0","0","0","0","0","0","Female","1","3831","0"
"031519","17:18:31","326749666","529534103","4.0.10.0","1","1","demographics","ProlificCode","0","0","0","0","0","0","5c7427d637793100010f8bff","1","14022","0"
"031519","17:18:31","326749666","529534103","4.0.10.0","1","2","demographics","age","0","0","0","0","0","0","22","1","4254","0"
"031519","17:18:31","326749666","529534103","4.0.10.0","1","3","demographics","gender","0","0","0","0","0","0","female","1","4697","0"
"031519","13:19:14","932633867","135418330","4.0.10.0","1","1","demographics","ProlificCode","0","0","0","0","0","0","","1","10210","0"
"031519","13:19:17","880263213","363039574","4.0.10.0","1","1","demographics","ProlificCode","0","0","0","0","0","0","5bf4d2f38f12ac00018ad9de","1","5050","0"
"031519","13:19:17","880263213","363039574","4.0.10.0","1","2","demographics","age","0","0","0","0","0","0","19","1","4121","0"
"031519","13:19:17","880263213","363039574","4.0.10.0","1","3","demographics","gender","0","0","0","0","0","0","Female","1","6058","0"
"031519","13:19:43","425858247","527767466","4.0.10.0","1","1","demographics","ProlificCode","0","0","0","0","0","0","5656389d995911000f482b7d","1","2612","0"
"031519","13:19:43","425858247","527767466","4.0.10.0","1","2","demographics","age","0","0","0","0","0","0","35","1","3409","0"
