"date","time","group","subject","build","blocknum","trialnum","blockcode","trialcode","pretrialpause","posttrialpause","windowcenter","trialduration","trialtimeout","blocktimeout","response","correct","latency","inwindow"
"031419","15:29:13","58832022","870500023","4.0.10.0","1","1","end_of_study_questions_ufirst","awareness","0","0","0","0","0","0","none","1","6943","0"
"031419","15:29:13","58832022","870500023","4.0.10.0","1","2","end_of_study_questions_ufirst","influence_general","0","0","0","0","0","0","none","1","2455","0"
"031419","15:29:13","58832022","870500023","4.0.10.0","1","3","end_of_study_questions_ufirst","unintentionality","0","0","0","0","0","0","none","1","2947","0"
"031419","15:29:13","58832022","870500023","4.0.10.0","1","4","end_of_study_questions_ufirst","intentionality","0","0","0","0","0","0","none","1","3009","0"
"031419","15:29:13","58832022","870500023","4.0.10.0","1","5","end_of_study_questions_ufirst","self_exclusion_1","0","0","0","0","0","0","No, exclude my data (please specify why):","1","4438","0"
"031419","15:29:13","58832022","870500023","4.0.10.0","1","5","end_of_study_questions_ufirst","self_exclusion_1other","0","0","0","0","0","0","hk","1","4438","0"
"031419","15:54:20","464455574","898951393","4.0.10.0","1","1","end_of_study_questions_ufirst","awareness","0","0","0","0","0","0","","1","2718","0"
"031519","12:25:05","502381355","512611727","4.0.10.0","1","1","end_of_study_questions_ufirst","awareness","0","0","0","0","0","0","less than half","1","27089","0"
"031519","12:25:05","502381355","512611727","4.0.10.0","1","2","end_of_study_questions_ufirst","influence_general","0","0","0","0","0","0","less than half","1","5231","0"
"031519","12:25:05","502381355","512611727","4.0.10.0","1","3","end_of_study_questions_ufirst","unintentionality","0","0","0","0","0","0","less than half","1","4624","0"
"031519","12:25:05","502381355","512611727","4.0.10.0","1","4","end_of_study_questions_ufirst","intentionality","0","0","0","0","0","0","none","1","5209","0"
"031519","12:25:05","502381355","512611727","4.0.10.0","1","5","end_of_study_questions_ufirst","self_exclusion_1","0","0","0","0","0","0","Yes, use my data","1","8367","0"
"031519","12:25:05","502381355","512611727","4.0.10.0","1","5","end_of_study_questions_ufirst","self_exclusion_1other","0","0","0","0","0","0","","1","8367","0"
"031519","23:35:12","127219859","144535166","4.0.10.0","1","1","end_of_study_questions_ifirst","awareness","0","0","0","0","0","0","all","1","12153","0"
"031519","23:35:12","127219859","144535166","4.0.10.0","1","2","end_of_study_questions_ifirst","influence_general","0","0","0","0","0","0","a few","1","6876","0"
"031519","23:35:12","127219859","144535166","4.0.10.0","1","3","end_of_study_questions_ifirst","intentionality","0","0","0","0","0","0","none","1","6800","0"
"031519","23:35:12","127219859","144535166","4.0.10.0","1","4","end_of_study_questions_ifirst","unintentionality","0","0","0","0","0","0","a few","1","4817","0"
"031519","23:35:12","127219859","144535166","4.0.10.0","1","5","end_of_study_questions_ifirst","self_exclusion_1","0","0","0","0","0","0","Yes, use my data","1","26429","0"
"031519","23:35:12","127219859","144535166","4.0.10.0","1","5","end_of_study_questions_ifirst","self_exclusion_1other","0","0","0","0","0","0","","1","26429","0"
"031519","12:53:01","807491352","438458371","4.0.10.0","1","1","end_of_study_questions_ufirst","awareness","0","0","0","0","0","0","all","1","23799","0"
"031519","12:53:01","807491352","438458371","4.0.10.0","1","2","end_of_study_questions_ufirst","influence_general","0","0","0","0","0","0","none","1","8350","0"
"031519","12:53:01","807491352","438458371","4.0.10.0","1","3","end_of_study_questions_ufirst","unintentionality","0","0","0","0","0","0","none","1","12116","0"
"031519","12:53:01","807491352","438458371","4.0.10.0","1","4","end_of_study_questions_ufirst","intentionality","0","0","0","0","0","0","none","1","7014","0"
"031519","12:53:01","807491352","438458371","4.0.10.0","1","5","end_of_study_questions_ufirst","self_exclusion_1","0","0","0","0","0","0","Yes, use my data","1","8564","0"
"031519","12:53:01","807491352","438458371","4.0.10.0","1","5","end_of_study_questions_ufirst","self_exclusion_1other","0","0","0","0","0","0","","1","8564","0"
"031519","09:02:15","410833745","6953868","4.0.10.0","1","1","end_of_study_questions_ifirst","awareness","0","0","0","0","0","0","","1","2278","0"
"031519","13:02:26","553009849","202158371","4.0.10.0","1","1","end_of_study_questions_ufirst","awareness","0","0","0","0","0","0","about half","1","39248","0"
"031519","13:02:26","553009849","202158371","4.0.10.0","1","2","end_of_study_questions_ufirst","influence_general","0","0","0","0","0","0","about half","1","10495","0"
"031519","13:02:26","553009849","202158371","4.0.10.0","1","3","end_of_study_questions_ufirst","unintentionality","0","0","0","0","0","0","about half","1","6839","0"
"031519","13:02:26","553009849","202158371","4.0.10.0","1","4","end_of_study_questions_ufirst","intentionality","0","0","0","0","0","0","about half","1","7295","0"
"031519","13:02:26","553009849","202158371","4.0.10.0","1","5","end_of_study_questions_ufirst","self_exclusion_1","0","0","0","0","0","0","Yes, use my data","1","7128","0"
"031519","13:02:26","553009849","202158371","4.0.10.0","1","5","end_of_study_questions_ufirst","self_exclusion_1other","0","0","0","0","0","0","","1","7128","0"
"031519","13:06:20","31714135","115650521","4.0.10.0","1","1","end_of_study_questions_ufirst","awareness","0","0","0","0","0","0","all","1","11140","0"
"031519","13:06:20","31714135","115650521","4.0.10.0","1","2","end_of_study_questions_ufirst","influence_general","0","0","0","0","0","0","none","1","5727","0"
"031519","13:06:20","31714135","115650521","4.0.10.0","1","3","end_of_study_questions_ufirst","unintentionality","0","0","0","0","0","0","a few","1","7050","0"
"031519","13:06:20","31714135","115650521","4.0.10.0","1","4","end_of_study_questions_ufirst","intentionality","0","0","0","0","0","0","none","1","27072","0"
"031519","13:06:20","31714135","115650521","4.0.10.0","1","5","end_of_study_questions_ufirst","self_exclusion_1","0","0","0","0","0","0","Yes, use my data","1","5147","0"
"031519","13:06:20","31714135","115650521","4.0.10.0","1","5","end_of_study_questions_ufirst","self_exclusion_1other","0","0","0","0","0","0","","1","5147","0"
"031519","09:03:23","839609764","613037481","4.0.10.0","1","1","end_of_study_questions_ufirst","awareness","0","0","0","0","0","0","all","1","14163","0"
"031519","09:03:23","839609764","613037481","4.0.10.0","1","2","end_of_study_questions_ufirst","influence_general","0","0","0","0","0","0","none","1","7174","0"
"031519","09:03:23","839609764","613037481","4.0.10.0","1","3","end_of_study_questions_ufirst","unintentionality","0","0","0","0","0","0","none","1","7810","0"
"031519","09:03:23","839609764","613037481","4.0.10.0","1","4","end_of_study_questions_ufirst","intentionality","0","0","0","0","0","0","none","1","6126","0"
"031519","09:03:23","839609764","613037481","4.0.10.0","1","5","end_of_study_questions_ufirst","self_exclusion_1","0","0","0","0","0","0","Yes, use my data","1","16228","0"
"031519","09:03:23","839609764","613037481","4.0.10.0","1","5","end_of_study_questions_ufirst","self_exclusion_1other","0","0","0","0","0","0","","1","16228","0"
"031519","13:05:23","68873509","602548494","4.0.10.0","1","1","end_of_study_questions_ifirst","awareness","0","0","0","0","0","0","all","1","8757","0"
"031519","13:05:23","68873509","602548494","4.0.10.0","1","2","end_of_study_questions_ifirst","influence_general","0","0","0","0","0","0","none","1","6217","0"
"031519","13:05:23","68873509","602548494","4.0.10.0","1","3","end_of_study_questions_ifirst","intentionality","0","0","0","0","0","0","none","1","9335","0"
"031519","13:05:23","68873509","602548494","4.0.10.0","1","4","end_of_study_questions_ifirst","unintentionality","0","0","0","0","0","0","none","1","5401","0"
"031519","13:05:23","68873509","602548494","4.0.10.0","1","5","end_of_study_questions_ifirst","self_exclusion_1","0","0","0","0","0","0","Yes, use my data","1","6040","0"
"031519","13:05:23","68873509","602548494","4.0.10.0","1","5","end_of_study_questions_ifirst","self_exclusion_1other","0","0","0","0","0","0","","1","6040","0"
"031519","13:06:40","305032034","190080177","4.0.10.0","1","1","end_of_study_questions_ufirst","awareness","0","0","0","0","0","0","all","1","15218","0"
"031519","13:06:40","305032034","190080177","4.0.10.0","1","2","end_of_study_questions_ufirst","influence_general","0","0","0","0","0","0","a few","1","8263","0"
"031519","13:06:40","305032034","190080177","4.0.10.0","1","3","end_of_study_questions_ufirst","unintentionality","0","0","0","0","0","0","a few","1","13182","0"
"031519","13:06:40","305032034","190080177","4.0.10.0","1","4","end_of_study_questions_ufirst","intentionality","0","0","0","0","0","0","a few","1","5284","0"
"031519","13:06:40","305032034","190080177","4.0.10.0","1","5","end_of_study_questions_ufirst","self_exclusion_1","0","0","0","0","0","0","Yes, use my data","1","12157","0"
"031519","13:06:40","305032034","190080177","4.0.10.0","1","5","end_of_study_questions_ufirst","self_exclusion_1other","0","0","0","0","0","0","","1","12157","0"
"031519","13:09:57","824331117","68993172","4.0.10.0","1","1","end_of_study_questions_ifirst","awareness","0","0","0","0","0","0","all","1","10939","0"
"031519","13:09:57","824331117","68993172","4.0.10.0","1","2","end_of_study_questions_ifirst","influence_general","0","0","0","0","0","0","a few","1","9085","0"
"031519","13:09:57","824331117","68993172","4.0.10.0","1","3","end_of_study_questions_ifirst","intentionality","0","0","0","0","0","0","none","1","7134","0"
"031519","13:09:57","824331117","68993172","4.0.10.0","1","4","end_of_study_questions_ifirst","unintentionality","0","0","0","0","0","0","a few","1","5333","0"
"031519","13:09:57","824331117","68993172","4.0.10.0","1","5","end_of_study_questions_ifirst","self_exclusion_1","0","0","0","0","0","0","Yes, use my data","1","3745","0"
"031519","13:09:57","824331117","68993172","4.0.10.0","1","5","end_of_study_questions_ifirst","self_exclusion_1other","0","0","0","0","0","0","","1","3745","0"
"031519","13:17:17","347862908","10805941","4.0.10.0","1","1","end_of_study_questions_ufirst","awareness","0","0","0","0","0","0","most","1","12970","0"
"031519","13:17:17","347862908","10805941","4.0.10.0","1","2","end_of_study_questions_ufirst","influence_general","0","0","0","0","0","0","none","1","6521","0"
"031519","13:17:17","347862908","10805941","4.0.10.0","1","3","end_of_study_questions_ufirst","unintentionality","0","0","0","0","0","0","none","1","8130","0"
"031519","13:17:17","347862908","10805941","4.0.10.0","1","4","end_of_study_questions_ufirst","intentionality","0","0","0","0","0","0","none","1","6124","0"
"031519","13:17:17","347862908","10805941","4.0.10.0","1","5","end_of_study_questions_ufirst","self_exclusion_1","0","0","0","0","0","0","No, exclude my data (please specify why):","1","109315","0"
"031519","13:17:17","347862908","10805941","4.0.10.0","1","5","end_of_study_questions_ufirst","self_exclusion_1other","0","0","0","0","0","0","The images appeared so quickly that it wasn't possible to make any judgement onthe images, especically the painitngs. The black/grey image after the two images were shown was unpleasant and distractig.","1","109315","0"
"031519","13:10:05","174687233","93940251","4.0.10.0","1","1","end_of_study_questions_ufirst","awareness","0","0","0","0","0","0","about half","1","11138","0"
"031519","13:10:05","174687233","93940251","4.0.10.0","1","2","end_of_study_questions_ufirst","influence_general","0","0","0","0","0","0","none","1","4029","0"
"031519","13:10:05","174687233","93940251","4.0.10.0","1","3","end_of_study_questions_ufirst","unintentionality","0","0","0","0","0","0","none","1","3021","0"
"031519","13:10:05","174687233","93940251","4.0.10.0","1","4","end_of_study_questions_ufirst","intentionality","0","0","0","0","0","0","none","1","2275","0"
"031519","13:10:05","174687233","93940251","4.0.10.0","1","5","end_of_study_questions_ufirst","self_exclusion_1","0","0","0","0","0","0","No, exclude my data (please specify why):","1","64618","0"
"031519","13:10:05","174687233","93940251","4.0.10.0","1","5","end_of_study_questions_ufirst","self_exclusion_1other","0","0","0","0","0","0","My test didn't work properly. I only saw the second picture for a fraction of a second before I got a white and black fuzzy screen, so I was unable to evaluate the second picture. This happened on both parts of the test and as such, my data will not be useful.","1","64618","0"
"031519","06:11:35","820575150","850846837","4.0.10.0","1","1","end_of_study_questions_ufirst","awareness","0","0","0","0","0","0","all","1","8358","0"
"031519","06:11:35","820575150","850846837","4.0.10.0","1","2","end_of_study_questions_ufirst","influence_general","0","0","0","0","0","0","none","1","5985","0"
"031519","06:11:35","820575150","850846837","4.0.10.0","1","3","end_of_study_questions_ufirst","unintentionality","0","0","0","0","0","0","none","1","5282","0"
"031519","06:11:35","820575150","850846837","4.0.10.0","1","4","end_of_study_questions_ufirst","intentionality","0","0","0","0","0","0","none","1","3821","0"
"031519","06:11:35","820575150","850846837","4.0.10.0","1","5","end_of_study_questions_ufirst","self_exclusion_1","0","0","0","0","0","0","Yes, use my data","1","7827","0"
"031519","06:11:35","820575150","850846837","4.0.10.0","1","5","end_of_study_questions_ufirst","self_exclusion_1other","0","0","0","0","0","0","","1","7827","0"
"031519","13:11:17","743770280","171053919","4.0.10.0","1","1","end_of_study_questions_ufirst","awareness","0","0","0","0","0","0","all","1","28078","0"
"031519","13:11:17","743770280","171053919","4.0.10.0","1","2","end_of_study_questions_ufirst","influence_general","0","0","0","0","0","0","none","1","10075","0"
"031519","13:11:17","743770280","171053919","4.0.10.0","1","3","end_of_study_questions_ufirst","unintentionality","0","0","0","0","0","0","none","1","15015","0"
"031519","13:11:17","743770280","171053919","4.0.10.0","1","4","end_of_study_questions_ufirst","intentionality","0","0","0","0","0","0","all","1","9441","0"
"031519","13:11:17","743770280","171053919","4.0.10.0","1","5","end_of_study_questions_ufirst","self_exclusion_1","0","0","0","0","0","0","Yes, use my data","1","12441","0"
"031519","13:11:17","743770280","171053919","4.0.10.0","1","5","end_of_study_questions_ufirst","self_exclusion_1other","0","0","0","0","0","0","","1","12441","0"
"031519","13:12:33","936528133","734893857","4.0.10.0","1","1","end_of_study_questions_ufirst","awareness","0","0","0","0","0","0","most","1","23867","0"
"031519","13:12:33","936528133","734893857","4.0.10.0","1","2","end_of_study_questions_ufirst","influence_general","0","0","0","0","0","0","most","1","5019","0"
"031519","13:12:33","936528133","734893857","4.0.10.0","1","3","end_of_study_questions_ufirst","unintentionality","0","0","0","0","0","0","most","1","4015","0"
"031519","13:12:33","936528133","734893857","4.0.10.0","1","4","end_of_study_questions_ufirst","intentionality","0","0","0","0","0","0","most","1","3678","0"
"031519","13:12:33","936528133","734893857","4.0.10.0","1","5","end_of_study_questions_ufirst","self_exclusion_1","0","0","0","0","0","0","Yes, use my data","1","14563","0"
"031519","13:12:33","936528133","734893857","4.0.10.0","1","5","end_of_study_questions_ufirst","self_exclusion_1other","0","0","0","0","0","0","","1","14563","0"
"031519","13:12:20","732943993","977944306","4.0.10.0","1","1","end_of_study_questions_ifirst","awareness","0","0","0","0","0","0","all","1","14448","0"
"031519","13:12:20","732943993","977944306","4.0.10.0","1","2","end_of_study_questions_ifirst","influence_general","0","0","0","0","0","0","most","1","13166","0"
"031519","13:12:20","732943993","977944306","4.0.10.0","1","3","end_of_study_questions_ifirst","intentionality","0","0","0","0","0","0","less than half","1","14097","0"
"031519","13:12:20","732943993","977944306","4.0.10.0","1","4","end_of_study_questions_ifirst","unintentionality","0","0","0","0","0","0","more than half","1","8646","0"
"031519","13:12:20","732943993","977944306","4.0.10.0","1","5","end_of_study_questions_ifirst","self_exclusion_1","0","0","0","0","0","0","Yes, use my data","1","6074","0"
"031519","13:12:20","732943993","977944306","4.0.10.0","1","5","end_of_study_questions_ifirst","self_exclusion_1other","0","0","0","0","0","0","","1","6074","0"
"031519","13:11:50","556667775","711959696","4.0.10.0","1","1","end_of_study_questions_ifirst","awareness","0","0","0","0","0","0","more than half","1","24295","0"
"031519","13:11:50","556667775","711959696","4.0.10.0","1","2","end_of_study_questions_ifirst","influence_general","0","0","0","0","0","0","a few","1","5060","0"
"031519","13:11:50","556667775","711959696","4.0.10.0","1","3","end_of_study_questions_ifirst","intentionality","0","0","0","0","0","0","a few","1","5119","0"
"031519","13:11:50","556667775","711959696","4.0.10.0","1","4","end_of_study_questions_ifirst","unintentionality","0","0","0","0","0","0","a few","1","6060","0"
"031519","13:11:50","556667775","711959696","4.0.10.0","1","5","end_of_study_questions_ifirst","self_exclusion_1","0","0","0","0","0","0","No, exclude my data (please specify why):","1","73481","0"
"031519","13:11:50","556667775","711959696","4.0.10.0","1","5","end_of_study_questions_ifirst","self_exclusion_1other","0","0","0","0","0","0","I think there was some malfunction-  the images and pics just were shown v quicky- a lot of the time i didnt see the art","1","73481","0"
"031519","07:20:00","86034751","187304078","4.0.10.0","1","1","end_of_study_questions_ifirst","awareness","0","0","0","0","0","0","all","1","12136","0"
"031519","07:20:00","86034751","187304078","4.0.10.0","1","2","end_of_study_questions_ifirst","influence_general","0","0","0","0","0","0","a few","1","8945","0"
"031519","07:20:00","86034751","187304078","4.0.10.0","1","3","end_of_study_questions_ifirst","intentionality","0","0","0","0","0","0","none","1","6907","0"
"031519","07:20:00","86034751","187304078","4.0.10.0","1","4","end_of_study_questions_ifirst","unintentionality","0","0","0","0","0","0","less than half","1","6703","0"
"031519","07:20:00","86034751","187304078","4.0.10.0","1","5","end_of_study_questions_ifirst","self_exclusion_1","0","0","0","0","0","0","Yes, use my data","1","12361","0"
"031519","07:20:00","86034751","187304078","4.0.10.0","1","5","end_of_study_questions_ifirst","self_exclusion_1other","0","0","0","0","0","0","","1","12361","0"
"031519","06:15:30","919348501","486257201","4.0.10.0","1","1","end_of_study_questions_ufirst","awareness","0","0","0","0","0","0","all","1","38437","0"
"031519","06:15:30","919348501","486257201","4.0.10.0","1","2","end_of_study_questions_ufirst","influence_general","0","0","0","0","0","0","a few","1","10827","0"
"031519","06:15:30","919348501","486257201","4.0.10.0","1","3","end_of_study_questions_ufirst","unintentionality","0","0","0","0","0","0","a few","1","20749","0"
"031519","06:15:30","919348501","486257201","4.0.10.0","1","4","end_of_study_questions_ufirst","intentionality","0","0","0","0","0","0","a few","1","13108","0"
"031519","06:15:30","919348501","486257201","4.0.10.0","1","5","end_of_study_questions_ufirst","self_exclusion_1","0","0","0","0","0","0","Yes, use my data","1","16603","0"
"031519","06:15:30","919348501","486257201","4.0.10.0","1","5","end_of_study_questions_ufirst","self_exclusion_1other","0","0","0","0","0","0","","1","16603","0"
"031519","13:15:42","325837894","637506975","4.0.10.0","1","1","end_of_study_questions_ufirst","awareness","0","0","0","0","0","0","less than half","1","19748","0"
"031519","13:15:42","325837894","637506975","4.0.10.0","1","2","end_of_study_questions_ufirst","influence_general","0","0","0","0","0","0","none","1","12166","0"
"031519","13:15:42","325837894","637506975","4.0.10.0","1","3","end_of_study_questions_ufirst","unintentionality","0","0","0","0","0","0","none","1","8898","0"
"031519","13:15:42","325837894","637506975","4.0.10.0","1","4","end_of_study_questions_ufirst","intentionality","0","0","0","0","0","0","none","1","5756","0"
"031519","13:15:42","325837894","637506975","4.0.10.0","1","5","end_of_study_questions_ufirst","self_exclusion_1","0","0","0","0","0","0","No, exclude my data (please specify why):","1","58065","0"
"031519","13:15:42","325837894","637506975","4.0.10.0","1","5","end_of_study_questions_ufirst","self_exclusion_1other","0","0","0","0","0","0","Because it was not working properly - the image flashed, then a painting flashed and then I was left looking at a blackand white image - this didn't work and was a total waste of my time and energy!","1","58065","0"
"031519","13:17:17","638267713","244458478","4.0.10.0","1","1","end_of_study_questions_ifirst","awareness","0","0","0","0","0","0","none","1","8570","0"
"031519","13:17:17","638267713","244458478","4.0.10.0","1","2","end_of_study_questions_ifirst","influence_general","0","0","0","0","0","0","more than half","1","4868","0"
"031519","13:17:17","638267713","244458478","4.0.10.0","1","3","end_of_study_questions_ifirst","intentionality","0","0","0","0","0","0","none","1","3514","0"
"031519","13:17:17","638267713","244458478","4.0.10.0","1","4","end_of_study_questions_ifirst","unintentionality","0","0","0","0","0","0","about half","1","6398","0"
"031519","13:17:17","638267713","244458478","4.0.10.0","1","5","end_of_study_questions_ifirst","self_exclusion_1","0","0","0","0","0","0","Yes, use my data","1","6637","0"
"031519","13:17:17","638267713","244458478","4.0.10.0","1","5","end_of_study_questions_ifirst","self_exclusion_1other","0","0","0","0","0","0","","1","6637","0"
"031519","06:17:44","985358607","771393402","4.0.10.0","1","1","end_of_study_questions_ifirst","awareness","0","0","0","0","0","0","about half","1","15934","0"
"031519","06:17:44","985358607","771393402","4.0.10.0","1","2","end_of_study_questions_ifirst","influence_general","0","0","0","0","0","0","about half","1","5500","0"
"031519","06:17:44","985358607","771393402","4.0.10.0","1","3","end_of_study_questions_ifirst","intentionality","0","0","0","0","0","0","less than half","1","6433","0"
"031519","06:17:44","985358607","771393402","4.0.10.0","1","4","end_of_study_questions_ifirst","unintentionality","0","0","0","0","0","0","more than half","1","3202","0"
"031519","06:17:44","985358607","771393402","4.0.10.0","1","5","end_of_study_questions_ifirst","self_exclusion_1","0","0","0","0","0","0","Yes, use my data","1","13076","0"
"031519","06:17:44","985358607","771393402","4.0.10.0","1","5","end_of_study_questions_ifirst","self_exclusion_1other","0","0","0","0","0","0","","1","13076","0"
"031519","13:18:11","793504291","478250718","4.0.10.0","1","1","end_of_study_questions_ifirst","awareness","0","0","0","0","0","0","most","1","19633","0"
"031519","13:18:11","793504291","478250718","4.0.10.0","1","2","end_of_study_questions_ifirst","influence_general","0","0","0","0","0","0","about half","1","6762","0"
"031519","13:18:11","793504291","478250718","4.0.10.0","1","3","end_of_study_questions_ifirst","intentionality","0","0","0","0","0","0","about half","1","9851","0"
"031519","13:18:11","793504291","478250718","4.0.10.0","1","4","end_of_study_questions_ifirst","unintentionality","0","0","0","0","0","0","a few","1","7037","0"
"031519","13:18:11","793504291","478250718","4.0.10.0","1","5","end_of_study_questions_ifirst","self_exclusion_1","0","0","0","0","0","0","Yes, use my data","1","10148","0"
"031519","13:18:11","793504291","478250718","4.0.10.0","1","5","end_of_study_questions_ifirst","self_exclusion_1other","0","0","0","0","0","0","","1","10148","0"
"031519","13:19:56","380617865","582727002","4.0.10.0","1","1","end_of_study_questions_ifirst","awareness","0","0","0","0","0","0","all","1","16659","0"
"031519","13:19:56","380617865","582727002","4.0.10.0","1","2","end_of_study_questions_ifirst","influence_general","0","0","0","0","0","0","all","1","7133","0"
"031519","13:19:56","380617865","582727002","4.0.10.0","1","3","end_of_study_questions_ifirst","intentionality","0","0","0","0","0","0","all","1","4531","0"
"031519","13:19:56","380617865","582727002","4.0.10.0","1","4","end_of_study_questions_ifirst","unintentionality","0","0","0","0","0","0","all","1","7054","0"
"031519","13:19:56","380617865","582727002","4.0.10.0","1","5","end_of_study_questions_ifirst","self_exclusion_1","0","0","0","0","0","0","Yes, use my data","1","14167","0"
"031519","13:19:56","380617865","582727002","4.0.10.0","1","5","end_of_study_questions_ifirst","self_exclusion_1other","0","0","0","0","0","0","","1","14167","0"
"031619","00:20:16","859640727","413698088","4.0.10.0","1","1","end_of_study_questions_ifirst","awareness","0","0","0","0","0","0","all","1","19351","0"
"031619","00:20:16","859640727","413698088","4.0.10.0","1","2","end_of_study_questions_ifirst","influence_general","0","0","0","0","0","0","none","1","5914","0"
"031619","00:20:16","859640727","413698088","4.0.10.0","1","3","end_of_study_questions_ifirst","intentionality","0","0","0","0","0","0","none","1","4760","0"
"031619","00:20:16","859640727","413698088","4.0.10.0","1","4","end_of_study_questions_ifirst","unintentionality","0","0","0","0","0","0","none","1","4521","0"
"031619","00:20:16","859640727","413698088","4.0.10.0","1","5","end_of_study_questions_ifirst","self_exclusion_1","0","0","0","0","0","0","No, exclude my data (please specify why):","1","145445","0"
"031619","00:20:16","859640727","413698088","4.0.10.0","1","5","end_of_study_questions_ifirst","self_exclusion_1other","0","0","0","0","0","0","While I have completed fast paced research before with relative ease, the paintings were not up for long enough for to register at all. I think the static placeholder image distracts the mind too much. that could just be me though","1","145445","0"
"031519","09:21:10","778591618","724120034","4.0.10.0","1","1","end_of_study_questions_ifirst","awareness","0","0","0","0","0","0","all","1","18458","0"
"031519","09:21:10","778591618","724120034","4.0.10.0","1","2","end_of_study_questions_ifirst","influence_general","0","0","0","0","0","0","less than half","1","7397","0"
"031519","09:21:10","778591618","724120034","4.0.10.0","1","3","end_of_study_questions_ifirst","intentionality","0","0","0","0","0","0","less than half","1","13666","0"
"031519","09:21:10","778591618","724120034","4.0.10.0","1","4","end_of_study_questions_ifirst","unintentionality","0","0","0","0","0","0","about half","1","7692","0"
"031519","09:21:10","778591618","724120034","4.0.10.0","1","5","end_of_study_questions_ifirst","self_exclusion_1","0","0","0","0","0","0","Yes, use my data","1","7539","0"
"031519","09:21:10","778591618","724120034","4.0.10.0","1","5","end_of_study_questions_ifirst","self_exclusion_1other","0","0","0","0","0","0","","1","7539","0"
"031519","08:21:13","157244495","479317863","4.0.10.0","1","1","end_of_study_questions_ufirst","awareness","0","0","0","0","0","0","all","1","31983","0"
"031519","08:21:13","157244495","479317863","4.0.10.0","1","2","end_of_study_questions_ufirst","influence_general","0","0","0","0","0","0","a few","1","7664","0"
"031519","08:21:13","157244495","479317863","4.0.10.0","1","3","end_of_study_questions_ufirst","unintentionality","0","0","0","0","0","0","a few","1","7904","0"
"031519","08:21:13","157244495","479317863","4.0.10.0","1","4","end_of_study_questions_ufirst","intentionality","0","0","0","0","0","0","none","1","7012","0"
"031519","08:21:13","157244495","479317863","4.0.10.0","1","5","end_of_study_questions_ufirst","self_exclusion_1","0","0","0","0","0","0","Yes, use my data","1","4815","0"
"031519","08:21:13","157244495","479317863","4.0.10.0","1","5","end_of_study_questions_ufirst","self_exclusion_1other","0","0","0","0","0","0","","1","4815","0"
"031519","13:21:46","282975715","221319752","4.0.10.0","1","1","end_of_study_questions_ifirst","awareness","0","0","0","0","0","0","all","1","38324","0"
"031519","13:21:46","282975715","221319752","4.0.10.0","1","2","end_of_study_questions_ifirst","influence_general","0","0","0","0","0","0","none","1","7354","0"
"031519","13:21:46","282975715","221319752","4.0.10.0","1","3","end_of_study_questions_ifirst","intentionality","0","0","0","0","0","0","none","1","8677","0"
"031519","13:21:46","282975715","221319752","4.0.10.0","1","4","end_of_study_questions_ifirst","unintentionality","0","0","0","0","0","0","a few","1","9890","0"
"031519","13:21:46","282975715","221319752","4.0.10.0","1","5","end_of_study_questions_ifirst","self_exclusion_1","0","0","0","0","0","0","Yes, use my data","1","23300","0"
"031519","13:21:46","282975715","221319752","4.0.10.0","1","5","end_of_study_questions_ifirst","self_exclusion_1other","0","0","0","0","0","0","","1","23300","0"
"031519","13:22:26","237955371","179832241","4.0.10.0","1","1","end_of_study_questions_ufirst","awareness","0","0","0","0","0","0","all","1","22279","0"
"031519","13:22:26","237955371","179832241","4.0.10.0","1","2","end_of_study_questions_ufirst","influence_general","0","0","0","0","0","0","less than half","1","13299","0"
"031519","13:22:26","237955371","179832241","4.0.10.0","1","3","end_of_study_questions_ufirst","unintentionality","0","0","0","0","0","0","none","1","6527","0"
"031519","13:22:26","237955371","179832241","4.0.10.0","1","4","end_of_study_questions_ufirst","intentionality","0","0","0","0","0","0","less than half","1","7901","0"
"031519","13:22:26","237955371","179832241","4.0.10.0","1","5","end_of_study_questions_ufirst","self_exclusion_1","0","0","0","0","0","0","Yes, use my data","1","13420","0"
"031519","13:22:26","237955371","179832241","4.0.10.0","1","5","end_of_study_questions_ufirst","self_exclusion_1other","0","0","0","0","0","0","","1","13420","0"
"031519","09:31:01","823374928","375637928","4.0.10.0","1","1","end_of_study_questions_ifirst","awareness","0","0","0","0","0","0","all","1","10502","0"
"031519","09:31:01","823374928","375637928","4.0.10.0","1","2","end_of_study_questions_ifirst","influence_general","0","0","0","0","0","0","a few","1","10027","0"
"031519","09:31:01","823374928","375637928","4.0.10.0","1","3","end_of_study_questions_ifirst","intentionality","0","0","0","0","0","0","none","1","6572","0"
"031519","09:31:01","823374928","375637928","4.0.10.0","1","4","end_of_study_questions_ifirst","unintentionality","0","0","0","0","0","0","less than half","1","7367","0"
"031519","09:31:01","823374928","375637928","4.0.10.0","1","5","end_of_study_questions_ifirst","self_exclusion_1","0","0","0","0","0","0","Yes, use my data","1","6160","0"
"031519","09:31:01","823374928","375637928","4.0.10.0","1","5","end_of_study_questions_ifirst","self_exclusion_1other","0","0","0","0","0","0","","1","6160","0"
"031519","09:24:09","800241517","473097294","4.0.10.0","1","1","end_of_study_questions_ifirst","awareness","0","0","0","0","0","0","about half","1","9880","0"
"031519","09:24:09","800241517","473097294","4.0.10.0","1","2","end_of_study_questions_ifirst","influence_general","0","0","0","0","0","0","less than half","1","4705","0"
"031519","09:24:09","800241517","473097294","4.0.10.0","1","3","end_of_study_questions_ifirst","intentionality","0","0","0","0","0","0","less than half","1","5169","0"
"031519","09:24:09","800241517","473097294","4.0.10.0","1","4","end_of_study_questions_ifirst","unintentionality","0","0","0","0","0","0","about half","1","6640","0"
"031519","09:24:09","800241517","473097294","4.0.10.0","1","5","end_of_study_questions_ifirst","self_exclusion_1","0","0","0","0","0","0","Yes, use my data","1","5303","0"
"031519","09:24:09","800241517","473097294","4.0.10.0","1","5","end_of_study_questions_ifirst","self_exclusion_1other","0","0","0","0","0","0","","1","5303","0"
"031519","13:18:31","144555172","684939008","4.0.10.0","1","1","end_of_study_questions_ifirst","awareness","0","0","0","0","0","0","all","1","40885","0"
"031519","13:18:31","144555172","684939008","4.0.10.0","1","2","end_of_study_questions_ifirst","influence_general","0","0","0","0","0","0","none","1","5787","0"
"031519","13:18:31","144555172","684939008","4.0.10.0","1","3","end_of_study_questions_ifirst","intentionality","0","0","0","0","0","0","none","1","12938","0"
"031519","13:18:31","144555172","684939008","4.0.10.0","1","4","end_of_study_questions_ifirst","unintentionality","0","0","0","0","0","0","none","1","33735","0"
"031519","13:18:31","144555172","684939008","4.0.10.0","1","5","end_of_study_questions_ifirst","self_exclusion_1","0","0","0","0","0","0","No, exclude my data (please specify why):","1","289054","0"
"031519","13:18:31","144555172","684939008","4.0.10.0","1","5","end_of_study_questions_ifirst","self_exclusion_1other","0","0","0","0","0","0","All of the 'paintings' were a monochrome pixelated mess. It was unpleaseant so I just chose 'D' everytime because, regardless of the cute bunny/baby, nasty gun or neutral astonaut, I didn't like it. As it was unchanging (except for the preceeding images) I just pressed the left key.  If the picture was intentionally th esame, please use my data but I assumed that something had gone wrong with the pictures which would nullify my results.","1","289054","0"
"031519","13:24:18","157361094","857911484","4.0.10.0","1","1","end_of_study_questions_ifirst","awareness","0","0","0","0","0","0","more than half","1","16783","0"
"031519","13:24:18","157361094","857911484","4.0.10.0","1","2","end_of_study_questions_ifirst","influence_general","0","0","0","0","0","0","about half","1","5490","0"
"031519","13:24:18","157361094","857911484","4.0.10.0","1","3","end_of_study_questions_ifirst","intentionality","0","0","0","0","0","0","a few","1","8727","0"
"031519","13:24:18","157361094","857911484","4.0.10.0","1","4","end_of_study_questions_ifirst","unintentionality","0","0","0","0","0","0","about half","1","4197","0"
"031519","13:24:18","157361094","857911484","4.0.10.0","1","5","end_of_study_questions_ifirst","self_exclusion_1","0","0","0","0","0","0","No, exclude my data (please specify why):","1","30590","0"
"031519","13:24:18","157361094","857911484","4.0.10.0","1","5","end_of_study_questions_ifirst","self_exclusion_1other","0","0","0","0","0","0","Very hard to separate the two images and my reaction to the second","1","30590","0"
"031519","13:24:49","824056033","449282783","4.0.10.0","1","1","end_of_study_questions_ufirst","awareness","0","0","0","0","0","0","all","1","19530","0"
"031519","13:24:49","824056033","449282783","4.0.10.0","1","2","end_of_study_questions_ufirst","influence_general","0","0","0","0","0","0","all","1","7625","0"
"031519","13:24:49","824056033","449282783","4.0.10.0","1","3","end_of_study_questions_ufirst","unintentionality","0","0","0","0","0","0","all","1","13134","0"
"031519","13:24:49","824056033","449282783","4.0.10.0","1","4","end_of_study_questions_ufirst","intentionality","0","0","0","0","0","0","most","1","9898","0"
"031519","13:24:49","824056033","449282783","4.0.10.0","1","5","end_of_study_questions_ufirst","self_exclusion_1","0","0","0","0","0","0","Yes, use my data","1","17824","0"
"031519","13:24:49","824056033","449282783","4.0.10.0","1","5","end_of_study_questions_ufirst","self_exclusion_1other","0","0","0","0","0","0","","1","17824","0"
"031519","13:24:44","509065116","626117628","4.0.10.0","1","1","end_of_study_questions_ifirst","awareness","0","0","0","0","0","0","all","1","21088","0"
"031519","13:24:44","509065116","626117628","4.0.10.0","1","2","end_of_study_questions_ifirst","influence_general","0","0","0","0","0","0","none","1","9170","0"
"031519","13:24:44","509065116","626117628","4.0.10.0","1","3","end_of_study_questions_ifirst","intentionality","0","0","0","0","0","0","none","1","10558","0"
"031519","13:24:44","509065116","626117628","4.0.10.0","1","4","end_of_study_questions_ifirst","unintentionality","0","0","0","0","0","0","a few","1","13085","0"
"031519","13:24:44","509065116","626117628","4.0.10.0","1","5","end_of_study_questions_ifirst","self_exclusion_1","0","0","0","0","0","0","No, exclude my data (please specify why):","1","53573","0"
"031519","13:24:44","509065116","626117628","4.0.10.0","1","5","end_of_study_questions_ifirst","self_exclusion_1other","0","0","0","0","0","0","i couldn't always see the full painting as it went so fast.","1","53573","0"
"031619","00:25:56","256606976","161180637","4.0.10.0","1","1","end_of_study_questions_ufirst","awareness","0","0","0","0","0","0","all","1","8627","0"
"031619","00:25:56","256606976","161180637","4.0.10.0","1","2","end_of_study_questions_ufirst","influence_general","0","0","0","0","0","0","about half","1","9682","0"
"031619","00:25:56","256606976","161180637","4.0.10.0","1","3","end_of_study_questions_ufirst","unintentionality","0","0","0","0","0","0","more than half","1","5543","0"
"031619","00:25:56","256606976","161180637","4.0.10.0","1","4","end_of_study_questions_ufirst","intentionality","0","0","0","0","0","0","a few","1","4509","0"
"031619","00:25:56","256606976","161180637","4.0.10.0","1","5","end_of_study_questions_ufirst","self_exclusion_1","0","0","0","0","0","0","Yes, use my data","1","11203","0"
"031619","00:25:56","256606976","161180637","4.0.10.0","1","5","end_of_study_questions_ufirst","self_exclusion_1other","0","0","0","0","0","0","","1","11203","0"
"031519","13:25:45","389980591","577758862","4.0.10.0","1","1","end_of_study_questions_ifirst","awareness","0","0","0","0","0","0","all","1","17017","0"
"031519","13:25:45","389980591","577758862","4.0.10.0","1","2","end_of_study_questions_ifirst","influence_general","0","0","0","0","0","0","about half","1","7483","0"
"031519","13:25:45","389980591","577758862","4.0.10.0","1","3","end_of_study_questions_ifirst","intentionality","0","0","0","0","0","0","none","1","13837","0"
"031519","13:25:45","389980591","577758862","4.0.10.0","1","4","end_of_study_questions_ifirst","unintentionality","0","0","0","0","0","0","a few","1","12300","0"
"031519","13:25:45","389980591","577758862","4.0.10.0","1","5","end_of_study_questions_ifirst","self_exclusion_1","0","0","0","0","0","0","Yes, use my data","1","14309","0"
"031519","13:25:45","389980591","577758862","4.0.10.0","1","5","end_of_study_questions_ifirst","self_exclusion_1other","0","0","0","0","0","0","","1","14309","0"
"031519","23:53:41","812269675","386743179","4.0.10.0","1","1","end_of_study_questions_ufirst","awareness","0","0","0","0","0","0","all","1","30724","0"
"031519","23:53:41","812269675","386743179","4.0.10.0","1","2","end_of_study_questions_ufirst","influence_general","0","0","0","0","0","0","a few","1","11627","0"
"031519","23:53:41","812269675","386743179","4.0.10.0","1","3","end_of_study_questions_ufirst","unintentionality","0","0","0","0","0","0","most","1","72817","0"
"031519","23:53:41","812269675","386743179","4.0.10.0","1","4","end_of_study_questions_ufirst","intentionality","0","0","0","0","0","0","none","1","44385","0"
"031519","23:53:41","812269675","386743179","4.0.10.0","1","5","end_of_study_questions_ufirst","self_exclusion_1","0","0","0","0","0","0","Yes, use my data","1","34383","0"
"031519","23:53:41","812269675","386743179","4.0.10.0","1","5","end_of_study_questions_ufirst","self_exclusion_1other","0","0","0","0","0","0","","1","34383","0"
"031519","09:26:01","765222857","640382841","4.0.10.0","1","1","end_of_study_questions_ufirst","awareness","0","0","0","0","0","0","all","1","21435","0"
"031519","09:26:01","765222857","640382841","4.0.10.0","1","2","end_of_study_questions_ufirst","influence_general","0","0","0","0","0","0","about half","1","6835","0"
"031519","09:26:01","765222857","640382841","4.0.10.0","1","3","end_of_study_questions_ufirst","unintentionality","0","0","0","0","0","0","about half","1","6935","0"
"031519","09:26:01","765222857","640382841","4.0.10.0","1","4","end_of_study_questions_ufirst","intentionality","0","0","0","0","0","0","none","1","6160","0"
"031519","09:26:01","765222857","640382841","4.0.10.0","1","5","end_of_study_questions_ufirst","self_exclusion_1","0","0","0","0","0","0","Yes, use my data","1","13851","0"
"031519","09:26:01","765222857","640382841","4.0.10.0","1","5","end_of_study_questions_ufirst","self_exclusion_1other","0","0","0","0","0","0","","1","13851","0"
"031519","13:26:01","342820411","14264635","4.0.10.0","1","1","end_of_study_questions_ufirst","awareness","0","0","0","0","0","0","most","1","21323","0"
"031519","13:26:01","342820411","14264635","4.0.10.0","1","2","end_of_study_questions_ufirst","influence_general","0","0","0","0","0","0","more than half","1","11360","0"
"031519","13:26:01","342820411","14264635","4.0.10.0","1","3","end_of_study_questions_ufirst","unintentionality","0","0","0","0","0","0","a few","1","8514","0"
"031519","13:26:01","342820411","14264635","4.0.10.0","1","4","end_of_study_questions_ufirst","intentionality","0","0","0","0","0","0","more than half","1","15731","0"
"031519","13:26:01","342820411","14264635","4.0.10.0","1","5","end_of_study_questions_ufirst","self_exclusion_1","0","0","0","0","0","0","Yes, use my data","1","8761","0"
"031519","13:26:01","342820411","14264635","4.0.10.0","1","5","end_of_study_questions_ufirst","self_exclusion_1other","0","0","0","0","0","0","","1","8761","0"
"031519","13:27:01","525079621","480638985","4.0.10.0","1","1","end_of_study_questions_ufirst","awareness","0","0","0","0","0","0","all","1","9795","0"
"031519","13:27:01","525079621","480638985","4.0.10.0","1","2","end_of_study_questions_ufirst","influence_general","0","0","0","0","0","0","more than half","1","6055","0"
"031519","13:27:01","525079621","480638985","4.0.10.0","1","3","end_of_study_questions_ufirst","unintentionality","0","0","0","0","0","0","less than half","1","8217","0"
"031519","13:27:01","525079621","480638985","4.0.10.0","1","4","end_of_study_questions_ufirst","intentionality","0","0","0","0","0","0","about half","1","6864","0"
"031519","13:27:01","525079621","480638985","4.0.10.0","1","5","end_of_study_questions_ufirst","self_exclusion_1","0","0","0","0","0","0","Yes, use my data","1","2882","0"
"031519","13:27:01","525079621","480638985","4.0.10.0","1","5","end_of_study_questions_ufirst","self_exclusion_1other","0","0","0","0","0","0","","1","2882","0"
"031519","13:26:58","944074813","276330115","4.0.10.0","1","1","end_of_study_questions_ufirst","awareness","0","0","0","0","0","0","most","1","29856","0"
"031519","13:26:58","944074813","276330115","4.0.10.0","1","2","end_of_study_questions_ufirst","influence_general","0","0","0","0","0","0","a few","1","10694","0"
"031519","13:26:58","944074813","276330115","4.0.10.0","1","3","end_of_study_questions_ufirst","unintentionality","0","0","0","0","0","0","a few","1","8531","0"
"031519","13:26:58","944074813","276330115","4.0.10.0","1","4","end_of_study_questions_ufirst","intentionality","0","0","0","0","0","0","none","1","5743","0"
"031519","13:26:58","944074813","276330115","4.0.10.0","1","5","end_of_study_questions_ufirst","self_exclusion_1","0","0","0","0","0","0","Yes, use my data","1","7545","0"
"031519","13:26:58","944074813","276330115","4.0.10.0","1","5","end_of_study_questions_ufirst","self_exclusion_1other","0","0","0","0","0","0","","1","7545","0"
"031519","06:27:50","552388124","625329770","4.0.10.0","1","1","end_of_study_questions_ifirst","awareness","0","0","0","0","0","0","less than half","1","13018","0"
"031519","06:27:50","552388124","625329770","4.0.10.0","1","2","end_of_study_questions_ifirst","influence_general","0","0","0","0","0","0","less than half","1","9721","0"
"031519","06:27:50","552388124","625329770","4.0.10.0","1","3","end_of_study_questions_ifirst","intentionality","0","0","0","0","0","0","a few","1","7357","0"
"031519","06:27:50","552388124","625329770","4.0.10.0","1","4","end_of_study_questions_ifirst","unintentionality","0","0","0","0","0","0","less than half","1","7843","0"
"031519","06:27:50","552388124","625329770","4.0.10.0","1","5","end_of_study_questions_ifirst","self_exclusion_1","0","0","0","0","0","0","Yes, use my data","1","3993","0"
"031519","06:27:50","552388124","625329770","4.0.10.0","1","5","end_of_study_questions_ifirst","self_exclusion_1other","0","0","0","0","0","0","","1","3993","0"
"031519","13:27:30","379480804","702411223","4.0.10.0","1","1","end_of_study_questions_ufirst","awareness","0","0","0","0","0","0","all","1","29775","0"
"031519","13:27:30","379480804","702411223","4.0.10.0","1","2","end_of_study_questions_ufirst","influence_general","0","0","0","0","0","0","a few","1","9523","0"
"031519","13:27:30","379480804","702411223","4.0.10.0","1","3","end_of_study_questions_ufirst","unintentionality","0","0","0","0","0","0","a few","1","7822","0"
"031519","13:27:30","379480804","702411223","4.0.10.0","1","4","end_of_study_questions_ufirst","intentionality","0","0","0","0","0","0","none","1","7808","0"
"031519","13:27:30","379480804","702411223","4.0.10.0","1","5","end_of_study_questions_ufirst","self_exclusion_1","0","0","0","0","0","0","Yes, use my data","1","6578","0"
"031519","13:27:30","379480804","702411223","4.0.10.0","1","5","end_of_study_questions_ufirst","self_exclusion_1other","0","0","0","0","0","0","","1","6578","0"
"031519","13:28:21","702655354","14778563","4.0.10.0","1","1","end_of_study_questions_ufirst","awareness","0","0","0","0","0","0","most","1","9500","0"
"031519","13:28:21","702655354","14778563","4.0.10.0","1","2","end_of_study_questions_ufirst","influence_general","0","0","0","0","0","0","a few","1","4247","0"
"031519","13:28:21","702655354","14778563","4.0.10.0","1","3","end_of_study_questions_ufirst","unintentionality","0","0","0","0","0","0","less than half","1","4238","0"
"031519","13:28:21","702655354","14778563","4.0.10.0","1","4","end_of_study_questions_ufirst","intentionality","0","0","0","0","0","0","none","1","6030","0"
"031519","13:28:21","702655354","14778563","4.0.10.0","1","5","end_of_study_questions_ufirst","self_exclusion_1","0","0","0","0","0","0","Yes, use my data","1","5006","0"
"031519","13:28:21","702655354","14778563","4.0.10.0","1","5","end_of_study_questions_ufirst","self_exclusion_1other","0","0","0","0","0","0","","1","5006","0"
"031519","13:28:22","191671139","80083886","4.0.10.0","1","1","end_of_study_questions_ifirst","awareness","0","0","0","0","0","0","all","1","10004","0"
"031519","13:28:22","191671139","80083886","4.0.10.0","1","2","end_of_study_questions_ifirst","influence_general","0","0","0","0","0","0","most","1","10338","0"
"031519","13:28:22","191671139","80083886","4.0.10.0","1","3","end_of_study_questions_ifirst","intentionality","0","0","0","0","0","0","most","1","9288","0"
"031519","13:28:22","191671139","80083886","4.0.10.0","1","4","end_of_study_questions_ifirst","unintentionality","0","0","0","0","0","0","a few","1","11465","0"
"031519","13:28:22","191671139","80083886","4.0.10.0","1","5","end_of_study_questions_ifirst","self_exclusion_1","0","0","0","0","0","0","Yes, use my data","1","18746","0"
"031519","13:28:22","191671139","80083886","4.0.10.0","1","5","end_of_study_questions_ifirst","self_exclusion_1other","0","0","0","0","0","0","","1","18746","0"
"031519","13:29:17","862087890","824619681","4.0.10.0","1","1","end_of_study_questions_ufirst","awareness","0","0","0","0","0","0","","1","9534","0"
"031519","13:30:38","322964784","530705107","4.0.10.0","1","1","end_of_study_questions_ufirst","awareness","0","0","0","0","0","0","all","1","16139","0"
"031519","13:30:38","322964784","530705107","4.0.10.0","1","2","end_of_study_questions_ufirst","influence_general","0","0","0","0","0","0","a few","1","8072","0"
"031519","13:30:38","322964784","530705107","4.0.10.0","1","3","end_of_study_questions_ufirst","unintentionality","0","0","0","0","0","0","less than half","1","8281","0"
"031519","13:30:38","322964784","530705107","4.0.10.0","1","4","end_of_study_questions_ufirst","intentionality","0","0","0","0","0","0","a few","1","5340","0"
"031519","13:30:38","322964784","530705107","4.0.10.0","1","5","end_of_study_questions_ufirst","self_exclusion_1","0","0","0","0","0","0","Yes, use my data","1","8683","0"
"031519","13:30:38","322964784","530705107","4.0.10.0","1","5","end_of_study_questions_ufirst","self_exclusion_1other","0","0","0","0","0","0","","1","8683","0"
"031519","08:27:21","133737940","306727422","4.0.10.0","1","1","end_of_study_questions_ifirst","awareness","0","0","0","0","0","0","all","1","47323","0"
"031519","08:27:21","133737940","306727422","4.0.10.0","1","2","end_of_study_questions_ifirst","influence_general","0","0","0","0","0","0","all","1","7716","0"
"031519","08:27:21","133737940","306727422","4.0.10.0","1","3","end_of_study_questions_ifirst","intentionality","0","0","0","0","0","0","none","1","10583","0"
"031519","08:27:21","133737940","306727422","4.0.10.0","1","4","end_of_study_questions_ifirst","unintentionality","0","0","0","0","0","0","all","1","7761","0"
"031519","08:27:21","133737940","306727422","4.0.10.0","1","5","end_of_study_questions_ifirst","self_exclusion_1","0","0","0","0","0","0","No, exclude my data (please specify why):","1","135098","0"
"031519","08:27:21","133737940","306727422","4.0.10.0","1","5","end_of_study_questions_ifirst","self_exclusion_1other","0","0","0","0","0","0","I did not ever see a painting clearly enough to make any type of judgement about it.  I saw photo images because I recognized there were human subjects or the fact it was a photo was obvious.   I did not get to see any of the paintings long enough for me to even register mentally that I had seen a painting, let alone seen it well enough to form an opinion.  The program just went too fast for me, period.","1","135098","0"
"031519","08:27:21","133737940","306727422","4.0.10.0","1","1","end_of_study_questions_ifirst","awareness","0","0","0","0","0","0","all","1","47323","0"
"031519","08:27:21","133737940","306727422","4.0.10.0","1","2","end_of_study_questions_ifirst","influence_general","0","0","0","0","0","0","all","1","7716","0"
"031519","08:27:21","133737940","306727422","4.0.10.0","1","3","end_of_study_questions_ifirst","intentionality","0","0","0","0","0","0","none","1","10583","0"
"031519","08:27:21","133737940","306727422","4.0.10.0","1","4","end_of_study_questions_ifirst","unintentionality","0","0","0","0","0","0","all","1","7761","0"
"031519","08:27:21","133737940","306727422","4.0.10.0","1","5","end_of_study_questions_ifirst","self_exclusion_1","0","0","0","0","0","0","No, exclude my data (please specify why):","1","135098","0"
"031519","08:27:21","133737940","306727422","4.0.10.0","1","5","end_of_study_questions_ifirst","self_exclusion_1other","0","0","0","0","0","0","I did not ever see a painting clearly enough to make any type of judgement about it.  I saw photo images because I recognized there were human subjects or the fact it was a photo was obvious.   I did not get to see any of the paintings long enough for me to even register mentally that I had seen a painting, let alone seen it well enough to form an opinion.  The program just went too fast for me, period.","1","135098","0"
"031519","13:27:13","391410957","967257877","4.0.10.0","1","1","end_of_study_questions_ufirst","awareness","0","0","0","0","0","0","all","1","101089","0"
"031519","13:27:13","391410957","967257877","4.0.10.0","1","2","end_of_study_questions_ufirst","influence_general","0","0","0","0","0","0","more than half","1","9530","0"
"031519","13:27:13","391410957","967257877","4.0.10.0","1","3","end_of_study_questions_ufirst","unintentionality","0","0","0","0","0","0","less than half","1","150186","0"
"031519","13:27:13","391410957","967257877","4.0.10.0","1","4","end_of_study_questions_ufirst","intentionality","0","0","0","0","0","0","about half","1","60076","0"
"031519","13:27:13","391410957","967257877","4.0.10.0","1","5","end_of_study_questions_ufirst","self_exclusion_1","0","0","0","0","0","0","Yes, use my data","1","4961","0"
"031519","13:27:13","391410957","967257877","4.0.10.0","1","5","end_of_study_questions_ufirst","self_exclusion_1other","0","0","0","0","0","0","","1","4961","0"
"031619","00:31:44","131937946","697556235","4.0.10.0","1","1","end_of_study_questions_ufirst","awareness","0","0","0","0","0","0","all","1","15265","0"
"031619","00:31:44","131937946","697556235","4.0.10.0","1","2","end_of_study_questions_ufirst","influence_general","0","0","0","0","0","0","a few","1","8638","0"
"031619","00:31:44","131937946","697556235","4.0.10.0","1","3","end_of_study_questions_ufirst","unintentionality","0","0","0","0","0","0","more than half","1","12442","0"
"031619","00:31:44","131937946","697556235","4.0.10.0","1","4","end_of_study_questions_ufirst","intentionality","0","0","0","0","0","0","none","1","9720","0"
"031619","00:31:44","131937946","697556235","4.0.10.0","1","5","end_of_study_questions_ufirst","self_exclusion_1","0","0","0","0","0","0","Yes, use my data","1","13059","0"
"031619","00:31:44","131937946","697556235","4.0.10.0","1","5","end_of_study_questions_ufirst","self_exclusion_1other","0","0","0","0","0","0","","1","13059","0"
"031519","11:02:40","794621433","334808505","4.0.10.0","1","1","end_of_study_questions_ufirst","awareness","0","0","0","0","0","0","about half","1","7818","0"
"031519","11:02:40","794621433","334808505","4.0.10.0","1","2","end_of_study_questions_ufirst","influence_general","0","0","0","0","0","0","less than half","1","5723","0"
"031519","11:02:40","794621433","334808505","4.0.10.0","1","3","end_of_study_questions_ufirst","unintentionality","0","0","0","0","0","0","more than half","1","3639","0"
"031519","11:02:40","794621433","334808505","4.0.10.0","1","4","end_of_study_questions_ufirst","intentionality","0","0","0","0","0","0","about half","1","6257","0"
"031519","11:02:40","794621433","334808505","4.0.10.0","1","5","end_of_study_questions_ufirst","self_exclusion_1","0","0","0","0","0","0","Yes, use my data","1","3976","0"
"031519","11:02:40","794621433","334808505","4.0.10.0","1","5","end_of_study_questions_ufirst","self_exclusion_1other","0","0","0","0","0","0","","1","3976","0"
"031519","13:32:46","963265264","336164387","4.0.10.0","1","1","end_of_study_questions_ufirst","awareness","0","0","0","0","0","0","all","1","15327","0"
"031519","13:32:46","963265264","336164387","4.0.10.0","1","2","end_of_study_questions_ufirst","influence_general","0","0","0","0","0","0","none","1","4271","0"
"031519","13:32:46","963265264","336164387","4.0.10.0","1","3","end_of_study_questions_ufirst","unintentionality","0","0","0","0","0","0","none","1","4330","0"
"031519","13:32:46","963265264","336164387","4.0.10.0","1","4","end_of_study_questions_ufirst","intentionality","0","0","0","0","0","0","none","1","4180","0"
"031519","13:32:46","963265264","336164387","4.0.10.0","1","5","end_of_study_questions_ufirst","self_exclusion_1","0","0","0","0","0","0","Yes, use my data","1","5225","0"
"031519","13:32:46","963265264","336164387","4.0.10.0","1","5","end_of_study_questions_ufirst","self_exclusion_1other","0","0","0","0","0","0","","1","5225","0"
"031519","13:32:49","523216323","482502282","4.0.10.0","1","1","end_of_study_questions_ifirst","awareness","0","0","0","0","0","0","most","1","15729","0"
"031519","13:32:49","523216323","482502282","4.0.10.0","1","2","end_of_study_questions_ifirst","influence_general","0","0","0","0","0","0","more than half","1","6707","0"
"031519","13:32:49","523216323","482502282","4.0.10.0","1","3","end_of_study_questions_ifirst","intentionality","0","0","0","0","0","0","most","1","4390","0"
"031519","13:32:49","523216323","482502282","4.0.10.0","1","4","end_of_study_questions_ifirst","unintentionality","0","0","0","0","0","0","most","1","4556","0"
"031519","13:32:49","523216323","482502282","4.0.10.0","1","5","end_of_study_questions_ifirst","self_exclusion_1","0","0","0","0","0","0","Yes, use my data","1","3293","0"
"031519","13:32:49","523216323","482502282","4.0.10.0","1","5","end_of_study_questions_ifirst","self_exclusion_1other","0","0","0","0","0","0","","1","3293","0"
"031519","13:32:45","592035143","413385331","4.0.10.0","1","1","end_of_study_questions_ufirst","awareness","0","0","0","0","0","0","more than half","1","30433","0"
"031519","13:32:45","592035143","413385331","4.0.10.0","1","2","end_of_study_questions_ufirst","influence_general","0","0","0","0","0","0","more than half","1","5117","0"
"031519","13:32:45","592035143","413385331","4.0.10.0","1","3","end_of_study_questions_ufirst","unintentionality","0","0","0","0","0","0","a few","1","8344","0"
"031519","13:32:45","592035143","413385331","4.0.10.0","1","4","end_of_study_questions_ufirst","intentionality","0","0","0","0","0","0","about half","1","6703","0"
"031519","13:32:45","592035143","413385331","4.0.10.0","1","5","end_of_study_questions_ufirst","self_exclusion_1","0","0","0","0","0","0","Yes, use my data","1","13558","0"
"031519","13:32:45","592035143","413385331","4.0.10.0","1","5","end_of_study_questions_ufirst","self_exclusion_1other","0","0","0","0","0","0","","1","13558","0"
"031519","13:33:07","924032820","718587244","4.0.10.0","1","1","end_of_study_questions_ifirst","awareness","0","0","0","0","0","0","all","1","15941","0"
"031519","13:33:07","924032820","718587244","4.0.10.0","1","2","end_of_study_questions_ifirst","influence_general","0","0","0","0","0","0","none","1","5719","0"
"031519","13:33:07","924032820","718587244","4.0.10.0","1","3","end_of_study_questions_ifirst","intentionality","0","0","0","0","0","0","none","1","9087","0"
"031519","13:33:07","924032820","718587244","4.0.10.0","1","4","end_of_study_questions_ifirst","unintentionality","0","0","0","0","0","0","none","1","4896","0"
"031519","13:33:07","924032820","718587244","4.0.10.0","1","5","end_of_study_questions_ifirst","self_exclusion_1","0","0","0","0","0","0","No, exclude my data (please specify why):","1","30898","0"
"031519","13:33:07","924032820","718587244","4.0.10.0","1","5","end_of_study_questions_ifirst","self_exclusion_1other","0","0","0","0","0","0","The paintings didn't load correctly so I couldn't rate them effectively.","1","30898","0"
"031519","13:35:02","534239829","649971045","4.0.10.0","1","1","end_of_study_questions_ufirst","awareness","0","0","0","0","0","0","about half","1","18022","0"
"031519","13:35:02","534239829","649971045","4.0.10.0","1","2","end_of_study_questions_ufirst","influence_general","0","0","0","0","0","0","less than half","1","9011","0"
"031519","13:35:02","534239829","649971045","4.0.10.0","1","3","end_of_study_questions_ufirst","unintentionality","0","0","0","0","0","0","less than half","1","4115","0"
"031519","13:35:02","534239829","649971045","4.0.10.0","1","4","end_of_study_questions_ufirst","intentionality","0","0","0","0","0","0","less than half","1","3511","0"
"031519","13:35:02","534239829","649971045","4.0.10.0","1","5","end_of_study_questions_ufirst","self_exclusion_1","0","0","0","0","0","0","Yes, use my data","1","7249","0"
"031519","13:35:02","534239829","649971045","4.0.10.0","1","5","end_of_study_questions_ufirst","self_exclusion_1other","0","0","0","0","0","0","","1","7249","0"
"031519","13:34:38","306290545","542372835","4.0.10.0","1","1","end_of_study_questions_ufirst","awareness","0","0","0","0","0","0","more than half","1","17900","0"
"031519","13:34:38","306290545","542372835","4.0.10.0","1","2","end_of_study_questions_ufirst","influence_general","0","0","0","0","0","0","about half","1","17599","0"
"031519","13:34:38","306290545","542372835","4.0.10.0","1","3","end_of_study_questions_ufirst","unintentionality","0","0","0","0","0","0","about half","1","7172","0"
"031519","13:34:38","306290545","542372835","4.0.10.0","1","4","end_of_study_questions_ufirst","intentionality","0","0","0","0","0","0","less than half","1","13682","0"
"031519","13:34:38","306290545","542372835","4.0.10.0","1","5","end_of_study_questions_ufirst","self_exclusion_1","0","0","0","0","0","0","Yes, use my data","1","14519","0"
"031519","13:34:38","306290545","542372835","4.0.10.0","1","5","end_of_study_questions_ufirst","self_exclusion_1other","0","0","0","0","0","0","","1","14519","0"
"031519","09:34:29","146337829","945540243","4.0.10.0","1","1","end_of_study_questions_ufirst","awareness","0","0","0","0","0","0","all","1","36264","0"
"031519","09:34:29","146337829","945540243","4.0.10.0","1","2","end_of_study_questions_ufirst","influence_general","0","0","0","0","0","0","a few","1","14820","0"
"031519","09:34:29","146337829","945540243","4.0.10.0","1","3","end_of_study_questions_ufirst","unintentionality","0","0","0","0","0","0","less than half","1","14665","0"
"031519","09:34:29","146337829","945540243","4.0.10.0","1","4","end_of_study_questions_ufirst","intentionality","0","0","0","0","0","0","none","1","7573","0"
"031519","09:34:29","146337829","945540243","4.0.10.0","1","5","end_of_study_questions_ufirst","self_exclusion_1","0","0","0","0","0","0","Yes, use my data","1","23483","0"
"031519","09:34:29","146337829","945540243","4.0.10.0","1","5","end_of_study_questions_ufirst","self_exclusion_1other","0","0","0","0","0","0","","1","23483","0"
"031519","13:35:14","972818738","150007497","4.0.10.0","1","1","end_of_study_questions_ufirst","awareness","0","0","0","0","0","0","all","1","23553","0"
"031519","13:35:14","972818738","150007497","4.0.10.0","1","2","end_of_study_questions_ufirst","influence_general","0","0","0","0","0","0","a few","1","7054","0"
"031519","13:35:14","972818738","150007497","4.0.10.0","1","3","end_of_study_questions_ufirst","unintentionality","0","0","0","0","0","0","less than half","1","7552","0"
"031519","13:35:14","972818738","150007497","4.0.10.0","1","4","end_of_study_questions_ufirst","intentionality","0","0","0","0","0","0","none","1","5870","0"
"031519","13:35:14","972818738","150007497","4.0.10.0","1","5","end_of_study_questions_ufirst","self_exclusion_1","0","0","0","0","0","0","Yes, use my data","1","14426","0"
"031519","13:35:14","972818738","150007497","4.0.10.0","1","5","end_of_study_questions_ufirst","self_exclusion_1other","0","0","0","0","0","0","","1","14426","0"
"031519","13:35:27","217499410","804926324","4.0.10.0","1","1","end_of_study_questions_ifirst","awareness","0","0","0","0","0","0","all","1","22239","0"
"031519","13:35:27","217499410","804926324","4.0.10.0","1","2","end_of_study_questions_ifirst","influence_general","0","0","0","0","0","0","none","1","9077","0"
"031519","13:35:27","217499410","804926324","4.0.10.0","1","3","end_of_study_questions_ifirst","intentionality","0","0","0","0","0","0","none","1","10679","0"
"031519","13:35:27","217499410","804926324","4.0.10.0","1","4","end_of_study_questions_ifirst","unintentionality","0","0","0","0","0","0","none","1","9047","0"
"031519","13:35:27","217499410","804926324","4.0.10.0","1","5","end_of_study_questions_ifirst","self_exclusion_1","0","0","0","0","0","0","Yes, use my data","1","28844","0"
"031519","13:35:27","217499410","804926324","4.0.10.0","1","5","end_of_study_questions_ifirst","self_exclusion_1other","0","0","0","0","0","0","","1","28844","0"
"031519","13:35:36","386103847","762697877","4.0.10.0","1","1","end_of_study_questions_ufirst","awareness","0","0","0","0","0","0","none","1","19634","0"
"031519","13:35:36","386103847","762697877","4.0.10.0","1","2","end_of_study_questions_ufirst","influence_general","0","0","0","0","0","0","none","1","14009","0"
"031519","13:35:36","386103847","762697877","4.0.10.0","1","3","end_of_study_questions_ufirst","unintentionality","0","0","0","0","0","0","none","1","7206","0"
"031519","13:35:36","386103847","762697877","4.0.10.0","1","4","end_of_study_questions_ufirst","intentionality","0","0","0","0","0","0","none","1","2888","0"
"031519","13:35:36","386103847","762697877","4.0.10.0","1","5","end_of_study_questions_ufirst","self_exclusion_1","0","0","0","0","0","0","No, exclude my data (please specify why):","1","42373","0"
"031519","13:35:36","386103847","762697877","4.0.10.0","1","5","end_of_study_questions_ufirst","self_exclusion_1other","0","0","0","0","0","0","The program did not work properly and most of the pictures were blank for me","1","42373","0"
"031519","13:36:10","33051812","214091782","4.0.10.0","1","1","end_of_study_questions_ifirst","awareness","0","0","0","0","0","0","about half","1","31232","0"
"031519","13:36:10","33051812","214091782","4.0.10.0","1","2","end_of_study_questions_ifirst","influence_general","0","0","0","0","0","0","about half","1","10432","0"
"031519","13:36:10","33051812","214091782","4.0.10.0","1","3","end_of_study_questions_ifirst","intentionality","0","0","0","0","0","0","about half","1","8099","0"
"031519","13:36:10","33051812","214091782","4.0.10.0","1","4","end_of_study_questions_ifirst","unintentionality","0","0","0","0","0","0","a few","1","7309","0"
"031519","13:36:10","33051812","214091782","4.0.10.0","1","5","end_of_study_questions_ifirst","self_exclusion_1","0","0","0","0","0","0","Yes, use my data","1","8920","0"
"031519","13:36:10","33051812","214091782","4.0.10.0","1","5","end_of_study_questions_ifirst","self_exclusion_1other","0","0","0","0","0","0","","1","8920","0"
"031519","13:31:43","353960763","246714095","4.0.10.0","1","1","end_of_study_questions_ufirst","awareness","0","0","0","0","0","0","about half","1","17328","0"
"031519","13:31:43","353960763","246714095","4.0.10.0","1","2","end_of_study_questions_ufirst","influence_general","0","0","0","0","0","0","none","1","6825","0"
"031519","13:31:43","353960763","246714095","4.0.10.0","1","3","end_of_study_questions_ufirst","unintentionality","0","0","0","0","0","0","none","1","4789","0"
"031519","13:31:43","353960763","246714095","4.0.10.0","1","4","end_of_study_questions_ufirst","intentionality","0","0","0","0","0","0","none","1","5456","0"
"031519","13:31:43","353960763","246714095","4.0.10.0","1","5","end_of_study_questions_ufirst","self_exclusion_1","0","0","0","0","0","0","No, exclude my data (please specify why):","1","305856","0"
"031519","13:31:43","353960763","246714095","4.0.10.0","1","5","end_of_study_questions_ufirst","self_exclusion_1other","0","0","0","0","0","0","I'm not sure my data will be of much use in this study - I basically dislike abstract images/paintings with clashing colours in a modern art format and therefore any pictures like that I saw (I presume those are the pictures referred to rather than the black and white pixellated screen) were just dismissed as unpleasant.  I'm fairly sure I'd have dismissed them all as unpleasant anyway, but being aware that there were other images that may or may not influence my opinion probably absolutely guaranteed that my opinion would NOT be influenced as I have a tendency to resist outside influence like that.","1","305856","0"
"031519","13:37:05","360055724","562700758","4.0.10.0","1","1","end_of_study_questions_ifirst","awareness","0","0","0","0","0","0","all","1","13301","0"
"031519","13:37:05","360055724","562700758","4.0.10.0","1","2","end_of_study_questions_ifirst","influence_general","0","0","0","0","0","0","more than half","1","4516","0"
"031519","13:37:05","360055724","562700758","4.0.10.0","1","3","end_of_study_questions_ifirst","intentionality","0","0","0","0","0","0","more than half","1","4333","0"
"031519","13:37:05","360055724","562700758","4.0.10.0","1","4","end_of_study_questions_ifirst","unintentionality","0","0","0","0","0","0","more than half","1","2425","0"
"031519","13:37:05","360055724","562700758","4.0.10.0","1","5","end_of_study_questions_ifirst","self_exclusion_1","0","0","0","0","0","0","Yes, use my data","1","2746","0"
"031519","13:37:05","360055724","562700758","4.0.10.0","1","5","end_of_study_questions_ifirst","self_exclusion_1other","0","0","0","0","0","0","","1","2746","0"
"031519","13:37:11","397693725","5244407","4.0.10.0","1","1","end_of_study_questions_ufirst","awareness","0","0","0","0","0","0","most","1","30336","0"
"031519","13:37:11","397693725","5244407","4.0.10.0","1","2","end_of_study_questions_ufirst","influence_general","0","0","0","0","0","0","more than half","1","6308","0"
"031519","13:37:11","397693725","5244407","4.0.10.0","1","3","end_of_study_questions_ufirst","unintentionality","0","0","0","0","0","0","about half","1","7885","0"
"031519","13:37:11","397693725","5244407","4.0.10.0","1","4","end_of_study_questions_ufirst","intentionality","0","0","0","0","0","0","none","1","6664","0"
"031519","13:37:11","397693725","5244407","4.0.10.0","1","5","end_of_study_questions_ufirst","self_exclusion_1","0","0","0","0","0","0","Yes, use my data","1","6070","0"
"031519","13:37:11","397693725","5244407","4.0.10.0","1","5","end_of_study_questions_ufirst","self_exclusion_1other","0","0","0","0","0","0","","1","6070","0"
"031519","13:36:39","560153925","258819137","4.0.10.0","1","1","end_of_study_questions_ufirst","awareness","0","0","0","0","0","0","all","1","26767","0"
"031519","13:36:39","560153925","258819137","4.0.10.0","1","2","end_of_study_questions_ufirst","influence_general","0","0","0","0","0","0","a few","1","15000","0"
"031519","13:36:39","560153925","258819137","4.0.10.0","1","3","end_of_study_questions_ufirst","unintentionality","0","0","0","0","0","0","a few","1","20238","0"
"031519","13:36:39","560153925","258819137","4.0.10.0","1","4","end_of_study_questions_ufirst","intentionality","0","0","0","0","0","0","none","1","13375","0"
"031519","13:36:39","560153925","258819137","4.0.10.0","1","5","end_of_study_questions_ufirst","self_exclusion_1","0","0","0","0","0","0","Yes, use my data","1","27622","0"
"031519","13:36:39","560153925","258819137","4.0.10.0","1","5","end_of_study_questions_ufirst","self_exclusion_1other","0","0","0","0","0","0","","1","27622","0"
"031519","13:38:15","305793232","774679626","4.0.10.0","1","1","end_of_study_questions_ifirst","awareness","0","0","0","0","0","0","all","1","14525","0"
"031519","13:38:15","305793232","774679626","4.0.10.0","1","2","end_of_study_questions_ifirst","influence_general","0","0","0","0","0","0","all","1","7634","0"
"031519","13:38:15","305793232","774679626","4.0.10.0","1","3","end_of_study_questions_ifirst","intentionality","0","0","0","0","0","0","all","1","10473","0"
"031519","13:38:15","305793232","774679626","4.0.10.0","1","4","end_of_study_questions_ifirst","unintentionality","0","0","0","0","0","0","a few","1","14657","0"
"031519","13:38:15","305793232","774679626","4.0.10.0","1","5","end_of_study_questions_ifirst","self_exclusion_1","0","0","0","0","0","0","Yes, use my data","1","8439","0"
"031519","13:38:15","305793232","774679626","4.0.10.0","1","5","end_of_study_questions_ifirst","self_exclusion_1other","0","0","0","0","0","0","","1","8439","0"
"031519","13:39:27","841886341","619817464","4.0.10.0","1","1","end_of_study_questions_ifirst","awareness","0","0","0","0","0","0","less than half","1","24120","0"
"031519","13:39:27","841886341","619817464","4.0.10.0","1","2","end_of_study_questions_ifirst","influence_general","0","0","0","0","0","0","less than half","1","4743","0"
"031519","13:39:27","841886341","619817464","4.0.10.0","1","3","end_of_study_questions_ifirst","intentionality","0","0","0","0","0","0","none","1","10578","0"
"031519","13:39:27","841886341","619817464","4.0.10.0","1","4","end_of_study_questions_ifirst","unintentionality","0","0","0","0","0","0","none","1","8613","0"
"031519","13:39:27","841886341","619817464","4.0.10.0","1","5","end_of_study_questions_ifirst","self_exclusion_1","0","0","0","0","0","0","Yes, use my data","1","5353","0"
"031519","13:39:27","841886341","619817464","4.0.10.0","1","5","end_of_study_questions_ifirst","self_exclusion_1other","0","0","0","0","0","0","","1","5353","0"
"031619","00:39:18","13839581","824288176","4.0.10.0","1","1","end_of_study_questions_ifirst","awareness","0","0","0","0","0","0","about half","1","28709","0"
"031619","00:39:18","13839581","824288176","4.0.10.0","1","2","end_of_study_questions_ifirst","influence_general","0","0","0","0","0","0","less than half","1","10788","0"
"031619","00:39:18","13839581","824288176","4.0.10.0","1","3","end_of_study_questions_ifirst","intentionality","0","0","0","0","0","0","a few","1","11346","0"
"031619","00:39:18","13839581","824288176","4.0.10.0","1","4","end_of_study_questions_ifirst","unintentionality","0","0","0","0","0","0","a few","1","9238","0"
"031619","00:39:18","13839581","824288176","4.0.10.0","1","5","end_of_study_questions_ifirst","self_exclusion_1","0","0","0","0","0","0","Yes, use my data","1","11287","0"
"031619","00:39:18","13839581","824288176","4.0.10.0","1","5","end_of_study_questions_ifirst","self_exclusion_1other","0","0","0","0","0","0","","1","11287","0"
"031519","08:39:33","183370515","451795364","4.0.10.0","1","1","end_of_study_questions_ifirst","awareness","0","0","0","0","0","0","all","1","33878","0"
"031519","08:39:33","183370515","451795364","4.0.10.0","1","2","end_of_study_questions_ifirst","influence_general","0","0","0","0","0","0","about half","1","12258","0"
"031519","08:39:33","183370515","451795364","4.0.10.0","1","3","end_of_study_questions_ifirst","intentionality","0","0","0","0","0","0","a few","1","8690","0"
"031519","08:39:33","183370515","451795364","4.0.10.0","1","4","end_of_study_questions_ifirst","unintentionality","0","0","0","0","0","0","a few","1","6923","0"
"031519","08:39:33","183370515","451795364","4.0.10.0","1","5","end_of_study_questions_ifirst","self_exclusion_1","0","0","0","0","0","0","Yes, use my data","1","4417","0"
"031519","08:39:33","183370515","451795364","4.0.10.0","1","5","end_of_study_questions_ifirst","self_exclusion_1other","0","0","0","0","0","0","","1","4417","0"
"031519","13:40:24","815949886","168180141","4.0.10.0","1","1","end_of_study_questions_ufirst","awareness","0","0","0","0","0","0","all","1","17145","0"
"031519","13:40:24","815949886","168180141","4.0.10.0","1","2","end_of_study_questions_ufirst","influence_general","0","0","0","0","0","0","a few","1","29072","0"
"031519","13:40:24","815949886","168180141","4.0.10.0","1","3","end_of_study_questions_ufirst","unintentionality","0","0","0","0","0","0","less than half","1","7843","0"
"031519","13:40:24","815949886","168180141","4.0.10.0","1","4","end_of_study_questions_ufirst","intentionality","0","0","0","0","0","0","none","1","10103","0"
"031519","13:40:24","815949886","168180141","4.0.10.0","1","5","end_of_study_questions_ufirst","self_exclusion_1","0","0","0","0","0","0","Yes, use my data","1","3673","0"
"031519","13:40:24","815949886","168180141","4.0.10.0","1","5","end_of_study_questions_ufirst","self_exclusion_1other","0","0","0","0","0","0","","1","3673","0"
"031519","13:40:25","89137308","969948633","4.0.10.0","1","1","end_of_study_questions_ufirst","awareness","0","0","0","0","0","0","most","1","25456","0"
"031519","13:40:25","89137308","969948633","4.0.10.0","1","2","end_of_study_questions_ufirst","influence_general","0","0","0","0","0","0","about half","1","8036","0"
"031519","13:40:25","89137308","969948633","4.0.10.0","1","3","end_of_study_questions_ufirst","unintentionality","0","0","0","0","0","0","more than half","1","12146","0"
"031519","13:40:25","89137308","969948633","4.0.10.0","1","4","end_of_study_questions_ufirst","intentionality","0","0","0","0","0","0","about half","1","6486","0"
"031519","13:40:25","89137308","969948633","4.0.10.0","1","5","end_of_study_questions_ufirst","self_exclusion_1","0","0","0","0","0","0","Yes, use my data","1","21690","0"
"031519","13:40:25","89137308","969948633","4.0.10.0","1","5","end_of_study_questions_ufirst","self_exclusion_1other","0","0","0","0","0","0","","1","21690","0"
"031619","00:40:47","24246639","207341466","4.0.10.0","1","1","end_of_study_questions_ifirst","awareness","0","0","0","0","0","0","all","1","23014","0"
"031619","00:40:47","24246639","207341466","4.0.10.0","1","2","end_of_study_questions_ifirst","influence_general","0","0","0","0","0","0","more than half","1","6237","0"
"031619","00:40:47","24246639","207341466","4.0.10.0","1","3","end_of_study_questions_ifirst","intentionality","0","0","0","0","0","0","a few","1","6070","0"
"031619","00:40:47","24246639","207341466","4.0.10.0","1","4","end_of_study_questions_ifirst","unintentionality","0","0","0","0","0","0","more than half","1","11737","0"
"031619","00:40:47","24246639","207341466","4.0.10.0","1","5","end_of_study_questions_ifirst","self_exclusion_1","0","0","0","0","0","0","No, exclude my data (please specify why):","1","102294","0"
"031619","00:40:47","24246639","207341466","4.0.10.0","1","5","end_of_study_questions_ifirst","self_exclusion_1other","0","0","0","0","0","0","I was tired and took slightly longer than I would normally have eond so in responding. ","1","102294","0"
"031519","13:42:02","652303943","5951467","4.0.10.0","1","1","end_of_study_questions_ufirst","awareness","0","0","0","0","0","0","all","1","29367","0"
"031519","13:42:02","652303943","5951467","4.0.10.0","1","2","end_of_study_questions_ufirst","influence_general","0","0","0","0","0","0","most","1","8904","0"
"031519","13:42:02","652303943","5951467","4.0.10.0","1","3","end_of_study_questions_ufirst","unintentionality","0","0","0","0","0","0","more than half","1","14230","0"
"031519","13:42:02","652303943","5951467","4.0.10.0","1","4","end_of_study_questions_ufirst","intentionality","0","0","0","0","0","0","most","1","5027","0"
"031519","13:42:02","652303943","5951467","4.0.10.0","1","5","end_of_study_questions_ufirst","self_exclusion_1","0","0","0","0","0","0","Yes, use my data","1","30561","0"
"031519","13:42:02","652303943","5951467","4.0.10.0","1","5","end_of_study_questions_ufirst","self_exclusion_1other","0","0","0","0","0","0","","1","30561","0"
"031519","09:42:26","634928292","65768348","4.0.10.0","1","1","end_of_study_questions_ifirst","awareness","0","0","0","0","0","0","all","1","18502","0"
"031519","09:42:26","634928292","65768348","4.0.10.0","1","2","end_of_study_questions_ifirst","influence_general","0","0","0","0","0","0","none","1","9373","0"
"031519","09:42:26","634928292","65768348","4.0.10.0","1","3","end_of_study_questions_ifirst","intentionality","0","0","0","0","0","0","none","1","10102","0"
"031519","09:42:26","634928292","65768348","4.0.10.0","1","4","end_of_study_questions_ifirst","unintentionality","0","0","0","0","0","0","none","1","9701","0"
"031519","09:42:26","634928292","65768348","4.0.10.0","1","5","end_of_study_questions_ifirst","self_exclusion_1","0","0","0","0","0","0","Yes, use my data","1","20308","0"
"031519","09:42:26","634928292","65768348","4.0.10.0","1","5","end_of_study_questions_ifirst","self_exclusion_1other","0","0","0","0","0","0","","1","20308","0"
"031519","13:42:22","982685299","91454182","4.0.10.0","1","1","end_of_study_questions_ifirst","awareness","0","0","0","0","0","0","all","1","29827","0"
"031519","13:42:22","982685299","91454182","4.0.10.0","1","2","end_of_study_questions_ifirst","influence_general","0","0","0","0","0","0","most","1","10381","0"
"031519","13:42:22","982685299","91454182","4.0.10.0","1","3","end_of_study_questions_ifirst","intentionality","0","0","0","0","0","0","more than half","1","13231","0"
"031519","13:42:22","982685299","91454182","4.0.10.0","1","4","end_of_study_questions_ifirst","unintentionality","0","0","0","0","0","0","less than half","1","7161","0"
"031519","13:42:22","982685299","91454182","4.0.10.0","1","5","end_of_study_questions_ifirst","self_exclusion_1","0","0","0","0","0","0","Yes, use my data","1","14696","0"
"031519","13:42:22","982685299","91454182","4.0.10.0","1","5","end_of_study_questions_ifirst","self_exclusion_1other","0","0","0","0","0","0","","1","14696","0"
"031519","09:42:55","911542258","402720245","4.0.10.0","1","1","end_of_study_questions_ufirst","awareness","0","0","0","0","0","0","all","1","16605","0"
"031519","09:42:55","911542258","402720245","4.0.10.0","1","2","end_of_study_questions_ufirst","influence_general","0","0","0","0","0","0","about half","1","13048","0"
"031519","09:42:55","911542258","402720245","4.0.10.0","1","3","end_of_study_questions_ufirst","unintentionality","0","0","0","0","0","0","about half","1","5712","0"
"031519","09:42:55","911542258","402720245","4.0.10.0","1","4","end_of_study_questions_ufirst","intentionality","0","0","0","0","0","0","none","1","4531","0"
"031519","09:42:55","911542258","402720245","4.0.10.0","1","5","end_of_study_questions_ufirst","self_exclusion_1","0","0","0","0","0","0","Yes, use my data","1","9550","0"
"031519","09:42:55","911542258","402720245","4.0.10.0","1","5","end_of_study_questions_ufirst","self_exclusion_1other","0","0","0","0","0","0","","1","9550","0"
"031519","09:43:21","509737959","276646504","4.0.10.0","1","1","end_of_study_questions_ifirst","awareness","0","0","0","0","0","0","all","1","14016","0"
"031519","09:43:21","509737959","276646504","4.0.10.0","1","2","end_of_study_questions_ifirst","influence_general","0","0","0","0","0","0","more than half","1","4912","0"
"031519","09:43:21","509737959","276646504","4.0.10.0","1","3","end_of_study_questions_ifirst","intentionality","0","0","0","0","0","0","none","1","8767","0"
"031519","09:43:21","509737959","276646504","4.0.10.0","1","4","end_of_study_questions_ifirst","unintentionality","0","0","0","0","0","0","less than half","1","6171","0"
"031519","09:43:21","509737959","276646504","4.0.10.0","1","5","end_of_study_questions_ifirst","self_exclusion_1","0","0","0","0","0","0","Yes, use my data","1","2591","0"
"031519","09:43:21","509737959","276646504","4.0.10.0","1","5","end_of_study_questions_ifirst","self_exclusion_1other","0","0","0","0","0","0","","1","2591","0"
"031519","13:44:14","456863347","328544281","4.0.10.0","1","1","end_of_study_questions_ufirst","awareness","0","0","0","0","0","0","all","1","8071","0"
"031519","13:44:14","456863347","328544281","4.0.10.0","1","2","end_of_study_questions_ufirst","influence_general","0","0","0","0","0","0","all","1","6419","0"
"031519","13:44:14","456863347","328544281","4.0.10.0","1","3","end_of_study_questions_ufirst","unintentionality","0","0","0","0","0","0","all","1","14930","0"
"031519","13:44:14","456863347","328544281","4.0.10.0","1","4","end_of_study_questions_ufirst","intentionality","0","0","0","0","0","0","all","1","11452","0"
"031519","13:44:14","456863347","328544281","4.0.10.0","1","5","end_of_study_questions_ufirst","self_exclusion_1","0","0","0","0","0","0","Yes, use my data","1","19849","0"
"031519","13:44:14","456863347","328544281","4.0.10.0","1","5","end_of_study_questions_ufirst","self_exclusion_1other","0","0","0","0","0","0","","1","19849","0"
"031519","13:45:03","266417419","28751330","4.0.10.0","1","1","end_of_study_questions_ifirst","awareness","0","0","0","0","0","0","all","1","15839","0"
"031519","13:45:03","266417419","28751330","4.0.10.0","1","2","end_of_study_questions_ifirst","influence_general","0","0","0","0","0","0","more than half","1","7958","0"
"031519","13:45:03","266417419","28751330","4.0.10.0","1","3","end_of_study_questions_ifirst","intentionality","0","0","0","0","0","0","a few","1","4588","0"
"031519","13:45:03","266417419","28751330","4.0.10.0","1","4","end_of_study_questions_ifirst","unintentionality","0","0","0","0","0","0","less than half","1","8715","0"
"031519","13:45:03","266417419","28751330","4.0.10.0","1","5","end_of_study_questions_ifirst","self_exclusion_1","0","0","0","0","0","0","Yes, use my data","1","10994","0"
"031519","13:45:03","266417419","28751330","4.0.10.0","1","5","end_of_study_questions_ifirst","self_exclusion_1other","0","0","0","0","0","0","","1","10994","0"
"031519","13:42:27","913783198","936257094","4.0.10.0","1","1","end_of_study_questions_ifirst","awareness","0","0","0","0","0","0","all","1","58475","0"
"031519","13:42:27","913783198","936257094","4.0.10.0","1","2","end_of_study_questions_ifirst","influence_general","0","0","0","0","0","0","more than half","1","8996","0"
"031519","13:42:27","913783198","936257094","4.0.10.0","1","3","end_of_study_questions_ifirst","intentionality","0","0","0","0","0","0","a few","1","14964","0"
"031519","13:42:27","913783198","936257094","4.0.10.0","1","4","end_of_study_questions_ifirst","unintentionality","0","0","0","0","0","0","a few","1","7758","0"
"031519","13:42:27","913783198","936257094","4.0.10.0","1","5","end_of_study_questions_ifirst","self_exclusion_1","0","0","0","0","0","0","No, exclude my data (please specify why):","1","115802","0"
"031519","13:42:27","913783198","936257094","4.0.10.0","1","5","end_of_study_questions_ifirst","self_exclusion_1other","0","0","0","0","0","0","The 'painting' remained the same (a b/w pixelated image) - tried to notice differences but am pretty sure it was either not displaying correctly or is a part of the trial!","1","115802","0"
"031519","09:45:16","131358387","504257496","4.0.10.0","1","1","end_of_study_questions_ifirst","awareness","0","0","0","0","0","0","most","1","16373","0"
"031519","09:45:16","131358387","504257496","4.0.10.0","1","2","end_of_study_questions_ifirst","influence_general","0","0","0","0","0","0","about half","1","7622","0"
"031519","09:45:16","131358387","504257496","4.0.10.0","1","3","end_of_study_questions_ifirst","intentionality","0","0","0","0","0","0","a few","1","8002","0"
"031519","09:45:16","131358387","504257496","4.0.10.0","1","4","end_of_study_questions_ifirst","unintentionality","0","0","0","0","0","0","about half","1","8918","0"
"031519","09:45:16","131358387","504257496","4.0.10.0","1","5","end_of_study_questions_ifirst","self_exclusion_1","0","0","0","0","0","0","Yes, use my data","1","9131","0"
"031519","09:45:16","131358387","504257496","4.0.10.0","1","5","end_of_study_questions_ifirst","self_exclusion_1other","0","0","0","0","0","0","","1","9131","0"
"031519","09:45:14","561173474","335342488","4.0.10.0","1","1","end_of_study_questions_ifirst","awareness","0","0","0","0","0","0","all","1","12871","0"
"031519","09:45:14","561173474","335342488","4.0.10.0","1","2","end_of_study_questions_ifirst","influence_general","0","0","0","0","0","0","a few","1","10505","0"
"031519","09:45:14","561173474","335342488","4.0.10.0","1","3","end_of_study_questions_ifirst","intentionality","0","0","0","0","0","0","a few","1","15785","0"
"031519","09:45:14","561173474","335342488","4.0.10.0","1","4","end_of_study_questions_ifirst","unintentionality","0","0","0","0","0","0","a few","1","8189","0"
"031519","09:45:14","561173474","335342488","4.0.10.0","1","5","end_of_study_questions_ifirst","self_exclusion_1","0","0","0","0","0","0","Yes, use my data","1","6737","0"
"031519","09:45:14","561173474","335342488","4.0.10.0","1","5","end_of_study_questions_ifirst","self_exclusion_1other","0","0","0","0","0","0","","1","6737","0"
"031519","13:44:42","959627777","491919221","4.0.10.0","1","1","end_of_study_questions_ufirst","awareness","0","0","0","0","0","0","all","1","31909","0"
"031519","13:44:42","959627777","491919221","4.0.10.0","1","2","end_of_study_questions_ufirst","influence_general","0","0","0","0","0","0","none","1","11847","0"
"031519","13:44:42","959627777","491919221","4.0.10.0","1","3","end_of_study_questions_ufirst","unintentionality","0","0","0","0","0","0","less than half","1","10234","0"
"031519","13:44:42","959627777","491919221","4.0.10.0","1","4","end_of_study_questions_ufirst","intentionality","0","0","0","0","0","0","none","1","6383","0"
"031519","13:44:42","959627777","491919221","4.0.10.0","1","5","end_of_study_questions_ufirst","self_exclusion_1","0","0","0","0","0","0","Yes, use my data","1","34670","0"
"031519","13:44:42","959627777","491919221","4.0.10.0","1","5","end_of_study_questions_ufirst","self_exclusion_1other","0","0","0","0","0","0","","1","34670","0"
"031519","13:45:55","806016411","663722728","4.0.10.0","1","1","end_of_study_questions_ifirst","awareness","0","0","0","0","0","0","all","1","22957","0"
"031519","13:45:55","806016411","663722728","4.0.10.0","1","2","end_of_study_questions_ifirst","influence_general","0","0","0","0","0","0","a few","1","7870","0"
"031519","13:45:55","806016411","663722728","4.0.10.0","1","3","end_of_study_questions_ifirst","intentionality","0","0","0","0","0","0","a few","1","27745","0"
"031519","13:45:55","806016411","663722728","4.0.10.0","1","4","end_of_study_questions_ifirst","unintentionality","0","0","0","0","0","0","about half","1","14089","0"
"031519","13:45:55","806016411","663722728","4.0.10.0","1","5","end_of_study_questions_ifirst","self_exclusion_1","0","0","0","0","0","0","Yes, use my data","1","10772","0"
"031519","13:45:55","806016411","663722728","4.0.10.0","1","5","end_of_study_questions_ifirst","self_exclusion_1other","0","0","0","0","0","0","","1","10772","0"
"031519","09:46:33","987819960","900653247","4.0.10.0","1","1","end_of_study_questions_ufirst","awareness","0","0","0","0","0","0","all","1","17630","0"
"031519","09:46:33","987819960","900653247","4.0.10.0","1","2","end_of_study_questions_ufirst","influence_general","0","0","0","0","0","0","more than half","1","5162","0"
"031519","09:46:33","987819960","900653247","4.0.10.0","1","3","end_of_study_questions_ufirst","unintentionality","0","0","0","0","0","0","about half","1","7880","0"
"031519","09:46:33","987819960","900653247","4.0.10.0","1","4","end_of_study_questions_ufirst","intentionality","0","0","0","0","0","0","about half","1","7746","0"
"031519","09:46:33","987819960","900653247","4.0.10.0","1","5","end_of_study_questions_ufirst","self_exclusion_1","0","0","0","0","0","0","Yes, use my data","1","8505","0"
"031519","09:46:33","987819960","900653247","4.0.10.0","1","5","end_of_study_questions_ufirst","self_exclusion_1other","0","0","0","0","0","0","","1","8505","0"
"031519","13:46:47","710808934","639900562","4.0.10.0","1","1","end_of_study_questions_ifirst","awareness","0","0","0","0","0","0","less than half","1","16887","0"
"031519","13:46:47","710808934","639900562","4.0.10.0","1","2","end_of_study_questions_ifirst","influence_general","0","0","0","0","0","0","more than half","1","14201","0"
"031519","13:46:47","710808934","639900562","4.0.10.0","1","3","end_of_study_questions_ifirst","intentionality","0","0","0","0","0","0","none","1","10045","0"
"031519","13:46:47","710808934","639900562","4.0.10.0","1","4","end_of_study_questions_ifirst","unintentionality","0","0","0","0","0","0","more than half","1","18748","0"
"031519","13:46:47","710808934","639900562","4.0.10.0","1","5","end_of_study_questions_ifirst","self_exclusion_1","0","0","0","0","0","0","Yes, use my data","1","13596","0"
"031519","13:46:47","710808934","639900562","4.0.10.0","1","5","end_of_study_questions_ifirst","self_exclusion_1other","0","0","0","0","0","0","","1","13596","0"
"031519","13:47:14","402971211","470587717","4.0.10.0","1","1","end_of_study_questions_ufirst","awareness","0","0","0","0","0","0","all","1","29067","0"
"031519","13:47:14","402971211","470587717","4.0.10.0","1","2","end_of_study_questions_ufirst","influence_general","0","0","0","0","0","0","none","1","15069","0"
"031519","13:47:14","402971211","470587717","4.0.10.0","1","3","end_of_study_questions_ufirst","unintentionality","0","0","0","0","0","0","none","1","11601","0"
"031519","13:47:14","402971211","470587717","4.0.10.0","1","4","end_of_study_questions_ufirst","intentionality","0","0","0","0","0","0","none","1","15139","0"
"031519","13:47:14","402971211","470587717","4.0.10.0","1","5","end_of_study_questions_ufirst","self_exclusion_1","0","0","0","0","0","0","Yes, use my data","1","21184","0"
"031519","13:47:14","402971211","470587717","4.0.10.0","1","5","end_of_study_questions_ufirst","self_exclusion_1other","0","0","0","0","0","0","","1","21184","0"
"031519","13:47:36","99042787","178900360","4.0.10.0","1","1","end_of_study_questions_ifirst","awareness","0","0","0","0","0","0","all","1","39309","0"
"031519","13:47:36","99042787","178900360","4.0.10.0","1","2","end_of_study_questions_ifirst","influence_general","0","0","0","0","0","0","less than half","1","8216","0"
"031519","13:47:36","99042787","178900360","4.0.10.0","1","3","end_of_study_questions_ifirst","intentionality","0","0","0","0","0","0","a few","1","8836","0"
"031519","13:47:36","99042787","178900360","4.0.10.0","1","4","end_of_study_questions_ifirst","unintentionality","0","0","0","0","0","0","a few","1","5568","0"
"031519","13:47:36","99042787","178900360","4.0.10.0","1","5","end_of_study_questions_ifirst","self_exclusion_1","0","0","0","0","0","0","Yes, use my data","1","14741","0"
"031519","13:47:36","99042787","178900360","4.0.10.0","1","5","end_of_study_questions_ifirst","self_exclusion_1other","0","0","0","0","0","0","","1","14741","0"
"031519","09:48:26","645762891","908462411","4.0.10.0","1","1","end_of_study_questions_ufirst","awareness","0","0","0","0","0","0","all","1","17153","0"
"031519","09:48:26","645762891","908462411","4.0.10.0","1","2","end_of_study_questions_ufirst","influence_general","0","0","0","0","0","0","more than half","1","10683","0"
"031519","09:48:26","645762891","908462411","4.0.10.0","1","3","end_of_study_questions_ufirst","unintentionality","0","0","0","0","0","0","less than half","1","10303","0"
"031519","09:48:26","645762891","908462411","4.0.10.0","1","4","end_of_study_questions_ufirst","intentionality","0","0","0","0","0","0","less than half","1","15739","0"
"031519","09:48:26","645762891","908462411","4.0.10.0","1","5","end_of_study_questions_ufirst","self_exclusion_1","0","0","0","0","0","0","Yes, use my data","1","18807","0"
"031519","09:48:26","645762891","908462411","4.0.10.0","1","5","end_of_study_questions_ufirst","self_exclusion_1other","0","0","0","0","0","0","","1","18807","0"
"031519","13:46:06","262083863","794375296","4.0.10.0","1","1","end_of_study_questions_ifirst","awareness","0","0","0","0","0","0","all","1","8943","0"
"031519","13:46:06","262083863","794375296","4.0.10.0","1","2","end_of_study_questions_ifirst","influence_general","0","0","0","0","0","0","most","1","4434","0"
"031519","13:46:06","262083863","794375296","4.0.10.0","1","3","end_of_study_questions_ifirst","intentionality","0","0","0","0","0","0","none","1","11481","0"
"031519","13:46:06","262083863","794375296","4.0.10.0","1","4","end_of_study_questions_ifirst","unintentionality","0","0","0","0","0","0","more than half","1","4837","0"
"031519","13:46:06","262083863","794375296","4.0.10.0","1","5","end_of_study_questions_ifirst","self_exclusion_1","0","0","0","0","0","0","No, exclude my data (please specify why):","1","188712","0"
"031519","13:46:06","262083863","794375296","4.0.10.0","1","5","end_of_study_questions_ifirst","self_exclusion_1other","0","0","0","0","0","0","I just felt like every single image presented before the painting meant I was not able to view the paintings nuetrally. The paintings were far harder to actually process mentally than the images presented before them. Even though I tried extremely hard to focus on the paintings I felt each image clouded my impression unintentionally","1","188712","0"
"031519","08:49:30","442025620","205571831","4.0.10.0","1","1","end_of_study_questions_ufirst","awareness","0","0","0","0","0","0","all","1","6202","0"
"031519","08:49:30","442025620","205571831","4.0.10.0","1","2","end_of_study_questions_ufirst","influence_general","0","0","0","0","0","0","none","1","7066","0"
"031519","08:49:30","442025620","205571831","4.0.10.0","1","3","end_of_study_questions_ufirst","unintentionality","0","0","0","0","0","0","none","1","4027","0"
"031519","08:49:30","442025620","205571831","4.0.10.0","1","4","end_of_study_questions_ufirst","intentionality","0","0","0","0","0","0","none","1","8643","0"
"031519","08:49:30","442025620","205571831","4.0.10.0","1","5","end_of_study_questions_ufirst","self_exclusion_1","0","0","0","0","0","0","Yes, use my data","1","3505","0"
"031519","08:49:30","442025620","205571831","4.0.10.0","1","5","end_of_study_questions_ufirst","self_exclusion_1other","0","0","0","0","0","0","","1","3505","0"
"031519","09:49:26","939540021","872187172","4.0.10.0","1","1","end_of_study_questions_ifirst","awareness","0","0","0","0","0","0","a few","1","11433","0"
"031519","09:49:26","939540021","872187172","4.0.10.0","1","2","end_of_study_questions_ifirst","influence_general","0","0","0","0","0","0","a few","1","10790","0"
"031519","09:49:26","939540021","872187172","4.0.10.0","1","3","end_of_study_questions_ifirst","intentionality","0","0","0","0","0","0","none","1","6947","0"
"031519","09:49:26","939540021","872187172","4.0.10.0","1","4","end_of_study_questions_ifirst","unintentionality","0","0","0","0","0","0","less than half","1","7071","0"
"031519","09:49:26","939540021","872187172","4.0.10.0","1","5","end_of_study_questions_ifirst","self_exclusion_1","0","0","0","0","0","0","Yes, use my data","1","9618","0"
"031519","09:49:26","939540021","872187172","4.0.10.0","1","5","end_of_study_questions_ifirst","self_exclusion_1other","0","0","0","0","0","0","","1","9618","0"
"031519","09:49:58","556731964","848279434","4.0.10.0","1","1","end_of_study_questions_ifirst","awareness","0","0","0","0","0","0","all","1","19627","0"
"031519","09:49:58","556731964","848279434","4.0.10.0","1","2","end_of_study_questions_ifirst","influence_general","0","0","0","0","0","0","about half","1","5667","0"
"031519","09:49:58","556731964","848279434","4.0.10.0","1","3","end_of_study_questions_ifirst","intentionality","0","0","0","0","0","0","a few","1","9733","0"
"031519","09:49:58","556731964","848279434","4.0.10.0","1","4","end_of_study_questions_ifirst","unintentionality","0","0","0","0","0","0","less than half","1","7177","0"
"031519","09:49:58","556731964","848279434","4.0.10.0","1","5","end_of_study_questions_ifirst","self_exclusion_1","0","0","0","0","0","0","Yes, use my data","1","10649","0"
"031519","09:49:58","556731964","848279434","4.0.10.0","1","5","end_of_study_questions_ifirst","self_exclusion_1other","0","0","0","0","0","0","","1","10649","0"
"031519","13:50:33","861138738","354072186","4.0.10.0","1","1","end_of_study_questions_ifirst","awareness","0","0","0","0","0","0","all","1","12499","0"
"031519","13:50:33","861138738","354072186","4.0.10.0","1","2","end_of_study_questions_ifirst","influence_general","0","0","0","0","0","0","more than half","1","5215","0"
"031519","13:50:33","861138738","354072186","4.0.10.0","1","3","end_of_study_questions_ifirst","intentionality","0","0","0","0","0","0","about half","1","5437","0"
"031519","13:50:33","861138738","354072186","4.0.10.0","1","4","end_of_study_questions_ifirst","unintentionality","0","0","0","0","0","0","about half","1","3897","0"
"031519","13:50:33","861138738","354072186","4.0.10.0","1","5","end_of_study_questions_ifirst","self_exclusion_1","0","0","0","0","0","0","Yes, use my data","1","4727","0"
"031519","13:50:33","861138738","354072186","4.0.10.0","1","5","end_of_study_questions_ifirst","self_exclusion_1other","0","0","0","0","0","0","","1","4727","0"
"031519","09:52:42","565429127","88827637","4.0.10.0","1","1","end_of_study_questions_ufirst","awareness","0","0","0","0","0","0","most","1","18152","0"
"031519","09:52:42","565429127","88827637","4.0.10.0","1","2","end_of_study_questions_ufirst","influence_general","0","0","0","0","0","0","a few","1","12090","0"
"031519","09:52:42","565429127","88827637","4.0.10.0","1","3","end_of_study_questions_ufirst","unintentionality","0","0","0","0","0","0","a few","1","13304","0"
"031519","09:52:42","565429127","88827637","4.0.10.0","1","4","end_of_study_questions_ufirst","intentionality","0","0","0","0","0","0","none","1","6875","0"
"031519","09:52:42","565429127","88827637","4.0.10.0","1","5","end_of_study_questions_ufirst","self_exclusion_1","0","0","0","0","0","0","Yes, use my data","1","8273","0"
"031519","09:52:42","565429127","88827637","4.0.10.0","1","5","end_of_study_questions_ufirst","self_exclusion_1other","0","0","0","0","0","0","","1","8273","0"
"031519","13:52:20","35677611","694368279","4.0.10.0","1","1","end_of_study_questions_ufirst","awareness","0","0","0","0","0","0","all","1","12499","0"
"031519","13:52:20","35677611","694368279","4.0.10.0","1","2","end_of_study_questions_ufirst","influence_general","0","0","0","0","0","0","a few","1","5025","0"
