"date","time","subject","blockcode","blocknum","trialcode","trialnum","values.primestim","values.targetstim","correct","latency","trial.prime_positive.totalpercentcorrect","trial.prime_negative.totalpercentcorrect"
"031419","15:26:57","870500023","test","2","prime_positive","1","4","49","0","321","0","0"
"031419","15:26:57","870500023","test","2","prime_negative","2","4","16","1","187","0","100"
"031419","15:26:57","870500023","test","2","prime_positive","3","2","20","0","170","0","100"
"031419","15:26:57","870500023","test","2","prime_positive","4","5","54","1","257","33","100"
"031419","15:52:07","898951393","test","2","prime_positive","1","3","60","0","2329","0","0"
"031419","15:52:07","898951393","test","2","prime_negative","2","12","37","1","268","0","100"
"031419","15:52:07","898951393","test","2","prime_negative","3","8","20","1","2578","0","100"
"031519","12:17:05","512611727","test","2","prime_positive","1","11","56","0","1429","0","0"
"031519","12:17:05","512611727","test","2","prime_negative","2","4","11","1","2009","0","100"
"031519","12:17:05","512611727","test","2","prime_negative","3","7","48","0","1017","0","50"
"031519","12:17:05","512611727","test","2","prime_negative","4","12","42","0","1424","0","33"
"031519","12:17:05","512611727","test","2","prime_positive","5","4","37","1","498","50","33"
"031519","12:17:05","512611727","test","2","prime_positive","6","9","28","1","424","66","33"
"031519","12:17:05","512611727","test","2","prime_positive","7","2","47","1","305","75","33"
"031519","12:17:05","512611727","test","2","prime_positive","8","12","59","1","431","80","33"
"031519","12:17:05","512611727","test","2","prime_negative","9","10","39","0","370","80","25"
"031519","12:17:05","512611727","test","2","prime_negative","10","2","16","0","2356","80","20"
"031519","12:17:05","512611727","test","2","prime_positive","11","6","43","1","569","83","20"
"031519","12:17:05","512611727","test","2","prime_positive","12","1","24","1","445","85","20"
"031519","12:17:05","512611727","test","2","prime_positive","13","3","8","1","284","87","20"
"031519","12:17:05","512611727","test","2","prime_positive","14","5","18","1","377","88","20"
"031519","12:17:05","512611727","test","2","prime_negative","15","8","23","0","480","88","16"
"031519","12:17:05","512611727","test","2","prime_negative","16","9","41","0","581","88","14"
"031519","12:17:05","512611727","test","2","prime_positive","17","10","14","1","754","90","14"
"031519","12:17:05","512611727","test","2","prime_positive","18","8","50","1","507","90","14"
"031519","12:17:05","512611727","test","2","prime_negative","19","1","5","0","313","90","12"
"031519","12:17:05","512611727","test","2","prime_negative","20","6","45","0","345","90","11"
"031519","12:17:05","512611727","test","2","prime_positive","21","7","55","1","335","91","11"
"031519","12:17:05","512611727","test","2","prime_negative","22","5","57","0","454","91","10"
"031519","12:17:05","512611727","test","2","prime_negative","23","3","38","0","429","91","9"
"031519","12:17:05","512611727","test","2","prime_positive","24","12","12","1","248","92","9"
"031519","12:17:05","512611727","test","2","prime_negative","25","11","17","1","472","92","16"
"031519","12:17:05","512611727","test","2","prime_negative","26","9","49","0","876","92","15"
"031519","12:17:05","512611727","test","2","prime_negative","27","8","1","0","471","92","14"
"031519","12:17:05","512611727","test","2","prime_negative","28","11","35","1","977","92","20"
"031519","12:17:05","512611727","test","2","prime_positive","29","2","3","1","390","92","20"
"031519","12:17:05","512611727","test","2","prime_positive","30","9","51","1","335","93","20"
"031519","12:17:05","512611727","test","2","prime_positive","31","7","34","1","266","93","20"
"031519","12:17:05","512611727","test","2","prime_positive","32","3","33","1","226","94","20"
"031519","12:17:05","512611727","test","2","prime_negative","33","10","46","1","285","94","25"
"031519","12:17:05","512611727","test","2","prime_negative","34","4","32","1","274","94","29"
"031519","12:17:05","512611727","test","2","prime_positive","35","6","9","1","468","94","29"
"031519","12:17:05","512611727","test","2","prime_negative","36","1","27","0","302","94","27"
"031519","12:17:05","512611727","test","2","prime_negative","37","3","25","0","516","94","26"
"031519","12:17:05","512611727","test","2","prime_negative","38","2","10","0","318","94","25"
"031519","12:17:05","512611727","test","2","prime_negative","39","6","40","0","275","94","23"
"031519","12:17:05","512611727","test","2","prime_negative","40","5","22","0","356","94","22"
"031519","12:17:05","512611727","test","2","prime_positive","41","10","6","0","635","89","22"
"031519","12:17:05","512611727","test","2","prime_negative","42","7","60","0","477","89","21"
"031519","12:17:05","512611727","test","2","prime_negative","43","12","54","0","553","89","20"
"031519","12:17:05","512611727","test","2","prime_positive","44","11","26","1","372","90","20"
"031519","12:17:05","512611727","test","2","prime_positive","45","8","52","1","313","90","20"
"031519","12:17:05","512611727","test","2","prime_positive","46","1","20","1","261","90","20"
"031519","12:17:05","512611727","test","2","prime_positive","47","5","19","1","261","91","20"
"031519","12:17:05","512611727","test","2","prime_negative","48","4","4","0","526","91","20"
"031519","12:17:05","512611727","test","2","prime_positive","49","4","53","1","403","91","20"
"031519","12:17:05","512611727","test","2","prime_positive","50","5","15","1","318","92","20"
"031519","12:17:05","512611727","test","2","prime_negative","51","3","13","0","408","92","19"
"031519","12:17:05","512611727","test","2","prime_negative","52","1","7","0","367","92","18"
"031519","12:17:05","512611727","test","2","prime_positive","53","11","36","1","359","92","18"
"031519","12:17:05","512611727","test","2","prime_positive","54","9","21","1","365","92","18"
"031519","12:17:05","512611727","test","2","prime_negative","55","11","30","0","1077","92","17"
"031519","12:17:05","512611727","test","2","prime_negative","56","7","29","1","662","92","20"
"031519","12:17:05","512611727","test","2","prime_positive","57","7","2","0","121","89","20"
"031519","12:17:05","512611727","test","2","prime_positive","58","6","58","1","266","89","20"
"031519","12:17:05","512611727","test","2","prime_positive","59","8","31","1","274","90","20"
"031519","12:17:05","512611727","test","2","prime_negative","60","5","44","0","361","90","20"
"031519","23:27:39","144535166","test","2","prime_negative","1","8","5","0","2723","0","0"
"031519","23:27:39","144535166","test","2","prime_positive","2","6","15","0","2026","0","0"
"031519","23:27:39","144535166","test","2","prime_positive","3","12","19","0","1188","0","0"
"031519","23:27:39","144535166","test","2","prime_positive","4","11","30","0","700","0","0"
"031519","23:27:39","144535166","test","2","prime_negative","5","10","44","0","785","0","0"
"031519","23:27:39","144535166","test","2","prime_negative","6","12","45","0","642","0","0"
"031519","23:27:39","144535166","test","2","prime_positive","7","4","47","0","466","0","0"
"031519","23:27:39","144535166","test","2","prime_negative","8","3","24","0","2046","0","0"
"031519","23:27:39","144535166","test","2","prime_positive","9","8","17","0","417","0","0"
"031519","23:27:39","144535166","test","2","prime_negative","10","7","16","0","503","0","0"
"031519","23:27:39","144535166","test","2","prime_positive","11","9","55","0","1006","0","0"
"031519","23:27:39","144535166","test","2","prime_negative","12","6","10","0","418","0","0"
"031519","23:27:39","144535166","test","2","prime_negative","13","9","37","0","286","0","0"
"031519","23:27:39","144535166","test","2","prime_positive","14","3","56","0","302","0","0"
"031519","23:27:39","144535166","test","2","prime_negative","15","5","4","0","371","0","0"
"031519","23:27:39","144535166","test","2","prime_negative","16","4","25","0","314","0","0"
"031519","23:27:39","144535166","test","2","prime_positive","17","7","60","0","290","0","0"
"031519","23:27:39","144535166","test","2","prime_positive","18","2","3","0","280","0","0"
"031519","23:27:39","144535166","test","2","prime_positive","19","5","12","0","304","0","0"
"031519","23:27:39","144535166","test","2","prime_negative","20","11","50","0","467","0","0"
"031519","23:27:39","144535166","test","2","prime_positive","21","1","35","0","248","0","0"
"031519","23:27:39","144535166","test","2","prime_negative","22","2","11","0","267","0","0"
"031519","23:27:39","144535166","test","2","prime_negative","23","1","41","0","447","0","0"
"031519","23:27:39","144535166","test","2","prime_positive","24","10","13","0","651","0","0"
"031519","23:27:39","144535166","test","2","prime_positive","25","11","54","0","557","0","0"
"031519","23:27:39","144535166","test","2","prime_negative","26","8","28","0","424","0","0"
"031519","23:27:39","144535166","test","2","prime_positive","27","4","2","0","463","0","0"
"031519","23:27:39","144535166","test","2","prime_positive","28","6","58","1","311","6","0"
"031519","23:27:39","144535166","test","2","prime_positive","29","10","27","0","387","6","0"
"031519","23:27:39","144535166","test","2","prime_negative","30","9","14","1","122","6","7"
"031519","23:27:39","144535166","test","2","prime_negative","31","10","8","1","147","6","13"
"031519","23:27:39","144535166","test","2","prime_positive","32","1","59","0","207","5","13"
"031519","23:27:39","144535166","test","2","prime_positive","33","8","22","1","140","11","13"
"031519","23:27:39","144535166","test","2","prime_positive","34","2","32","1","290","15","13"
"031519","23:27:39","144535166","test","2","prime_negative","35","3","49","0","193","15","12"
"031519","23:27:39","144535166","test","2","prime_negative","36","2","23","1","116","15","17"
"031519","23:27:39","144535166","test","2","prime_positive","37","7","20","0","132","15","17"
"031519","23:27:39","144535166","test","2","prime_negative","38","6","1","0","391","15","16"
"031519","23:27:39","144535166","test","2","prime_negative","39","7","6","1","378","15","21"
"031519","23:27:39","144535166","test","2","prime_positive","40","5","33","1","354","19","21"
"031519","23:27:39","144535166","test","2","prime_negative","41","12","26","1","469","19","25"
"031519","23:27:39","144535166","test","2","prime_negative","42","5","31","0","246","19","23"
"031519","23:27:39","144535166","test","2","prime_negative","43","4","42","1","326","19","27"
"031519","23:27:39","144535166","test","2","prime_positive","44","12","53","0","323","18","27"
"031519","23:27:39","144535166","test","2","prime_negative","45","1","48","1","344","18","30"
"031519","23:27:39","144535166","test","2","prime_negative","46","11","38","0","207","18","29"
"031519","23:27:39","144535166","test","2","prime_negative","47","8","46","1","1779","18","32"
"031519","23:27:39","144535166","test","2","prime_positive","48","3","29","0","291","17","32"
"031519","23:27:39","144535166","test","2","prime_positive","49","9","43","0","186","16","32"
"031519","23:27:39","144535166","test","2","prime_positive","50","3","51","1","161","20","32"
"031519","23:27:39","144535166","test","2","prime_positive","51","6","7","1","193","23","32"
"031519","23:27:39","144535166","test","2","prime_positive","52","4","21","0","230","22","32"
"031519","23:27:39","144535166","test","2","prime_positive","53","7","40","1","263","25","32"
"031519","23:27:39","144535166","test","2","prime_negative","54","11","39","0","145","25","30"
"031519","23:27:39","144535166","test","2","prime_positive","55","2","9","0","319","24","30"
"031519","23:27:39","144535166","test","2","prime_negative","56","5","36","1","231","24","33"
"031519","23:27:39","144535166","test","2","prime_negative","57","12","57","1","338","24","35"
"031519","23:27:39","144535166","test","2","prime_negative","58","9","18","0","324","24","34"
"031519","23:27:39","144535166","test","2","prime_positive","59","10","34","0","367","23","34"
"031519","23:27:39","144535166","test","2","prime_negative","60","3","52","1","190","23","36"
"031519","12:36:32","924884559","test","2","prime_negative","1","7","48","0","5098","0","0"
"031519","12:36:32","924884559","test","2","prime_negative","2","8","36","0","2912","0","0"
"031519","12:36:32","924884559","test","2","prime_positive","3","7","30","0","1594","0","0"
"031519","12:36:32","924884559","test","2","prime_positive","4","10","37","0","3844","0","0"
"031519","12:36:32","924884559","test","2","prime_positive","5","2","27","0","3423","0","0"
"031519","12:36:32","924884559","test","2","prime_negative","6","5","51","0","37547","0","0"
"031519","12:36:32","924884559","test","2","prime_negative","7","4","55","0","788","0","0"
"031519","12:36:32","924884559","test","2","prime_negative","8","9","19","0","535","0","0"
"031519","12:36:32","924884559","test","2","prime_positive","9","4","16","0","4957","0","0"
"031519","12:36:32","924884559","test","2","prime_positive","10","11","3","0","345","0","0"
"031519","12:36:32","924884559","test","2","prime_negative","11","6","45","0","447","0","0"
"031519","12:36:32","924884559","test","2","prime_positive","12","9","57","0","449","0","0"
"031519","12:36:32","924884559","test","2","prime_negative","13","3","53","0","499","0","0"
"031519","12:36:32","924884559","test","2","prime_positive","14","3","25","0","587","0","0"
"031519","12:36:32","924884559","test","2","prime_positive","15","8","1","0","535","0","0"
"031519","12:36:32","924884559","test","2","prime_negative","16","11","10","0","501","0","0"
"031519","12:36:32","924884559","test","2","prime_negative","17","1","42","0","500","0","0"
"031519","12:36:32","924884559","test","2","prime_negative","18","12","17","0","396","0","0"
"031519","12:36:32","924884559","test","2","prime_positive","19","6","47","0","289","0","0"
"031519","12:36:32","924884559","test","2","prime_negative","20","2","41","0","328","0","0"
"031519","12:36:32","924884559","test","2","prime_positive","21","1","22","0","239","0","0"
"031519","12:36:32","924884559","test","2","prime_negative","22","10","32","0","297","0","0"
"031519","12:36:32","924884559","test","2","prime_positive","23","12","39","0","433","0","0"
"031519","12:36:32","924884559","test","2","prime_positive","24","5","26","0","292","0","0"
"031519","12:36:32","924884559","test","2","prime_positive","25","6","11","0","252","0","0"
"031519","12:36:32","924884559","test","2","prime_negative","26","4","28","0","286","0","0"
"031519","12:36:32","924884559","test","2","prime_positive","27","5","50","0","190","0","0"
"031519","12:36:32","924884559","test","2","prime_negative","28","7","44","0","267","0","0"
"031519","12:36:32","924884559","test","2","prime_positive","29","7","40","0","356","0","0"
"031519","12:36:32","924884559","test","2","prime_negative","30","11","21","0","306","0","0"
"031519","12:36:32","924884559","test","2","prime_negative","31","8","7","0","289","0","0"
"031519","12:36:32","924884559","test","2","prime_negative","32","5","12","0","305","0","0"
"031519","12:36:32","924884559","test","2","prime_positive","33","4","33","0","353","0","0"
"031519","12:36:32","924884559","test","2","prime_positive","34","2","31","0","110","0","0"
"031519","12:36:32","924884559","test","2","prime_positive","35","10","49","0","294","0","0"
"031519","12:36:32","924884559","test","2","prime_positive","36","11","14","0","86","0","0"
"031519","12:36:32","924884559","test","2","prime_positive","37","8","15","0","111","0","0"
"031519","12:36:32","924884559","test","2","prime_negative","38","3","2","0","327","0","0"
"031519","12:36:32","924884559","test","2","prime_positive","39","3","9","0","438","0","0"
"031519","12:36:32","924884559","test","2","prime_negative","40","10","8","0","464","0","0"
"031519","12:36:32","924884559","test","2","prime_positive","41","9","54","0","489","0","0"
"031519","12:36:32","924884559","test","2","prime_positive","42","12","24","0","465","0","0"
"031519","12:36:32","924884559","test","2","prime_positive","43","1","29","0","530","0","0"
"031519","12:36:32","924884559","test","2","prime_negative","44","2","46","0","280","0","0"
"031519","12:36:32","924884559","test","2","prime_negative","45","6","43","0","257","0","0"
"031519","12:36:32","924884559","test","2","prime_negative","46","12","60","0","235","0","0"
"031519","12:36:32","924884559","test","2","prime_positive","47","11","13","0","277","0","0"
"031519","12:36:32","924884559","test","2","prime_negative","48","1","6","0","438","0","0"
"031519","12:36:32","924884559","test","2","prime_negative","49","9","5","0","392","0","0"
"031519","12:36:32","924884559","test","2","prime_positive","50","9","18","0","364","0","0"
"031519","12:36:32","924884559","test","2","prime_positive","51","8","58","0","289","0","0"
"031519","12:36:32","924884559","test","2","prime_positive","52","4","38","0","290","0","0"
"031519","12:36:32","924884559","test","2","prime_negative","53","11","52","0","178","0","0"
"031519","12:36:32","924884559","test","2","prime_negative","54","5","20","0","311","0","0"
"031519","12:36:32","924884559","test","2","prime_negative","55","6","4","0","367","0","0"
"031519","12:36:32","924884559","test","2","prime_positive","56","5","56","0","349","0","0"
"031519","12:36:32","924884559","test","2","prime_positive","57","3","59","0","426","0","0"
"031519","12:36:32","924884559","test","2","prime_negative","58","1","34","0","380","0","0"
"031519","12:36:32","924884559","test","2","prime_negative","59","3","35","0","322","0","0"
"031519","12:36:32","924884559","test","2","prime_negative","60","8","23","0","392","0","0"
"031519","12:45:25","438458371","test","2","prime_negative","1","8","47","0","3297","0","0"
"031519","12:45:25","438458371","test","2","prime_positive","2","5","58","0","1891","0","0"
"031519","12:45:25","438458371","test","2","prime_negative","3","12","33","0","2994","0","0"
"031519","12:45:25","438458371","test","2","prime_positive","4","1","8","0","707","0","0"
"031519","12:45:25","438458371","test","2","prime_negative","5","11","36","0","1410","0","0"
"031519","12:45:25","438458371","test","2","prime_negative","6","2","12","0","1722","0","0"
"031519","12:45:25","438458371","test","2","prime_positive","7","9","1","0","1186","0","0"
"031519","12:45:25","438458371","test","2","prime_negative","8","1","27","0","1018","0","0"
"031519","12:45:25","438458371","test","2","prime_positive","9","6","22","0","746","0","0"
"031519","12:45:25","438458371","test","2","prime_negative","10","10","3","0","1010","0","0"
"031519","12:45:25","438458371","test","2","prime_negative","11","9","28","0","402","0","0"
"031519","12:45:25","438458371","test","2","prime_positive","12","3","60","0","522","0","0"
"031519","12:45:25","438458371","test","2","prime_negative","13","6","31","0","626","0","0"
"031519","12:45:25","438458371","test","2","prime_negative","14","5","41","0","586","0","0"
"031519","12:45:25","438458371","test","2","prime_negative","15","7","49","0","578","0","0"
"031519","12:45:25","438458371","test","2","prime_positive","16","11","52","0","546","0","0"
"031519","12:45:25","438458371","test","2","prime_positive","17","12","14","0","642","0","0"
"031519","12:45:25","438458371","test","2","prime_positive","18","4","50","0","474","0","0"
"031519","12:45:25","438458371","test","2","prime_negative","19","3","37","0","890","0","0"
"031519","12:45:25","438458371","test","2","prime_positive","20","2","34","0","410","0","0"
"031519","12:45:25","438458371","test","2","prime_negative","21","4","44","0","458","0","0"
"031519","12:45:25","438458371","test","2","prime_negative","22","9","53","0","394","0","0"
"031519","12:45:25","438458371","test","2","prime_positive","23","7","59","0","594","0","0"
"031519","12:45:25","438458371","test","2","prime_negative","24","11","25","0","394","0","0"
"031519","12:45:25","438458371","test","2","prime_negative","25","7","10","0","1042","0","0"
"031519","12:45:25","438458371","test","2","prime_negative","26","3","54","0","1298","0","0"
"031519","12:45:25","438458371","test","2","prime_positive","27","8","17","0","1434","0","0"
"031519","12:45:25","438458371","test","2","prime_positive","28","10","43","0","530","0","0"
"031519","12:45:25","438458371","test","2","prime_negative","29","10","56","0","442","0","0"
"031519","12:45:25","438458371","test","2","prime_positive","30","10","24","0","386","0","0"
"031519","12:45:25","438458371","test","2","prime_negative","31","4","39","0","354","0","0"
"031519","12:45:25","438458371","test","2","prime_positive","32","5","13","0","298","0","0"
"031519","12:45:25","438458371","test","2","prime_positive","33","12","32","0","373","0","0"
"031519","12:45:25","438458371","test","2","prime_positive","34","4","40","0","306","0","0"
"031519","12:45:25","438458371","test","2","prime_positive","35","1","11","0","690","0","0"
"031519","12:45:25","438458371","test","2","prime_positive","36","7","35","0","266","0","0"
"031519","12:45:25","438458371","test","2","prime_negative","37","2","19","0","394","0","0"
"031519","12:45:25","438458371","test","2","prime_positive","38","9","42","0","314","0","0"
"031519","12:45:25","438458371","test","2","prime_positive","39","11","46","0","354","0","0"
"031519","12:45:25","438458371","test","2","prime_negative","40","1","30","0","306","0","0"
"031519","12:45:25","438458371","test","2","prime_negative","41","5","29","0","330","0","0"
"031519","12:45:25","438458371","test","2","prime_negative","42","12","48","0","258","0","0"
"031519","12:45:25","438458371","test","2","prime_negative","43","6","2","0","234","0","0"
"031519","12:45:25","438458371","test","2","prime_positive","44","2","51","0","362","0","0"
"031519","12:45:25","438458371","test","2","prime_negative","45","8","21","0","242","0","0"
"031519","12:45:25","438458371","test","2","prime_positive","46","6","23","0","82","0","0"
"031519","12:45:25","438458371","test","2","prime_negative","47","8","45","0","245","0","0"
"031519","12:45:25","438458371","test","2","prime_negative","48","9","57","0","251","0","0"
"031519","12:45:25","438458371","test","2","prime_positive","49","8","5","0","346","0","0"
"031519","12:45:25","438458371","test","2","prime_positive","50","3","18","0","346","0","0"
"031519","12:45:25","438458371","test","2","prime_positive","51","1","55","0","210","0","0"
"031519","12:45:25","438458371","test","2","prime_negative","52","6","6","0","258","0","0"
"031519","12:45:25","438458371","test","2","prime_negative","53","11","4","0","346","0","0"
"031519","12:45:25","438458371","test","2","prime_positive","54","9","7","0","274","0","0"
"031519","12:45:25","438458371","test","2","prime_negative","55","1","26","0","306","0","0"
"031519","12:45:25","438458371","test","2","prime_negative","56","12","38","0","290","0","0"
"031519","12:45:25","438458371","test","2","prime_positive","57","10","20","0","299","0","0"
"031519","12:45:25","438458371","test","2","prime_positive","58","4","16","0","75","0","0"
"031519","12:45:25","438458371","test","2","prime_positive","59","12","15","0","310","0","0"
"031519","12:45:25","438458371","test","2","prime_positive","60","6","9","0","218","0","0"
"031519","12:53:09","202158371","test","2","prime_positive","1","3","3","0","3563","0","0"
"031519","12:53:09","202158371","test","2","prime_negative","2","10","13","0","3608","0","0"
"031519","12:53:09","202158371","test","2","prime_negative","3","1","14","0","1111","0","0"
"031519","12:53:09","202158371","test","2","prime_positive","4","7","25","1","1524","50","0"
"031519","12:53:09","202158371","test","2","prime_negative","5","7","15","0","1193","50","0"
"031519","12:53:09","202158371","test","2","prime_positive","6","4","9","0","2195","33","0"
"031519","12:53:09","202158371","test","2","prime_positive","7","9","2","1","1135","50","0"
"031519","12:53:09","202158371","test","2","prime_positive","8","5","44","1","576","60","0"
"031519","12:53:09","202158371","test","2","prime_positive","9","12","39","1","577","66","0"
"031519","12:53:09","202158371","test","2","prime_negative","10","9","46","0","938","66","0"
"031519","12:53:09","202158371","test","2","prime_positive","11","6","29","1","558","71","0"
"031519","12:53:09","202158371","test","2","prime_negative","12","12","40","0","2661","71","0"
"031519","12:53:09","202158371","test","2","prime_negative","13","6","56","0","643","71","0"
"031519","12:53:09","202158371","test","2","prime_positive","14","8","34","1","396","75","0"
"031519","12:53:09","202158371","test","2","prime_negative","15","4","45","1","762","75","14"
"031519","12:53:09","202158371","test","2","prime_negative","16","5","49","0","627","75","12"
"031519","12:53:09","202158371","test","2","prime_negative","17","3","32","0","454","75","11"
"031519","12:53:09","202158371","test","2","prime_positive","18","11","57","1","534","77","11"
"031519","12:53:09","202158371","test","2","prime_negative","19","8","28","0","806","77","10"
"031519","12:53:09","202158371","test","2","prime_positive","20","1","5","1","389","80","10"
"031519","12:53:09","202158371","test","2","prime_positive","21","2","12","1","512","81","10"
"031519","12:53:09","202158371","test","2","prime_negative","22","2","20","0","461","81","9"
"031519","12:53:09","202158371","test","2","prime_positive","23","10","1","1","626","83","9"
"031519","12:53:09","202158371","test","2","prime_positive","24","3","30","1","422","84","9"
"031519","12:53:09","202158371","test","2","prime_negative","25","11","31","1","852","84","16"
"031519","12:53:09","202158371","test","2","prime_positive","26","8","7","1","408","85","16"
"031519","12:53:09","202158371","test","2","prime_negative","27","3","16","0","357","85","15"
"031519","12:53:09","202158371","test","2","prime_positive","28","9","22","1","692","86","15"
"031519","12:53:09","202158371","test","2","prime_positive","29","1","42","1","339","87","15"
"031519","12:53:09","202158371","test","2","prime_positive","30","6","17","1","285","88","15"
"031519","12:53:09","202158371","test","2","prime_negative","31","7","26","0","414","88","14"
"031519","12:53:09","202158371","test","2","prime_positive","32","7","59","1","443","88","14"
"031519","12:53:09","202158371","test","2","prime_negative","33","4","18","1","647","88","20"
"031519","12:53:09","202158371","test","2","prime_negative","34","6","27","0","522","88","18"
"031519","12:53:09","202158371","test","2","prime_negative","35","1","24","0","544","88","17"
"031519","12:53:09","202158371","test","2","prime_positive","36","5","36","1","455","89","17"
"031519","12:53:09","202158371","test","2","prime_positive","37","2","35","1","2117","90","17"
"031519","12:53:09","202158371","test","2","prime_negative","38","9","41","0","1014","90","16"
"031519","12:53:09","202158371","test","2","prime_negative","39","5","43","0","409","90","15"
"031519","12:53:09","202158371","test","2","prime_negative","40","10","10","0","369","90","15"
"031519","12:53:09","202158371","test","2","prime_negative","41","11","48","0","516","90","14"
"031519","12:53:09","202158371","test","2","prime_negative","42","2","33","0","265","90","13"
"031519","12:53:09","202158371","test","2","prime_positive","43","10","60","1","460","90","13"
"031519","12:53:09","202158371","test","2","prime_negative","44","8","6","0","305","90","13"
"031519","12:53:09","202158371","test","2","prime_positive","45","11","55","1","346","90","13"
"031519","12:53:09","202158371","test","2","prime_positive","46","12","4","1","422","91","13"
"031519","12:53:09","202158371","test","2","prime_negative","47","12","54","0","551","91","12"
"031519","12:53:09","202158371","test","2","prime_negative","48","6","51","0","391","91","12"
"031519","12:53:09","202158371","test","2","prime_positive","49","4","21","1","776","91","12"
"031519","12:53:09","202158371","test","2","prime_negative","50","9","37","0","829","91","11"
"031519","12:53:09","202158371","test","2","prime_negative","51","8","52","0","384","91","11"
"031519","12:53:09","202158371","test","2","prime_positive","52","8","38","1","287","92","11"
"031519","12:53:09","202158371","test","2","prime_negative","53","12","53","0","496","92","10"
"031519","12:53:09","202158371","test","2","prime_positive","54","12","58","1","449","92","10"
"031519","12:53:09","202158371","test","2","prime_negative","55","1","8","0","336","92","10"
"031519","12:53:09","202158371","test","2","prime_positive","56","2","23","1","364","92","10"
"031519","12:53:09","202158371","test","2","prime_negative","57","7","47","0","347","92","10"
"031519","12:53:09","202158371","test","2","prime_positive","58","6","19","1","432","92","10"
"031519","12:53:09","202158371","test","2","prime_positive","59","3","50","1","283","93","10"
"031519","12:53:09","202158371","test","2","prime_positive","60","11","11","1","243","93","10"
"031519","12:58:27","115650521","test","2","prime_negative","1","9","8","0","1259","0","0"
"031519","12:58:27","115650521","test","2","prime_positive","2","1","45","1","738","100","0"
"031519","12:58:27","115650521","test","2","prime_negative","3","3","60","1","969","100","50"
"031519","12:58:27","115650521","test","2","prime_positive","4","7","12","1","766","100","50"
"031519","12:58:27","115650521","test","2","prime_positive","5","9","24","1","695","100","50"
"031519","12:58:27","115650521","test","2","prime_negative","6","5","1","1","672","100","66"
"031519","12:58:27","115650521","test","2","prime_positive","7","12","29","0","440","75","66"
"031519","12:58:27","115650521","test","2","prime_negative","8","11","53","0","632","75","50"
"031519","12:58:27","115650521","test","2","prime_positive","9","10","40","1","437","80","50"
"031519","12:58:27","115650521","test","2","prime_negative","10","4","31","1","454","80","60"
"031519","12:58:27","115650521","test","2","prime_positive","11","8","21","0","597","66","60"
"031519","12:58:27","115650521","test","2","prime_negative","12","8","13","0","491","66","50"
"031519","12:58:27","115650521","test","2","prime_negative","13","2","9","1","316","66","57"
"031519","12:58:27","115650521","test","2","prime_positive","14","11","11","1","392","71","57"
"031519","12:58:27","115650521","test","2","prime_positive","15","4","44","0","783","62","57"
"031519","12:58:27","115650521","test","2","prime_positive","16","6","22","1","380","66","57"
"031519","12:58:27","115650521","test","2","prime_positive","17","3","56","1","620","70","57"
"031519","12:58:27","115650521","test","2","prime_negative","18","7","14","0","409","70","50"
"031519","12:58:27","115650521","test","2","prime_negative","19","10","6","1","387","70","55"
"031519","12:58:27","115650521","test","2","prime_positive","20","2","39","0","677","63","55"
"031519","12:58:27","115650521","test","2","prime_positive","21","5","43","0","471","58","55"
"031519","12:58:27","115650521","test","2","prime_negative","22","12","18","1","567","58","60"
"031519","12:58:27","115650521","test","2","prime_positive","23","3","50","1","550","61","60"
"031519","12:58:27","115650521","test","2","prime_positive","24","7","32","1","349","64","60"
"031519","12:58:27","115650521","test","2","prime_positive","25","10","52","1","421","66","60"
"031519","12:58:27","115650521","test","2","prime_negative","26","1","25","1","472","66","63"
"031519","12:58:27","115650521","test","2","prime_positive","27","2","51","1","496","68","63"
"031519","12:58:27","115650521","test","2","prime_negative","28","6","57","0","249","68","58"
"031519","12:58:27","115650521","test","2","prime_positive","29","12","48","0","386","64","58"
"031519","12:58:27","115650521","test","2","prime_negative","30","6","59","1","370","64","61"
"031519","12:58:27","115650521","test","2","prime_negative","31","9","28","1","454","64","64"
"031519","12:58:27","115650521","test","2","prime_negative","32","4","10","1","382","64","66"
"031519","12:58:27","115650521","test","2","prime_negative","33","11","37","1","355","64","68"
"031519","12:58:27","115650521","test","2","prime_negative","34","10","49","1","453","64","70"
"031519","12:58:27","115650521","test","2","prime_positive","35","8","35","0","649","61","70"
"031519","12:58:27","115650521","test","2","prime_negative","36","8","55","1","414","61","72"
"031519","12:58:27","115650521","test","2","prime_positive","37","5","5","0","724","57","72"
"031519","12:58:27","115650521","test","2","prime_negative","38","7","38","0","502","57","68"
"031519","12:58:27","115650521","test","2","prime_negative","39","12","33","0","700","57","65"
"031519","12:58:27","115650521","test","2","prime_negative","40","5","46","0","429","57","61"
"031519","12:58:27","115650521","test","2","prime_negative","41","2","30","1","473","57","63"
"031519","12:58:27","115650521","test","2","prime_positive","42","6","42","0","726","55","63"
"031519","12:58:27","115650521","test","2","prime_positive","43","9","54","1","660","57","63"
"031519","12:58:27","115650521","test","2","prime_negative","44","1","47","0","634","57","60"
"031519","12:58:27","115650521","test","2","prime_positive","45","4","7","0","399","54","60"
"031519","12:58:27","115650521","test","2","prime_negative","46","3","4","1","545","54","62"
"031519","12:58:27","115650521","test","2","prime_positive","47","11","19","1","588","56","62"
"031519","12:58:27","115650521","test","2","prime_negative","48","8","26","1","500","56","64"
"031519","12:58:27","115650521","test","2","prime_positive","49","1","3","1","576","58","64"
"031519","12:58:27","115650521","test","2","prime_positive","50","10","20","0","538","56","64"
"031519","12:58:27","115650521","test","2","prime_negative","51","3","16","1","795","56","65"
"031519","12:58:27","115650521","test","2","prime_positive","52","8","41","0","495","53","65"
"031519","12:58:27","115650521","test","2","prime_negative","53","6","27","1","713","53","66"
"031519","12:58:27","115650521","test","2","prime_positive","54","4","15","1","549","55","66"
"031519","12:58:27","115650521","test","2","prime_positive","55","3","34","0","643","53","66"
"031519","12:58:27","115650521","test","2","prime_negative","56","9","23","0","750","53","64"
"031519","12:58:27","115650521","test","2","prime_negative","57","4","2","1","545","53","65"
"031519","12:58:27","115650521","test","2","prime_negative","58","1","36","1","537","53","66"
"031519","12:58:27","115650521","test","2","prime_positive","59","6","58","1","558","55","66"
"031519","12:58:27","115650521","test","2","prime_positive","60","5","17","1","416","56","66"
"031519","08:56:11","613037481","test","2","prime_negative","1","2","53","0","1354","0","0"
"031519","08:56:11","613037481","test","2","prime_positive","2","3","20","0","1090","0","0"
"031519","08:56:11","613037481","test","2","prime_negative","3","3","42","0","1253","0","0"
"031519","08:56:11","613037481","test","2","prime_negative","4","1","60","0","1207","0","0"
"031519","08:56:11","613037481","test","2","prime_negative","5","8","18","0","828","0","0"
"031519","08:56:11","613037481","test","2","prime_negative","6","12","38","0","714","0","0"
"031519","08:56:11","613037481","test","2","prime_negative","7","5","50","0","740","0","0"
"031519","08:56:11","613037481","test","2","prime_negative","8","9","33","1","2783","0","14"
"031519","08:56:11","613037481","test","2","prime_negative","9","4","47","1","1068","0","25"
"031519","08:56:11","613037481","test","2","prime_positive","10","5","57","1","679","50","25"
"031519","08:56:11","613037481","test","2","prime_positive","11","1","41","1","846","66","25"
"031519","08:56:11","613037481","test","2","prime_negative","12","10","27","1","499","66","33"
"031519","08:56:11","613037481","test","2","prime_negative","13","6","23","1","499","66","40"
"031519","08:56:11","613037481","test","2","prime_positive","14","6","56","1","912","75","40"
"031519","08:56:11","613037481","test","2","prime_positive","15","9","46","1","589","80","40"
"031519","08:56:11","613037481","test","2","prime_negative","16","11","26","1","921","80","45"
"031519","08:56:11","613037481","test","2","prime_positive","17","8","22","1","1521","83","45"
"031519","08:56:11","613037481","test","2","prime_negative","18","7","31","1","599","83","50"
"031519","08:56:11","613037481","test","2","prime_negative","19","1","9","1","501","83","53"
"031519","08:56:11","613037481","test","2","prime_positive","20","11","43","1","401","85","53"
"031519","08:56:11","613037481","test","2","prime_negative","21","3","4","1","395","85","57"
"031519","08:56:11","613037481","test","2","prime_negative","22","11","16","1","393","85","60"
"031519","08:56:11","613037481","test","2","prime_negative","23","9","5","1","403","85","62"
"031519","08:56:11","613037481","test","2","prime_positive","24","2","45","1","331","87","62"
"031519","08:56:11","613037481","test","2","prime_negative","25","6","44","1","318","87","64"
"031519","08:56:11","613037481","test","2","prime_negative","26","5","10","1","347","87","66"
"031519","08:56:11","613037481","test","2","prime_negative","27","12","51","1","334","87","68"
"031519","08:56:11","613037481","test","2","prime_negative","28","4","6","1","303","87","70"
"031519","08:56:11","613037481","test","2","prime_positive","29","10","34","1","389","88","70"
"031519","08:56:11","613037481","test","2","prime_positive","30","12","39","1","361","90","70"
"031519","08:56:11","613037481","test","2","prime_positive","31","4","24","1","340","90","70"
"031519","08:56:11","613037481","test","2","prime_negative","32","8","28","1","343","90","71"
"031519","08:56:11","613037481","test","2","prime_negative","33","10","11","1","322","90","72"
"031519","08:56:11","613037481","test","2","prime_negative","34","7","59","1","328","90","73"
"031519","08:56:11","613037481","test","2","prime_positive","35","7","37","1","342","91","73"
"031519","08:56:11","613037481","test","2","prime_positive","36","9","14","1","280","92","73"
"031519","08:56:11","613037481","test","2","prime_positive","37","5","30","1","320","92","73"
"031519","08:56:11","613037481","test","2","prime_positive","38","3","19","1","345","93","73"
"031519","08:56:11","613037481","test","2","prime_positive","39","1","58","1","287","93","73"
"031519","08:56:11","613037481","test","2","prime_positive","40","4","32","1","237","94","73"
"031519","08:56:11","613037481","test","2","prime_negative","41","2","25","1","206","94","75"
"031519","08:56:11","613037481","test","2","prime_negative","42","12","49","1","325","94","76"
"031519","08:56:11","613037481","test","2","prime_negative","43","9","52","1","275","94","76"
"031519","08:56:11","613037481","test","2","prime_positive","44","12","7","1","642","94","76"
"031519","08:56:11","613037481","test","2","prime_positive","45","7","17","1","526","94","76"
"031519","08:56:11","613037481","test","2","prime_negative","46","10","35","1","384","94","77"
"031519","08:56:11","613037481","test","2","prime_positive","47","6","1","1","567","95","77"
"031519","08:56:11","613037481","test","2","prime_positive","48","8","36","1","403","95","77"
"031519","08:56:11","613037481","test","2","prime_positive","49","10","12","1","371","95","77"
"031519","08:56:11","613037481","test","2","prime_positive","50","2","48","1","451","95","77"
"031519","08:56:11","613037481","test","2","prime_positive","51","11","54","1","364","95","77"
"031519","08:56:11","613037481","test","2","prime_negative","52","8","2","1","326","95","78"
"031519","08:56:11","613037481","test","2","prime_positive","53","6","13","1","697","96","78"
"031519","08:56:11","613037481","test","2","prime_negative","54","1","21","1","434","96","79"
"031519","08:56:11","613037481","test","2","prime_positive","55","5","3","1","455","96","79"
"031519","08:56:11","613037481","test","2","prime_positive","56","4","40","1","371","96","79"
"031519","08:56:11","613037481","test","2","prime_negative","57","7","8","1","350","96","80"
"031519","08:56:11","613037481","test","2","prime_positive","58","7","55","1","396","96","80"
"031519","08:56:11","613037481","test","2","prime_positive","59","1","15","1","372","96","80"
"031519","08:56:11","613037481","test","2","prime_positive","60","9","29","1","438","96","80"
"031519","12:57:53","602548494","test","2","prime_negative","1","12","11","0","2532","0","0"
"031519","12:57:53","602548494","test","2","prime_positive","2","4","45","0","1611","0","0"
"031519","12:57:53","602548494","test","2","prime_negative","3","2","7","0","848","0","0"
"031519","12:57:53","602548494","test","2","prime_positive","4","6","31","0","1222","0","0"
"031519","12:57:53","602548494","test","2","prime_positive","5","9","6","0","803","0","0"
"031519","12:57:53","602548494","test","2","prime_positive","6","12","58","0","496","0","0"
"031519","12:57:53","602548494","test","2","prime_negative","7","1","32","0","625","0","0"
"031519","12:57:53","602548494","test","2","prime_negative","8","9","3","0","488","0","0"
"031519","12:57:53","602548494","test","2","prime_negative","9","4","19","0","644","0","0"
"031519","12:57:53","602548494","test","2","prime_negative","10","10","46","0","468","0","0"
"031519","12:57:53","602548494","test","2","prime_negative","11","8","49","0","385","0","0"
"031519","12:57:53","602548494","test","2","prime_negative","12","11","2","0","507","0","0"
"031519","12:57:53","602548494","test","2","prime_negative","13","7","53","0","523","0","0"
"031519","12:57:53","602548494","test","2","prime_positive","14","5","26","0","377","0","0"
"031519","12:57:53","602548494","test","2","prime_negative","15","6","16","0","423","0","0"
"031519","12:57:53","602548494","test","2","prime_positive","16","11","42","0","487","0","0"
"031519","12:57:53","602548494","test","2","prime_negative","17","5","57","0","377","0","0"
"031519","12:57:53","602548494","test","2","prime_positive","18","7","36","0","475","0","0"
"031519","12:57:53","602548494","test","2","prime_positive","19","3","12","0","365","0","0"
"031519","12:57:53","602548494","test","2","prime_positive","20","10","4","0","539","0","0"
"031519","12:57:53","602548494","test","2","prime_positive","21","8","33","0","615","0","0"
"031519","12:57:53","602548494","test","2","prime_negative","22","3","41","0","544","0","0"
"031519","12:57:53","602548494","test","2","prime_positive","23","2","9","0","517","0","0"
"031519","12:57:53","602548494","test","2","prime_negative","24","1","47","0","432","0","0"
"031519","12:57:53","602548494","test","2","prime_negative","25","5","37","0","397","0","0"
"031519","12:57:53","602548494","test","2","prime_negative","26","4","25","0","484","0","0"
"031519","12:57:53","602548494","test","2","prime_negative","27","12","34","0","375","0","0"
"031519","12:57:53","602548494","test","2","prime_negative","28","7","50","0","377","0","0"
"031519","12:57:53","602548494","test","2","prime_positive","29","1","54","0","346","0","0"
"031519","12:57:53","602548494","test","2","prime_positive","30","6","60","0","332","0","0"
"031519","12:57:53","602548494","test","2","prime_negative","31","3","1","0","360","0","0"
"031519","12:57:53","602548494","test","2","prime_positive","32","5","59","0","414","0","0"
"031519","12:57:53","602548494","test","2","prime_positive","33","4","18","0","309","0","0"
"031519","12:57:53","602548494","test","2","prime_positive","34","12","38","0","259","0","0"
"031519","12:57:53","602548494","test","2","prime_negative","35","9","17","0","190","0","0"
"031519","12:57:53","602548494","test","2","prime_negative","36","10","51","0","282","0","0"
"031519","12:57:53","602548494","test","2","prime_positive","37","8","55","0","336","0","0"
"031519","12:57:53","602548494","test","2","prime_negative","38","8","8","0","326","0","0"
"031519","12:57:53","602548494","test","2","prime_negative","39","6","22","0","214","0","0"
"031519","12:57:53","602548494","test","2","prime_positive","40","3","24","0","274","0","0"
"031519","12:57:53","602548494","test","2","prime_positive","41","7","21","0","163","0","0"
"031519","12:57:53","602548494","test","2","prime_negative","42","2","13","0","548","0","0"
"031519","12:57:53","602548494","test","2","prime_negative","43","11","44","0","2541","0","0"
"031519","12:57:53","602548494","test","2","prime_negative","44","12","40","0","247","0","0"
"031519","12:57:53","602548494","test","2","prime_positive","45","1","5","0","288","0","0"
"031519","12:57:53","602548494","test","2","prime_negative","46","3","56","0","308","0","0"
"031519","12:57:53","602548494","test","2","prime_positive","47","11","48","0","294","0","0"
"031519","12:57:53","602548494","test","2","prime_positive","48","2","30","0","230","0","0"
"031519","12:57:53","602548494","test","2","prime_positive","49","10","15","0","375","0","0"
"031519","12:57:53","602548494","test","2","prime_negative","50","10","39","0","350","0","0"
"031519","12:57:53","602548494","test","2","prime_positive","51","9","14","0","208","0","0"
"031519","12:57:53","602548494","test","2","prime_positive","52","6","35","0","205","0","0"
"031519","12:57:53","602548494","test","2","prime_negative","53","11","43","0","219","0","0"
"031519","12:57:53","602548494","test","2","prime_positive","54","12","28","0","454","0","0"
"031519","12:57:53","602548494","test","2","prime_positive","55","4","52","0","195","0","0"
"031519","12:57:53","602548494","test","2","prime_negative","56","8","23","0","200","0","0"
"031519","12:57:53","602548494","test","2","prime_negative","57","2","27","0","311","0","0"
"031519","12:57:53","602548494","test","2","prime_positive","58","2","20","0","315","0","0"
"031519","12:57:53","602548494","test","2","prime_positive","59","8","29","0","736","0","0"
"031519","12:57:53","602548494","test","2","prime_positive","60","9","10","0","331","0","0"
"031519","12:55:23","190080177","test","2","prime_negative","1","3","26","0","1498","0","0"
"031519","12:55:23","190080177","test","2","prime_negative","2","4","48","0","2012","0","0"
"031519","12:55:23","190080177","test","2","prime_negative","3","6","39","0","1289","0","0"
"031519","12:55:23","190080177","test","2","prime_negative","4","8","24","0","603","0","0"
"031519","12:55:23","190080177","test","2","prime_positive","5","2","41","0","880","0","0"
"031519","12:55:23","190080177","test","2","prime_positive","6","10","15","0","1131","0","0"
"031519","12:55:23","190080177","test","2","prime_negative","7","12","52","0","795","0","0"
"031519","12:55:23","190080177","test","2","prime_negative","8","10","22","0","665","0","0"
"031519","12:55:23","190080177","test","2","prime_negative","9","5","44","0","652","0","0"
"031519","12:55:23","190080177","test","2","prime_positive","10","8","27","0","631","0","0"
"031519","12:55:23","190080177","test","2","prime_positive","11","3","29","0","628","0","0"
"031519","12:55:23","190080177","test","2","prime_positive","12","12","43","0","601","0","0"
"031519","12:55:23","190080177","test","2","prime_positive","13","7","3","0","630","0","0"
"031519","12:55:23","190080177","test","2","prime_negative","14","1","46","0","787","0","0"
"031519","12:55:23","190080177","test","2","prime_negative","15","7","45","0","600","0","0"
"031519","12:55:23","190080177","test","2","prime_negative","16","11","51","0","430","0","0"
"031519","12:55:23","190080177","test","2","prime_positive","17","6","7","0","434","0","0"
"031519","12:55:23","190080177","test","2","prime_positive","18","9","50","0","367","0","0"
"031519","12:55:23","190080177","test","2","prime_positive","19","5","40","0","477","0","0"
"031519","12:55:23","190080177","test","2","prime_positive","20","11","18","0","383","0","0"
"031519","12:55:23","190080177","test","2","prime_positive","21","1","20","0","381","0","0"
"031519","12:55:23","190080177","test","2","prime_positive","22","4","42","0","420","0","0"
"031519","12:55:23","190080177","test","2","prime_negative","23","2","58","0","592","0","0"
"031519","12:55:23","190080177","test","2","prime_negative","24","9","23","0","382","0","0"
"031519","12:55:23","190080177","test","2","prime_negative","25","5","55","0","332","0","0"
"031519","12:55:23","190080177","test","2","prime_positive","26","7","53","0","348","0","0"
"031519","12:55:23","190080177","test","2","prime_negative","27","6","35","0","404","0","0"
"031519","12:55:23","190080177","test","2","prime_negative","28","8","16","0","433","0","0"
"031519","12:55:23","190080177","test","2","prime_negative","29","7","28","0","477","0","0"
"031519","12:55:23","190080177","test","2","prime_positive","30","4","30","0","424","0","0"
"031519","12:55:23","190080177","test","2","prime_positive","31","11","13","0","501","0","0"
"031519","12:55:23","190080177","test","2","prime_negative","32","9","56","0","694","0","0"
"031519","12:55:23","190080177","test","2","prime_positive","33","1","25","0","768","0","0"
"031519","12:55:23","190080177","test","2","prime_negative","34","1","2","0","662","0","0"
"031519","12:55:23","190080177","test","2","prime_positive","35","3","36","0","1169","0","0"
"031519","12:55:23","190080177","test","2","prime_positive","36","2","38","0","752","0","0"
"031519","12:55:23","190080177","test","2","prime_positive","37","5","17","0","1215","0","0"
"031519","12:55:23","190080177","test","2","prime_positive","38","8","19","0","1108","0","0"
"031519","12:55:23","190080177","test","2","prime_negative","39","11","6","0","629","0","0"
"031519","12:55:23","190080177","test","2","prime_negative","40","3","33","0","721","0","0"
"031519","12:55:23","190080177","test","2","prime_negative","41","2","49","0","890","0","0"
"031519","12:55:23","190080177","test","2","prime_positive","42","10","14","0","940","0","0"
"031519","12:55:23","190080177","test","2","prime_negative","43","10","37","0","964","0","0"
"031519","12:55:23","190080177","test","2","prime_negative","44","12","5","0","411","0","0"
"031519","12:55:23","190080177","test","2","prime_positive","45","6","54","0","504","0","0"
"031519","12:55:23","190080177","test","2","prime_positive","46","12","12","0","562","0","0"
"031519","12:55:23","190080177","test","2","prime_positive","47","9","9","0","705","0","0"
"031519","12:55:23","190080177","test","2","prime_positive","48","4","32","0","562","0","0"
"031519","12:55:23","190080177","test","2","prime_negative","49","4","11","0","649","0","0"
"031519","12:55:23","190080177","test","2","prime_negative","50","12","31","0","589","0","0"
"031519","12:55:23","190080177","test","2","prime_positive","51","12","8","0","403","0","0"
"031519","12:55:23","190080177","test","2","prime_positive","52","2","21","0","608","0","0"
"031519","12:55:23","190080177","test","2","prime_positive","53","11","57","0","389","0","0"
"031519","12:55:23","190080177","test","2","prime_negative","54","10","59","0","483","0","0"
"031519","12:55:23","190080177","test","2","prime_positive","55","7","60","0","477","0","0"
"031519","12:55:23","190080177","test","2","prime_negative","56","2","10","0","343","0","0"
"031519","12:55:23","190080177","test","2","prime_positive","57","1","4","0","287","0","0"
"031519","12:55:23","190080177","test","2","prime_negative","58","5","34","0","257","0","0"
"031519","12:55:23","190080177","test","2","prime_negative","59","7","47","0","500","0","0"
"031519","12:55:23","190080177","test","2","prime_negative","60","1","1","0","398","0","0"
"031519","13:09:02","10805941","test","2","prime_negative","1","10","50","0","1833","0","0"
"031519","13:09:02","10805941","test","2","prime_negative","2","12","17","0","1132","0","0"
"031519","13:09:02","10805941","test","2","prime_negative","3","5","56","0","1427","0","0"
"031519","13:09:02","10805941","test","2","prime_negative","4","7","38","0","1247","0","0"
"031519","13:09:02","10805941","test","2","prime_negative","5","6","39","0","1351","0","0"
"031519","13:09:02","10805941","test","2","prime_negative","6","9","9","0","1510","0","0"
"031519","13:09:02","10805941","test","2","prime_negative","7","1","28","0","1231","0","0"
"031519","13:09:02","10805941","test","2","prime_negative","8","11","5","0","1156","0","0"
"031519","13:09:02","10805941","test","2","prime_negative","9","4","30","0","1308","0","0"
"031519","13:09:02","10805941","test","2","prime_positive","10","8","42","0","1615","0","0"
"031519","13:09:02","10805941","test","2","prime_positive","11","3","21","0","1882","0","0"
"031519","13:09:02","10805941","test","2","prime_positive","12","9","59","0","1569","0","0"
"031519","13:09:02","10805941","test","2","prime_positive","13","2","10","1","1416","25","0"
"031519","13:09:02","10805941","test","2","prime_positive","14","4","48","0","1162","20","0"
"031519","13:09:02","10805941","test","2","prime_positive","15","6","47","0","1817","16","0"
"031519","13:09:02","10805941","test","2","prime_positive","16","12","26","0","1254","14","0"
"031519","13:09:02","10805941","test","2","prime_negative","17","8","57","0","5324","14","0"
"031519","13:09:02","10805941","test","2","prime_negative","18","3","22","0","1106","14","0"
"031519","13:09:02","10805941","test","2","prime_positive","19","5","46","0","1434","12","0"
"031519","13:09:02","10805941","test","2","prime_positive","20","11","11","0","1312","11","0"
"031519","13:09:02","10805941","test","2","prime_negative","21","2","19","0","2318","11","0"
"031519","13:09:02","10805941","test","2","prime_positive","22","10","55","0","1235","10","0"
"031519","13:09:02","10805941","test","2","prime_positive","23","7","15","0","1677","9","0"
"031519","13:09:02","10805941","test","2","prime_negative","24","10","3","0","1554","9","0"
"031519","13:09:02","10805941","test","2","prime_positive","25","1","29","0","1302","8","0"
"031519","13:09:02","10805941","test","2","prime_negative","26","8","6","0","1384","8","0"
"031519","13:09:02","10805941","test","2","prime_negative","27","12","33","0","1622","8","0"
"031519","13:09:02","10805941","test","2","prime_positive","28","12","20","0","996","7","0"
"031519","13:09:02","10805941","test","2","prime_positive","29","8","2","0","1206","7","0"
"031519","13:09:02","10805941","test","2","prime_positive","30","1","60","0","1075","6","0"
"031519","13:09:02","10805941","test","2","prime_negative","31","7","41","0","1481","6","0"
"031519","13:09:02","10805941","test","2","prime_negative","32","3","43","0","1409","6","0"
"031519","13:09:02","10805941","test","2","prime_positive","33","9","25","0","1494","6","0"
"031519","13:09:02","10805941","test","2","prime_negative","34","2","37","0","1727","6","0"
"031519","13:09:02","10805941","test","2","prime_positive","35","6","35","0","1334","5","0"
"031519","13:09:02","10805941","test","2","prime_positive","36","7","13","0","1575","5","0"
"031519","13:09:02","10805941","test","2","prime_positive","37","4","8","0","1266","5","0"
"031519","13:09:02","10805941","test","2","prime_positive","38","3","4","0","1685","5","0"
"031519","13:09:02","10805941","test","2","prime_negative","39","6","12","0","871","5","0"
"031519","13:09:02","10805941","test","2","prime_positive","40","5","53","0","1389","4","0"
"031519","13:09:02","10805941","test","2","prime_positive","41","2","31","0","1244","4","0"
"031519","13:09:02","10805941","test","2","prime_positive","42","11","27","0","1619","4","0"
"031519","13:09:02","10805941","test","2","prime_positive","43","10","23","0","1142","4","0"
"031519","13:09:02","10805941","test","2","prime_positive","44","9","34","0","1274","4","0"
"031519","13:09:02","10805941","test","2","prime_negative","45","4","45","0","1533","4","0"
"031519","13:09:02","10805941","test","2","prime_positive","46","7","36","0","1099","3","0"
"031519","13:09:02","10805941","test","2","prime_negative","47","11","49","0","1276","3","0"
"031519","13:09:02","10805941","test","2","prime_positive","48","2","40","0","1183","3","0"
"031519","13:09:02","10805941","test","2","prime_positive","49","6","1","0","1102","3","0"
"031519","13:09:02","10805941","test","2","prime_negative","50","9","14","0","1587","3","0"
"031519","13:09:02","10805941","test","2","prime_negative","51","5","51","0","1336","3","0"
"031519","13:09:02","10805941","test","2","prime_negative","52","1","54","0","1622","3","0"
"031519","13:09:02","10805941","test","2","prime_negative","53","12","16","0","1306","3","0"
"031519","13:09:02","10805941","test","2","prime_positive","54","4","44","0","1658","3","0"
"031519","13:09:02","10805941","test","2","prime_negative","55","4","32","0","1521","3","0"
"031519","13:09:02","10805941","test","2","prime_negative","56","11","24","0","873","3","0"
"031519","13:09:02","10805941","test","2","prime_negative","57","8","18","0","1199","3","0"
"031519","13:09:02","10805941","test","2","prime_negative","58","10","58","0","1153","3","0"
"031519","13:09:02","10805941","test","2","prime_positive","59","5","7","0","1608","3","0"
"031519","13:09:02","10805941","test","2","prime_negative","60","2","52","0","1740","3","0"
"031519","13:02:50","68993172","test","2","prime_positive","1","4","53","0","2672","0","0"
"031519","13:02:50","68993172","test","2","prime_positive","2","2","52","0","923","0","0"
"031519","13:02:50","68993172","test","2","prime_positive","3","9","13","0","1425","0","0"
"031519","13:02:50","68993172","test","2","prime_negative","4","12","2","1","846","0","100"
"031519","13:02:50","68993172","test","2","prime_positive","5","7","19","1","879","25","100"
"031519","13:02:50","68993172","test","2","prime_positive","6","1","54","1","1448","40","100"
"031519","13:02:50","68993172","test","2","prime_positive","7","3","12","1","1090","50","100"
"031519","13:02:50","68993172","test","2","prime_negative","8","5","58","1","1784","50","100"
"031519","13:02:50","68993172","test","2","prime_positive","9","6","31","0","866","42","100"
"031519","13:02:50","68993172","test","2","prime_negative","10","6","46","1","721","42","100"
"031519","13:02:50","68993172","test","2","prime_negative","11","9","16","1","1147","42","100"
"031519","13:02:50","68993172","test","2","prime_negative","12","11","42","1","1378","42","100"
"031519","13:02:50","68993172","test","2","prime_negative","13","7","9","0","912","42","83"
"031519","13:02:50","68993172","test","2","prime_negative","14","10","29","0","685","42","71"
"031519","13:02:50","68993172","test","2","prime_negative","15","8","7","0","986","42","62"
"031519","13:02:50","68993172","test","2","prime_negative","16","3","25","0","1144","42","55"
"031519","13:02:50","68993172","test","2","prime_positive","17","8","45","0","1698","37","55"
"031519","13:02:50","68993172","test","2","prime_positive","18","10","3","1","588","44","55"
"031519","13:02:50","68993172","test","2","prime_positive","19","12","59","0","1075","40","55"
"031519","13:02:50","68993172","test","2","prime_negative","20","1","36","1","1305","40","60"
"031519","13:02:50","68993172","test","2","prime_negative","21","2","37","1","723","40","63"
"031519","13:02:50","68993172","test","2","prime_positive","22","11","15","1","595","45","63"
"031519","13:02:50","68993172","test","2","prime_negative","23","4","5","0","1476","45","58"
"031519","13:02:50","68993172","test","2","prime_positive","24","5","49","1","747","50","58"
"031519","13:02:50","68993172","test","2","prime_negative","25","1","56","0","1463","50","53"
"031519","13:02:50","68993172","test","2","prime_negative","26","9","44","1","799","50","57"
"031519","13:02:50","68993172","test","2","prime_positive","27","5","38","1","753","53","57"
"031519","13:02:50","68993172","test","2","prime_positive","28","7","57","1","571","57","57"
"031519","13:02:50","68993172","test","2","prime_positive","29","2","21","1","855","60","57"
"031519","13:02:50","68993172","test","2","prime_negative","30","3","27","1","1424","60","60"
"031519","13:02:50","68993172","test","2","prime_positive","31","12","22","0","1094","56","60"
"031519","13:02:50","68993172","test","2","prime_positive","32","6","60","1","1187","58","60"
"031519","13:02:50","68993172","test","2","prime_negative","33","12","26","0","1169","58","56"
"031519","13:02:50","68993172","test","2","prime_negative","34","5","32","1","890","58","58"
"031519","13:02:50","68993172","test","2","prime_positive","35","4","35","1","753","61","58"
"031519","13:02:50","68993172","test","2","prime_negative","36","2","17","0","611","61","55"
"031519","13:02:50","68993172","test","2","prime_negative","37","7","11","1","1003","61","57"
"031519","13:02:50","68993172","test","2","prime_negative","38","4","10","1","972","61","60"
"031519","13:02:50","68993172","test","2","prime_positive","39","11","18","0","1043","57","60"
"031519","13:02:50","68993172","test","2","prime_positive","40","9","33","1","698","60","60"
"031519","13:02:50","68993172","test","2","prime_negative","41","10","1","0","773","60","57"
"031519","13:02:50","68993172","test","2","prime_positive","42","8","30","1","816","61","57"
"031519","13:02:50","68993172","test","2","prime_positive","43","3","28","1","675","63","57"
"031519","13:02:50","68993172","test","2","prime_positive","44","10","20","1","725","65","57"
"031519","13:02:50","68993172","test","2","prime_positive","45","1","39","0","1061","62","57"
"031519","13:02:50","68993172","test","2","prime_positive","46","5","23","1","1046","64","57"
"031519","13:02:50","68993172","test","2","prime_negative","47","8","51","1","693","64","59"
"031519","13:02:50","68993172","test","2","prime_negative","48","6","24","0","675","64","56"
"031519","13:02:50","68993172","test","2","prime_negative","49","11","40","0","797","64","54"
"031519","13:02:50","68993172","test","2","prime_positive","50","10","34","1","620","65","54"
"031519","13:02:50","68993172","test","2","prime_negative","51","1","6","0","926","65","52"
"031519","13:02:50","68993172","test","2","prime_negative","52","6","50","1","804","65","53"
"031519","13:02:50","68993172","test","2","prime_positive","53","3","48","1","521","66","53"
"031519","13:02:50","68993172","test","2","prime_positive","54","7","14","0","671","64","53"
"031519","13:02:50","68993172","test","2","prime_negative","55","10","8","1","740","64","55"
"031519","13:02:50","68993172","test","2","prime_negative","56","2","41","1","608","64","57"
"031519","13:02:50","68993172","test","2","prime_negative","57","11","55","0","622","64","55"
"031519","13:02:50","68993172","test","2","prime_positive","58","2","43","1","648","65","55"
"031519","13:02:50","68993172","test","2","prime_positive","59","11","47","1","747","66","55"
"031519","13:02:50","68993172","test","2","prime_negative","60","3","4","1","777","66","56"
"031519","13:03:31","93940251","test","2","prime_positive","1","5","18","0","2109","0","0"
"031519","13:03:31","93940251","test","2","prime_negative","2","3","26","0","1890","0","0"
"031519","13:03:31","93940251","test","2","prime_negative","3","8","49","0","1865","0","0"
"031519","13:03:31","93940251","test","2","prime_negative","4","11","60","0","3272","0","0"
"031519","13:03:31","93940251","test","2","prime_positive","5","7","57","0","2156","0","0"
"031519","13:03:31","93940251","test","2","prime_positive","6","8","59","0","1624","0","0"
"031519","13:03:31","93940251","test","2","prime_negative","7","10","28","0","743","0","0"
"031519","13:03:31","93940251","test","2","prime_negative","8","12","19","0","1544","0","0"
"031519","13:03:31","93940251","test","2","prime_negative","9","1","40","0","881","0","0"
"031519","13:03:31","93940251","test","2","prime_positive","10","4","48","0","1294","0","0"
"031519","13:03:31","93940251","test","2","prime_positive","11","3","42","0","1062","0","0"
"031519","13:03:31","93940251","test","2","prime_negative","12","5","13","0","1552","0","0"
"031519","13:03:31","93940251","test","2","prime_positive","13","1","16","0","775","0","0"
"031519","13:03:31","93940251","test","2","prime_positive","14","9","39","0","1411","0","0"
"031519","13:03:31","93940251","test","2","prime_positive","15","11","52","0","779","0","0"
"031519","13:03:31","93940251","test","2","prime_positive","16","2","53","0","520","0","0"
"031519","13:03:31","93940251","test","2","prime_positive","17","10","38","0","552","0","0"
"031519","13:03:31","93940251","test","2","prime_positive","18","6","47","0","467","0","0"
"031519","13:03:31","93940251","test","2","prime_negative","19","2","33","0","659","0","0"
"031519","13:03:31","93940251","test","2","prime_positive","20","12","10","0","612","0","0"
"031519","13:03:31","93940251","test","2","prime_positive","21","3","14","0","462","0","0"
"031519","13:03:31","93940251","test","2","prime_positive","22","6","21","0","480","0","0"
"031519","13:03:31","93940251","test","2","prime_negative","23","6","23","0","501","0","0"
"031519","13:03:31","93940251","test","2","prime_negative","24","7","3","0","496","0","0"
"031519","13:03:31","93940251","test","2","prime_positive","25","1","51","0","357","0","0"
"031519","13:03:31","93940251","test","2","prime_positive","26","12","6","0","342","0","0"
"031519","13:03:31","93940251","test","2","prime_positive","27","7","8","0","342","0","0"
"031519","13:03:31","93940251","test","2","prime_negative","28","9","11","0","357","0","0"
"031519","13:03:31","93940251","test","2","prime_negative","29","4","12","0","410","0","0"
"031519","13:03:31","93940251","test","2","prime_negative","30","8","30","0","396","0","0"
"031519","13:03:31","93940251","test","2","prime_positive","31","2","24","0","747","0","0"
"031519","13:03:31","93940251","test","2","prime_negative","32","6","54","0","401","0","0"
"031519","13:03:31","93940251","test","2","prime_positive","33","10","44","0","460","0","0"
"031519","13:03:31","93940251","test","2","prime_negative","34","12","1","0","592","0","0"
"031519","13:03:31","93940251","test","2","prime_negative","35","2","58","0","333","0","0"
"031519","13:03:31","93940251","test","2","prime_negative","36","1","50","0","301","0","0"
"031519","13:03:31","93940251","test","2","prime_positive","37","5","31","0","302","0","0"
"031519","13:03:31","93940251","test","2","prime_negative","38","4","46","0","346","0","0"
"031519","13:03:31","93940251","test","2","prime_negative","39","5","7","0","277","0","0"
"031519","13:03:31","93940251","test","2","prime_negative","40","9","2","0","356","0","0"
"031519","13:03:31","93940251","test","2","prime_positive","41","8","29","0","357","0","0"
"031519","13:03:31","93940251","test","2","prime_positive","42","11","17","0","299","0","0"
"031519","13:03:31","93940251","test","2","prime_negative","43","7","45","0","344","0","0"
"031519","13:03:31","93940251","test","2","prime_negative","44","10","9","0","315","0","0"
"031519","13:03:31","93940251","test","2","prime_positive","45","4","22","0","405","0","0"
"031519","13:03:31","93940251","test","2","prime_positive","46","9","27","0","351","0","0"
"031519","13:03:31","93940251","test","2","prime_negative","47","3","35","0","364","0","0"
"031519","13:03:31","93940251","test","2","prime_positive","48","12","43","0","374","0","0"
"031519","13:03:31","93940251","test","2","prime_positive","49","5","4","0","490","0","0"
"031519","13:03:31","93940251","test","2","prime_negative","50","11","41","0","398","0","0"
"031519","13:03:31","93940251","test","2","prime_negative","51","12","36","0","386","0","0"
"031519","13:03:31","93940251","test","2","prime_negative","52","7","56","0","323","0","0"
"031519","13:03:31","93940251","test","2","prime_negative","53","9","5","0","367","0","0"
"031519","13:03:31","93940251","test","2","prime_negative","54","8","37","0","338","0","0"
"031519","13:03:31","93940251","test","2","prime_negative","55","3","55","0","352","0","0"
"031519","13:03:31","93940251","test","2","prime_positive","56","2","32","0","434","0","0"
"031519","13:03:31","93940251","test","2","prime_positive","57","9","15","0","395","0","0"
"031519","13:03:31","93940251","test","2","prime_positive","58","1","25","0","333","0","0"
"031519","13:03:31","93940251","test","2","prime_negative","59","2","34","0","455","0","0"
"031519","13:03:31","93940251","test","2","prime_positive","60","11","20","0","328","0","0"
"031519","13:02:39","171053919","test","2","prime_positive","1","7","32","0","6088","0","0"
"031519","13:02:39","171053919","test","2","prime_negative","2","5","46","0","5867","0","0"
"031519","13:02:39","171053919","test","2","prime_positive","3","2","20","0","3793","0","0"
"031519","13:02:39","171053919","test","2","prime_negative","4","9","43","0","2710","0","0"
"031519","13:02:39","171053919","test","2","prime_negative","5","1","15","0","2992","0","0"
"031519","13:02:39","171053919","test","2","prime_negative","6","3","1","0","1415","0","0"
"031519","13:02:39","171053919","test","2","prime_positive","7","6","11","0","2088","0","0"
"031519","13:02:39","171053919","test","2","prime_positive","8","4","49","0","3077","0","0"
"031519","13:02:39","171053919","test","2","prime_negative","9","4","44","0","864","0","0"
"031519","13:02:39","171053919","test","2","prime_negative","10","8","52","0","1600","0","0"
"031519","13:02:39","171053919","test","2","prime_negative","11","2","59","0","985","0","0"
"031519","13:02:39","171053919","test","2","prime_negative","12","6","31","0","885","0","0"
"031519","13:02:39","171053919","test","2","prime_negative","13","10","58","0","636","0","0"
"031519","13:02:39","171053919","test","2","prime_positive","14","12","25","0","734","0","0"
"031519","13:02:39","171053919","test","2","prime_positive","15","11","29","0","804","0","0"
"031519","13:02:39","171053919","test","2","prime_negative","16","12","60","0","622","0","0"
"031519","13:02:39","171053919","test","2","prime_negative","17","7","21","0","1521","0","0"
"031519","13:02:39","171053919","test","2","prime_positive","18","3","35","0","1484","0","0"
"031519","13:02:39","171053919","test","2","prime_negative","19","11","4","0","1267","0","0"
"031519","13:02:39","171053919","test","2","prime_positive","20","1","34","0","1067","0","0"
"031519","13:02:39","171053919","test","2","prime_positive","21","8","40","0","1786","0","0"
"031519","13:02:39","171053919","test","2","prime_negative","22","8","57","0","628","0","0"
"031519","13:02:39","171053919","test","2","prime_positive","23","9","36","0","550","0","0"
"031519","13:02:39","171053919","test","2","prime_positive","24","5","14","0","2252","0","0"
"031519","13:02:39","171053919","test","2","prime_negative","25","5","8","0","1106","0","0"
"031519","13:02:39","171053919","test","2","prime_negative","26","6","50","0","816","0","0"
"031519","13:02:39","171053919","test","2","prime_positive","27","10","3","0","570","0","0"
"031519","13:02:39","171053919","test","2","prime_positive","28","2","5","0","510","0","0"
"031519","13:02:39","171053919","test","2","prime_negative","29","10","33","0","565","0","0"
"031519","13:02:39","171053919","test","2","prime_positive","30","3","55","0","659","0","0"
"031519","13:02:39","171053919","test","2","prime_positive","31","5","42","0","563","0","0"
"031519","13:02:39","171053919","test","2","prime_positive","32","10","7","0","577","0","0"
"031519","13:02:39","171053919","test","2","prime_positive","33","11","56","0","565","0","0"
"031519","13:02:39","171053919","test","2","prime_positive","34","4","23","0","458","0","0"
"031519","13:02:39","171053919","test","2","prime_positive","35","8","38","0","483","0","0"
"031519","13:02:39","171053919","test","2","prime_positive","36","6","30","0","579","0","0"
"031519","13:02:39","171053919","test","2","prime_positive","37","7","10","0","480","0","0"
"031519","13:02:39","171053919","test","2","prime_positive","38","12","24","0","456","0","0"
"031519","13:02:39","171053919","test","2","prime_negative","39","2","51","0","1017","0","0"
"031519","13:02:39","171053919","test","2","prime_negative","40","7","45","0","731","0","0"
"031519","13:02:39","171053919","test","2","prime_negative","41","12","48","0","298","0","0"
"031519","13:02:39","171053919","test","2","prime_positive","42","9","53","0","345","0","0"
"031519","13:02:39","171053919","test","2","prime_negative","43","11","54","0","608","0","0"
"031519","13:02:39","171053919","test","2","prime_negative","44","9","2","0","507","0","0"
"031519","13:02:39","171053919","test","2","prime_positive","45","1","6","0","778","0","0"
"031519","13:02:39","171053919","test","2","prime_positive","46","12","41","0","677","0","0"
"031519","13:02:39","171053919","test","2","prime_positive","47","3","47","0","782","0","0"
"031519","13:02:39","171053919","test","2","prime_positive","48","8","9","0","897","0","0"
"031519","13:02:39","171053919","test","2","prime_positive","49","6","26","0","801","0","0"
"031519","13:02:39","171053919","test","2","prime_negative","50","4","17","0","692","0","0"
"031519","13:02:39","171053919","test","2","prime_negative","51","1","39","0","651","0","0"
"031519","13:02:39","171053919","test","2","prime_negative","52","3","16","0","540","0","0"
"031519","13:02:39","171053919","test","2","prime_positive","53","5","19","0","689","0","0"
"031519","13:02:39","171053919","test","2","prime_negative","54","5","22","0","1306","0","0"
"031519","13:02:39","171053919","test","2","prime_negative","55","8","13","0","774","0","0"
"031519","13:02:39","171053919","test","2","prime_negative","56","11","18","0","1042","0","0"
"031519","13:02:39","171053919","test","2","prime_positive","57","9","28","0","387","0","0"
"031519","13:02:39","171053919","test","2","prime_negative","58","6","12","0","879","0","0"
"031519","13:02:39","171053919","test","2","prime_negative","59","7","27","0","383","0","0"
"031519","13:02:39","171053919","test","2","prime_negative","60","1","37","0","251","0","0"
"031519","13:03:27","711959696","test","2","prime_positive","1","11","26","0","6756","0","0"
"031519","13:03:27","711959696","test","2","prime_negative","2","3","32","0","1920","0","0"
"031519","13:03:27","711959696","test","2","prime_positive","3","7","9","0","3313","0","0"
"031519","13:03:27","711959696","test","2","prime_negative","4","5","7","0","1143","0","0"
"031519","13:03:27","711959696","test","2","prime_positive","5","6","51","0","1015","0","0"
"031519","13:03:27","711959696","test","2","prime_negative","6","10","41","0","1199","0","0"
"031519","13:03:27","711959696","test","2","prime_negative","7","9","1","0","1131","0","0"
"031519","13:03:27","711959696","test","2","prime_negative","8","4","57","0","924","0","0"
"031519","13:03:27","711959696","test","2","prime_positive","9","3","10","0","2900","0","0"
"031519","13:03:27","711959696","test","2","prime_positive","10","1","11","1","848","20","0"
"031519","13:03:27","711959696","test","2","prime_negative","11","2","20","1","1415","20","16"
"031519","13:03:27","711959696","test","2","prime_positive","12","12","5","0","876","16","16"
"031519","13:03:27","711959696","test","2","prime_negative","13","7","33","0","729","16","14"
"031519","13:03:27","711959696","test","2","prime_positive","14","4","8","1","1259","28","14"
"031519","13:03:27","711959696","test","2","prime_negative","15","6","12","0","676","28","12"
"031519","13:03:27","711959696","test","2","prime_positive","16","2","29","1","673","37","12"
"031519","13:03:27","711959696","test","2","prime_negative","17","11","59","1","1413","37","22"
"031519","13:03:27","711959696","test","2","prime_positive","18","5","23","1","478","44","22"
"031519","13:03:27","711959696","test","2","prime_positive","19","10","36","1","462","50","22"
"031519","13:03:27","711959696","test","2","prime_negative","20","12","39","0","387","50","20"
"031519","13:03:27","711959696","test","2","prime_positive","21","8","49","1","417","54","20"
"031519","13:03:27","711959696","test","2","prime_negative","22","1","4","0","379","54","18"
"031519","13:03:27","711959696","test","2","prime_negative","23","8","19","0","508","54","16"
"031519","13:03:27","711959696","test","2","prime_positive","24","9","2","1","507","58","16"
"031519","13:03:27","711959696","test","2","prime_negative","25","6","30","0","461","58","15"
"031519","13:03:27","711959696","test","2","prime_positive","26","12","21","0","1450","53","15"
"031519","13:03:27","711959696","test","2","prime_positive","27","10","22","1","392","57","15"
"031519","13:03:27","711959696","test","2","prime_negative","28","11","18","1","794","57","21"
"031519","13:03:27","711959696","test","2","prime_positive","29","5","40","1","667","60","21"
"031519","13:03:27","711959696","test","2","prime_positive","30","3","54","1","493","62","21"
"031519","13:03:27","711959696","test","2","prime_negative","31","1","38","1","2834","62","26"
"031519","13:03:27","711959696","test","2","prime_positive","32","8","35","1","1915","64","26"
"031519","13:03:27","711959696","test","2","prime_positive","33","2","6","1","474","66","26"
"031519","13:03:27","711959696","test","2","prime_negative","34","8","47","0","1765","66","25"
"031519","13:03:27","711959696","test","2","prime_positive","35","11","42","1","3789","68","25"
"031519","13:03:27","711959696","test","2","prime_positive","36","6","50","1","1452","70","25"
"031519","13:03:27","711959696","test","2","prime_positive","37","7","15","1","350","71","25"
"031519","13:03:27","711959696","test","2","prime_positive","38","4","52","1","317","72","25"
"031519","13:03:27","711959696","test","2","prime_negative","39","7","44","0","448","72","23"
"031519","13:03:27","711959696","test","2","prime_positive","40","1","3","1","1569","73","23"
"031519","13:03:27","711959696","test","2","prime_negative","41","4","55","0","886","73","22"
"031519","13:03:27","711959696","test","2","prime_positive","42","9","25","1","336","75","22"
"031519","13:03:27","711959696","test","2","prime_positive","43","8","60","0","3663","72","22"
"031519","13:03:27","711959696","test","2","prime_positive","44","11","24","1","1033","73","22"
"031519","13:03:27","711959696","test","2","prime_negative","45","12","34","1","1121","73","26"
"031519","13:03:27","711959696","test","2","prime_negative","46","9","43","1","894","73","30"
"031519","13:03:27","711959696","test","2","prime_negative","47","3","14","1","684","73","33"
"031519","13:03:27","711959696","test","2","prime_negative","48","10","13","1","898","73","36"
"031519","13:03:27","711959696","test","2","prime_positive","49","1","31","1","679","74","36"
"031519","13:03:27","711959696","test","2","prime_negative","50","2","45","0","515","74","34"
"031519","13:03:27","711959696","test","2","prime_negative","51","5","58","1","1434","74","37"
"031519","13:03:27","711959696","test","2","prime_negative","52","1","28","1","786","74","40"
"031519","13:03:27","711959696","test","2","prime_negative","53","9","53","1","587","74","42"
"031519","13:03:27","711959696","test","2","prime_positive","54","10","16","1","624","75","42"
"031519","13:03:27","711959696","test","2","prime_negative","55","2","17","1","536","75","44"
"031519","13:03:27","711959696","test","2","prime_negative","56","7","48","0","1613","75","42"
"031519","13:03:27","711959696","test","2","prime_negative","57","6","27","0","1028","75","41"
"031519","13:03:27","711959696","test","2","prime_positive","58","9","46","1","997","75","41"
"031519","13:03:27","711959696","test","2","prime_negative","59","10","37","1","671","75","43"
"031519","13:03:27","711959696","test","2","prime_positive","60","2","56","0","454","73","43"
"031519","13:04:47","977944306","test","2","prime_negative","1","1","10","0","3646","0","0"
"031519","13:04:47","977944306","test","2","prime_positive","2","2","23","1","1627","100","0"
"031519","13:04:47","977944306","test","2","prime_negative","3","4","20","0","660","100","0"
"031519","13:04:47","977944306","test","2","prime_positive","4","7","42","1","490","100","0"
"031519","13:04:47","977944306","test","2","prime_negative","5","12","44","1","800","100","33"
"031519","13:04:47","977944306","test","2","prime_negative","6","5","15","1","620","100","50"
"031519","13:04:47","977944306","test","2","prime_positive","7","12","28","0","1051","66","50"
"031519","13:04:47","977944306","test","2","prime_negative","8","11","35","1","1060","66","60"
"031519","13:04:47","977944306","test","2","prime_negative","9","6","55","0","610","66","50"
"031519","13:04:47","977944306","test","2","prime_positive","10","9","32","1","543","75","50"
"031519","13:04:47","977944306","test","2","prime_positive","11","10","9","1","880","80","50"
"031519","13:04:47","977944306","test","2","prime_positive","12","5","37","1","1754","83","50"
"031519","13:04:47","977944306","test","2","prime_negative","13","9","48","0","754","83","42"
"031519","13:04:47","977944306","test","2","prime_positive","14","1","40","1","433","85","42"
"031519","13:04:47","977944306","test","2","prime_positive","15","4","8","1","1049","87","42"
"031519","13:04:47","977944306","test","2","prime_positive","16","11","51","1","395","88","42"
"031519","13:04:47","977944306","test","2","prime_positive","17","8","27","1","391","90","42"
"031519","13:04:47","977944306","test","2","prime_positive","18","6","1","1","344","90","42"
"031519","13:04:47","977944306","test","2","prime_negative","19","8","19","0","455","90","37"
"031519","13:04:47","977944306","test","2","prime_negative","20","3","17","0","419","90","33"
"031519","13:04:47","977944306","test","2","prime_negative","21","10","49","0","2365","90","30"
"031519","13:04:47","977944306","test","2","prime_negative","22","2","46","0","1362","90","27"
"031519","13:04:47","977944306","test","2","prime_negative","23","7","43","0","513","90","25"
"031519","13:04:47","977944306","test","2","prime_positive","24","3","25","1","449","91","25"
"031519","13:04:47","977944306","test","2","prime_negative","25","1","18","0","414","91","23"
"031519","13:04:47","977944306","test","2","prime_positive","26","8","2","1","406","92","23"
"031519","13:04:47","977944306","test","2","prime_negative","27","7","53","0","494","92","21"
"031519","13:04:47","977944306","test","2","prime_negative","28","11","33","1","517","92","26"
"031519","13:04:47","977944306","test","2","prime_negative","29","3","5","0","388","92","25"
"031519","13:04:47","977944306","test","2","prime_positive","30","12","54","0","1203","85","25"
"031519","13:04:47","977944306","test","2","prime_positive","31","9","24","1","496","86","25"
"031519","13:04:47","977944306","test","2","prime_negative","32","6","30","0","458","86","23"
"031519","13:04:47","977944306","test","2","prime_positive","33","5","52","1","516","87","23"
"031519","13:04:47","977944306","test","2","prime_positive","34","11","56","1","535","88","23"
"031519","13:04:47","977944306","test","2","prime_negative","35","5","47","0","502","88","22"
"031519","13:04:47","977944306","test","2","prime_negative","36","12","22","0","1000","88","21"
"031519","13:04:47","977944306","test","2","prime_negative","37","2","59","0","443","88","20"
"031519","13:04:47","977944306","test","2","prime_positive","38","3","57","1","354","88","20"
"031519","13:04:47","977944306","test","2","prime_positive","39","7","16","1","377","89","20"
"031519","13:04:47","977944306","test","2","prime_negative","40","10","6","0","573","89","19"
"031519","13:04:47","977944306","test","2","prime_negative","41","4","12","0","383","89","18"
"031519","13:04:47","977944306","test","2","prime_positive","42","1","4","1","323","90","18"
"031519","13:04:47","977944306","test","2","prime_negative","43","9","29","1","930","90","21"
"031519","13:04:47","977944306","test","2","prime_positive","44","6","38","1","424","90","21"
"031519","13:04:47","977944306","test","2","prime_positive","45","2","14","1","385","90","21"
"031519","13:04:47","977944306","test","2","prime_positive","46","4","26","1","889","91","21"
"031519","13:04:47","977944306","test","2","prime_positive","47","10","21","1","607","91","21"
"031519","13:04:47","977944306","test","2","prime_negative","48","8","11","0","335","91","20"
"031519","13:04:47","977944306","test","2","prime_positive","49","12","45","0","763","88","20"
"031519","13:04:47","977944306","test","2","prime_negative","50","9","13","0","1077","88","20"
"031519","13:04:47","977944306","test","2","prime_negative","51","1","60","0","591","88","19"
"031519","13:04:47","977944306","test","2","prime_negative","52","8","36","0","353","88","18"
"031519","13:04:47","977944306","test","2","prime_negative","53","2","7","0","388","88","17"
"031519","13:04:47","977944306","test","2","prime_negative","54","6","3","0","385","88","17"
"031519","13:04:47","977944306","test","2","prime_positive","55","10","58","1","1003","88","17"
"031519","13:04:47","977944306","test","2","prime_positive","56","7","34","1","325","88","17"
"031519","13:04:47","977944306","test","2","prime_positive","57","11","39","1","339","89","17"
"031519","13:04:47","977944306","test","2","prime_positive","58","1","31","1","376","89","17"
"031519","13:04:47","977944306","test","2","prime_positive","59","3","41","1","382","90","17"
"031519","13:04:47","977944306","test","2","prime_negative","60","12","50","0","1021","90","16"
"031519","06:05:08","850846837","test","2","prime_positive","1","4","46","0","3157","0","0"
"031519","06:05:08","850846837","test","2","prime_negative","2","10","44","0","1625","0","0"
"031519","06:05:08","850846837","test","2","prime_positive","3","11","56","1","1749","50","0"
"031519","06:05:08","850846837","test","2","prime_positive","4","8","8","1","296","66","0"
"031519","06:05:08","850846837","test","2","prime_positive","5","2","22","1","282","75","0"
"031519","06:05:08","850846837","test","2","prime_positive","6","9","45","1","379","80","0"
"031519","06:05:08","850846837","test","2","prime_negative","7","4","36","1","411","80","50"
"031519","06:05:08","850846837","test","2","prime_positive","8","6","1","1","452","83","50"
"031519","06:05:08","850846837","test","2","prime_positive","9","12","21","1","1434","85","50"
"031519","06:05:08","850846837","test","2","prime_negative","10","3","41","0","483","85","33"
"031519","06:05:08","850846837","test","2","prime_positive","11","10","43","1","652","87","33"
"031519","06:05:08","850846837","test","2","prime_negative","12","7","31","0","403","87","25"
"031519","06:05:08","850846837","test","2","prime_positive","13","1","20","1","498","88","25"
"031519","06:05:08","850846837","test","2","prime_negative","14","2","16","0","251","88","20"
"031519","06:05:08","850846837","test","2","prime_positive","15","7","13","1","230","90","20"
"031519","06:05:08","850846837","test","2","prime_negative","16","9","58","0","862","90","16"
"031519","06:05:08","850846837","test","2","prime_positive","17","3","18","1","503","90","16"
"031519","06:05:08","850846837","test","2","prime_negative","18","6","60","0","457","90","14"
"031519","06:05:08","850846837","test","2","prime_negative","19","1","39","0","316","90","12"
"031519","06:05:08","850846837","test","2","prime_positive","20","5","10","1","476","91","12"
"031519","06:05:08","850846837","test","2","prime_negative","21","5","7","0","244","91","11"
"031519","06:05:08","850846837","test","2","prime_positive","22","8","47","1","314","92","11"
"031519","06:05:08","850846837","test","2","prime_positive","23","3","52","1","271","92","11"
"031519","06:05:08","850846837","test","2","prime_positive","24","4","33","1","287","93","11"
"031519","06:05:08","850846837","test","2","prime_negative","25","12","9","0","214","93","10"
"031519","06:05:08","850846837","test","2","prime_negative","26","11","48","0","372","93","9"
"031519","06:05:08","850846837","test","2","prime_negative","27","8","6","0","416","93","8"
"031519","06:05:08","850846837","test","2","prime_positive","28","7","5","1","188","93","8"
"031519","06:05:08","850846837","test","2","prime_negative","29","4","55","1","392","93","15"
"031519","06:05:08","850846837","test","2","prime_positive","30","10","37","1","304","94","15"
"031519","06:05:08","850846837","test","2","prime_negative","31","12","23","0","233","94","14"
"031519","06:05:08","850846837","test","2","prime_positive","32","5","34","1","171","94","14"
"031519","06:05:08","850846837","test","2","prime_positive","33","2","40","1","283","94","14"
"031519","06:05:08","850846837","test","2","prime_negative","34","8","28","0","272","94","13"
"031519","06:05:08","850846837","test","2","prime_negative","35","5","26","1","163","94","18"
"031519","06:05:08","850846837","test","2","prime_negative","36","9","54","0","589","94","17"
"031519","06:05:08","850846837","test","2","prime_negative","37","11","57","0","1680","94","16"
"031519","06:05:08","850846837","test","2","prime_positive","38","6","12","1","1160","95","16"
"031519","06:05:08","850846837","test","2","prime_positive","39","9","24","1","1325","95","16"
"031519","06:05:08","850846837","test","2","prime_negative","40","10","4","0","274","95","15"
"031519","06:05:08","850846837","test","2","prime_negative","41","2","35","0","364","95","15"
"031519","06:05:08","850846837","test","2","prime_positive","42","1","15","1","200","95","15"
"031519","06:05:08","850846837","test","2","prime_positive","43","11","17","1","328","95","15"
"031519","06:05:08","850846837","test","2","prime_negative","44","1","27","0","163","95","14"
"031519","06:05:08","850846837","test","2","prime_negative","45","6","59","0","449","95","13"
"031519","06:05:08","850846837","test","2","prime_positive","46","12","19","1","480","95","13"
"031519","06:05:08","850846837","test","2","prime_positive","47","3","49","1","405","96","13"
"031519","06:05:08","850846837","test","2","prime_negative","48","7","25","0","213","96","13"
"031519","06:05:08","850846837","test","2","prime_positive","49","1","29","1","448","96","13"
"031519","06:05:08","850846837","test","2","prime_negative","50","3","3","0","196","96","12"
"031519","06:05:08","850846837","test","2","prime_negative","51","9","11","1","540","96","16"
"031519","06:05:08","850846837","test","2","prime_negative","52","6","30","0","319","96","15"
"031519","06:05:08","850846837","test","2","prime_positive","53","6","32","1","634","96","15"
"031519","06:05:08","850846837","test","2","prime_negative","54","5","53","0","289","96","14"
"031519","06:05:08","850846837","test","2","prime_positive","55","11","51","1","204","96","14"
"031519","06:05:08","850846837","test","2","prime_positive","56","7","42","1","250","96","14"
"031519","06:05:08","850846837","test","2","prime_negative","57","1","38","0","365","96","14"
"031519","06:05:08","850846837","test","2","prime_positive","58","4","50","1","585","96","14"
"031519","06:05:08","850846837","test","2","prime_negative","59","8","14","0","849","96","13"
"031519","06:05:08","850846837","test","2","prime_negative","60","4","2","0","380","96","13"
"031519","13:05:16","734893857","test","2","prime_positive","1","11","24","0","2861","0","0"
"031519","13:05:16","734893857","test","2","prime_negative","2","3","30","0","2160","0","0"
"031519","13:05:16","734893857","test","2","prime_negative","3","7","8","0","819","0","0"
"031519","13:05:16","734893857","test","2","prime_positive","4","7","13","1","684","50","0"
"031519","13:05:16","734893857","test","2","prime_positive","5","3","5","1","476","66","0"
"031519","13:05:16","734893857","test","2","prime_negative","6","2","55","0","708","66","0"
"031519","13:05:16","734893857","test","2","prime_negative","7","5","44","0","1139","66","0"
"031519","13:05:16","734893857","test","2","prime_positive","8","4","23","0","847","50","0"
"031519","13:05:16","734893857","test","2","prime_negative","9","8","9","0","968","50","0"
"031519","13:05:16","734893857","test","2","prime_positive","10","6","18","1","492","60","0"
"031519","13:05:16","734893857","test","2","prime_negative","11","11","2","0","899","60","0"
"031519","13:05:16","734893857","test","2","prime_negative","12","9","3","0","490","60","0"
"031519","13:05:16","734893857","test","2","prime_positive","13","1","7","1","417","66","0"
"031519","13:05:16","734893857","test","2","prime_negative","14","10","14","0","620","66","0"
"031519","13:05:16","734893857","test","2","prime_negative","15","1","28","0","542","66","0"
"031519","13:05:16","734893857","test","2","prime_positive","16","2","4","1","355","71","0"
"031519","13:05:16","734893857","test","2","prime_positive","17","10","60","1","416","75","0"
"031519","13:05:16","734893857","test","2","prime_negative","18","12","6","0","652","75","0"
"031519","13:05:16","734893857","test","2","prime_positive","19","9","32","1","557","77","0"
"031519","13:05:16","734893857","test","2","prime_positive","20","5","21","1","449","80","0"
"031519","13:05:16","734893857","test","2","prime_negative","21","6","33","1","827","80","9"
"031519","13:05:16","734893857","test","2","prime_positive","22","8","39","1","1412","81","9"
"031519","13:05:16","734893857","test","2","prime_positive","23","12","15","1","566","83","9"
"031519","13:05:16","734893857","test","2","prime_negative","24","4","17","0","490","83","8"
"031519","13:05:16","734893857","test","2","prime_positive","25","5","47","1","2529","84","8"
"031519","13:05:16","734893857","test","2","prime_positive","26","8","37","1","436","85","8"
"031519","13:05:16","734893857","test","2","prime_positive","27","2","58","1","381","86","8"
"031519","13:05:16","734893857","test","2","prime_positive","28","7","35","1","330","87","8"
"031519","13:05:16","734893857","test","2","prime_positive","29","4","25","0","1160","82","8"
"031519","13:05:16","734893857","test","2","prime_negative","30","8","11","0","452","82","7"
"031519","13:05:16","734893857","test","2","prime_negative","31","11","16","0","380","82","7"
"031519","13:05:16","734893857","test","2","prime_positive","32","10","50","1","361","83","7"
"031519","13:05:16","734893857","test","2","prime_positive","33","9","54","1","310","84","7"
"031519","13:05:16","734893857","test","2","prime_positive","34","1","34","1","165","85","7"
"031519","13:05:16","734893857","test","2","prime_negative","35","7","41","0","426","85","6"
"031519","13:05:16","734893857","test","2","prime_positive","36","6","49","1","517","85","6"
"031519","13:05:16","734893857","test","2","prime_negative","37","12","29","0","316","85","6"
"031519","13:05:16","734893857","test","2","prime_positive","38","3","40","1","315","86","6"
"031519","13:05:16","734893857","test","2","prime_negative","39","9","27","0","922","86","5"
"031519","13:05:16","734893857","test","2","prime_positive","40","11","10","0","511","82","5"
"031519","13:05:16","734893857","test","2","prime_positive","41","12","1","1","374","83","5"
"031519","13:05:16","734893857","test","2","prime_negative","42","2","12","0","434","83","5"
"031519","13:05:16","734893857","test","2","prime_negative","43","10","59","0","364","83","5"
"031519","13:05:16","734893857","test","2","prime_positive","44","10","31","1","297","84","5"
"031519","13:05:16","734893857","test","2","prime_negative","45","4","36","0","329","84","5"
"031519","13:05:16","734893857","test","2","prime_negative","46","5","56","0","567","84","4"
"031519","13:05:16","734893857","test","2","prime_negative","47","6","20","0","492","84","4"
"031519","13:05:16","734893857","test","2","prime_positive","48","2","38","1","243","84","4"
"031519","13:05:16","734893857","test","2","prime_positive","49","9","42","1","355","85","4"
"031519","13:05:16","734893857","test","2","prime_negative","50","3","57","0","802","85","4"
"031519","13:05:16","734893857","test","2","prime_negative","51","1","45","0","284","85","4"
"031519","13:05:16","734893857","test","2","prime_negative","52","2","52","0","716","85","4"
"031519","13:05:16","734893857","test","2","prime_negative","53","6","26","0","267","85","3"
"031519","13:05:16","734893857","test","2","prime_positive","54","11","19","1","780","85","3"
"031519","13:05:16","734893857","test","2","prime_negative","55","7","48","1","791","85","7"
"031519","13:05:16","734893857","test","2","prime_negative","56","1","51","0","274","85","7"
"031519","13:05:16","734893857","test","2","prime_positive","57","7","46","1","307","86","7"
"031519","13:05:16","734893857","test","2","prime_positive","58","5","43","1","370","86","7"
"031519","13:05:16","734893857","test","2","prime_negative","59","11","53","0","958","86","6"
"031519","13:05:16","734893857","test","2","prime_negative","60","10","22","0","306","86","6"
"031519","07:13:03","187304078","test","2","prime_negative","1","4","16","1","3916","0","100"
"031519","07:13:03","187304078","test","2","prime_negative","2","3","24","1","1375","0","100"
"031519","07:13:03","187304078","test","2","prime_negative","3","9","41","0","910","0","66"
"031519","07:13:03","187304078","test","2","prime_negative","4","5","60","0","542","0","50"
"031519","07:13:03","187304078","test","2","prime_negative","5","6","31","0","840","0","40"
"031519","07:13:03","187304078","test","2","prime_negative","6","1","7","1","683","0","50"
"031519","07:13:03","187304078","test","2","prime_positive","7","5","29","0","1016","0","50"
"031519","07:13:03","187304078","test","2","prime_positive","8","7","18","0","765","0","50"
"031519","07:13:03","187304078","test","2","prime_negative","9","2","11","1","822","0","57"
"031519","07:13:03","187304078","test","2","prime_negative","10","11","14","0","632","0","50"
"031519","07:13:03","187304078","test","2","prime_negative","11","12","10","0","647","0","44"
"031519","07:13:03","187304078","test","2","prime_positive","12","8","39","1","785","33","44"
"031519","07:13:03","187304078","test","2","prime_negative","13","8","1","1","1007","33","50"
"031519","07:13:03","187304078","test","2","prime_negative","14","10","8","0","764","33","45"
"031519","07:13:03","187304078","test","2","prime_positive","15","6","9","0","595","25","45"
"031519","07:13:03","187304078","test","2","prime_positive","16","10","32","0","718","20","45"
"031519","07:13:03","187304078","test","2","prime_negative","17","7","3","0","889","20","41"
"031519","07:13:03","187304078","test","2","prime_negative","18","9","52","0","577","20","38"
"031519","07:13:03","187304078","test","2","prime_positive","19","2","51","0","946","16","38"
"031519","07:13:03","187304078","test","2","prime_negative","20","1","26","1","750","16","42"
"031519","07:13:03","187304078","test","2","prime_positive","21","1","42","1","636","28","42"
"031519","07:13:03","187304078","test","2","prime_negative","22","2","50","1","839","28","46"
"031519","07:13:03","187304078","test","2","prime_positive","23","12","19","1","677","37","46"
"031519","07:13:03","187304078","test","2","prime_negative","24","12","27","1","1096","37","50"
"031519","07:13:03","187304078","test","2","prime_negative","25","7","57","0","969","37","47"
"031519","07:13:03","187304078","test","2","prime_positive","26","9","43","1","754","44","47"
"031519","07:13:03","187304078","test","2","prime_negative","27","5","49","0","985","44","44"
"031519","07:13:03","187304078","test","2","prime_positive","28","3","59","0","603","40","44"
"031519","07:13:03","187304078","test","2","prime_positive","29","11","46","0","640","36","44"
"031519","07:13:03","187304078","test","2","prime_positive","30","4","21","0","614","33","44"
"031519","07:13:03","187304078","test","2","prime_positive","31","6","6","1","515","38","44"
"031519","07:13:03","187304078","test","2","prime_positive","32","12","45","1","666","42","44"
"031519","07:13:03","187304078","test","2","prime_positive","33","4","25","1","631","46","44"
"031519","07:13:03","187304078","test","2","prime_negative","34","11","56","0","457","46","42"
"031519","07:13:03","187304078","test","2","prime_positive","35","9","44","1","463","50","42"
"031519","07:13:03","187304078","test","2","prime_positive","36","8","5","1","624","52","42"
"031519","07:13:03","187304078","test","2","prime_positive","37","11","23","1","425","55","42"
"031519","07:13:03","187304078","test","2","prime_negative","38","3","48","1","675","55","45"
"031519","07:13:03","187304078","test","2","prime_positive","39","2","17","1","485","57","45"
"031519","07:13:03","187304078","test","2","prime_positive","40","1","34","1","743","60","45"
"031519","07:13:03","187304078","test","2","prime_negative","41","8","20","1","651","60","47"
"031519","07:13:03","187304078","test","2","prime_negative","42","10","12","1","633","60","50"
"031519","07:13:03","187304078","test","2","prime_negative","43","4","40","1","516","60","52"
"031519","07:13:03","187304078","test","2","prime_positive","44","5","33","0","446","57","52"
"031519","07:13:03","187304078","test","2","prime_negative","45","6","15","1","540","57","54"
