"date","time","subject","blockcode","blocknum","trialcode","trialnum","values.primestim","values.targetstim","correct","latency","trial.prime_obama.totalpercentcorrect","trial.prime_trump.totalpercentcorrect"
"082818","12:39:12","58961423","practice","1","prime_trump_practice","5","0","0","1","2720","0","0"
"082818","12:39:12","58961423","practice","1","intention_check_practice","6","0","0","0","2500","0","0"
"082818","12:39:12","58961423","practice","1","prime_obama_practice","7","0","0","0","676","0","0"
"082818","12:39:12","58961423","practice","1","intention_check_practice","8","0","0","1","1701","0","0"
"082818","12:39:12","58961423","practice","1","prime_trump_practice","9","0","0","1","1220","0","0"
"082818","12:39:12","58961423","practice","1","intention_check_practice","10","0","0","1","751","0","0"
"082818","12:39:12","58961423","practice","1","prime_trump_practice","11","0","0","1","1708","0","0"
"082818","12:39:12","58961423","practice","1","intention_check_practice","12","0","0","1","1030","0","0"
"082818","12:39:12","58961423","practice","1","prime_obama_practice","13","0","0","0","538","0","0"
"082818","12:39:12","58961423","practice","1","intention_check_practice","14","0","0","1","1962","0","0"
"082818","12:39:12","58961423","practice","1","prime_obama_practice","15","0","0","0","526","0","0"
"082818","12:39:12","58961423","practice","1","intention_check_practice","16","0","0","1","846","0","0"
"082818","12:39:12","58961423","practice","1","prime_trump_practice","17","0","0","1","351","0","0"
"082818","12:39:12","58961423","practice","1","intention_check_practice","18","0","0","1","717","0","0"
"082818","12:39:12","58961423","practice","1","prime_obama_practice","19","0","0","0","345","0","0"
"082818","12:39:12","58961423","practice","1","intention_check_practice","20","0","0","1","358","0","0"
"082818","12:39:12","58961423","practice","1","prime_obama_practice","21","0","0","0","270","0","0"
"082818","12:39:12","58961423","practice","1","intention_check_practice","22","0","0","1","284","0","0"
"082818","12:39:12","58961423","practice","1","prime_trump_practice","23","0","0","1","1524","0","0"
"082818","12:39:12","58961423","practice","1","intention_check_practice","24","0","0","1","851","0","0"
"082818","12:39:12","58961423","test","2","prime_trump","2","5","26","1","1070","0","100"
"082818","12:39:12","58961423","test","2","intention_check","3","5","26","1","798","0","100"
"082818","12:39:12","58961423","test","2","prime_obama","4","3","60","0","485","0","100"
"082818","12:39:12","58961423","test","2","intention_check","5","3","60","1","506","0","100"
"082818","12:39:12","58961423","test","2","prime_trump","6","5","22","1","359","0","100"
"082818","12:39:12","58961423","test","2","intention_check","7","5","22","1","464","0","100"
"082818","12:39:12","58961423","test","2","prime_trump","8","2","8","1","384","0","100"
"082818","12:39:12","58961423","test","2","intention_check","9","2","8","1","326","0","100"
"082818","12:39:12","58961423","test","2","prime_obama","10","5","32","0","352","0","100"
"082818","12:39:12","58961423","test","2","intention_check","11","5","32","1","569","0","100"
"082818","12:39:12","58961423","test","2","prime_trump","12","1","9","1","532","0","100"
"082818","12:39:12","58961423","test","2","intention_check","13","1","9","1","401","0","100"
"082818","12:39:12","58961423","test","2","prime_obama","14","3","7","0","533","0","100"
"082818","12:39:12","58961423","test","2","intention_check","15","3","7","1","505","0","100"
"082818","12:39:12","58961423","test","2","prime_trump","16","6","34","1","765","0","100"
"082818","12:39:12","58961423","test","2","intention_check","17","6","34","1","459","0","100"
"082818","12:39:12","58961423","test","2","prime_trump","18","3","99","1","403","0","100"
"082818","12:39:12","58961423","test","2","intention_check","19","3","99","1","333","0","100"
"082818","12:39:12","58961423","test","2","prime_obama","20","1","52","0","2097","0","100"
"082818","12:39:12","58961423","test","2","intention_check","21","1","52","1","652","0","100"
"082818","12:39:12","58961423","test","2","prime_trump","22","4","100","1","368","0","100"
"082818","12:39:12","58961423","test","2","intention_check","23","4","100","1","370","0","100"
"082818","12:39:12","58961423","test","2","prime_obama","24","2","38","0","264","0","100"
"082818","12:39:12","58961423","test","2","intention_check","25","2","38","1","333","0","100"
"082818","12:39:12","58961423","test","2","prime_trump","26","4","92","1","842","0","100"
"082818","12:39:12","58961423","test","2","intention_check","27","4","92","1","331","0","100"
"082818","12:39:12","58961423","test","2","prime_obama","28","6","10","0","472","0","100"
"082818","12:39:12","58961423","test","2","intention_check","29","6","10","1","433","0","100"
"082818","12:39:12","58961423","test","2","prime_trump","30","2","31","1","418","0","100"
"082818","12:39:12","58961423","test","2","intention_check","31","2","31","1","331","0","100"
"082818","12:39:12","58961423","test","2","prime_obama","32","4","84","0","368","0","100"
"082818","12:39:12","58961423","test","2","intention_check","33","4","84","1","306","0","100"
"082818","12:39:12","58961423","test","2","prime_trump","34","6","95","1","292","0","100"
"082818","12:39:12","58961423","test","2","intention_check","35","6","95","1","546","0","100"
"082818","12:39:12","58961423","test","2","prime_obama","36","3","42","0","356","0","100"
"082818","12:39:12","58961423","test","2","intention_check","37","3","42","1","306","0","100"
"082818","12:39:12","58961423","test","2","prime_trump","38","5","49","1","321","0","100"
"082818","12:39:12","58961423","test","2","intention_check","39","5","49","1","342","0","100"
"082818","12:39:12","58961423","test","2","prime_trump","40","1","72","1","1217","0","100"
"082818","12:39:12","58961423","test","2","intention_check","41","1","72","1","620","0","100"
"082818","12:39:12","58961423","test","2","prime_obama","42","4","54","0","1084","0","100"
"082818","12:39:12","58961423","test","2","intention_check","43","4","54","1","1156","0","100"
"082818","12:39:12","58961423","test","2","prime_obama","44","6","71","0","979","0","100"
"082818","12:39:12","58961423","test","2","intention_check","45","6","71","1","298","0","100"
"082818","12:39:12","58961423","test","2","prime_trump","46","3","68","1","2269","0","100"
"082818","12:39:12","58961423","test","2","intention_check","47","3","68","1","355","0","100"
"082818","12:39:12","58961423","test","2","prime_trump","48","6","63","1","516","0","100"
"082818","12:39:12","58961423","test","2","intention_check","49","6","63","1","414","0","100"
"082818","12:39:12","58961423","test","2","prime_trump","50","2","59","1","239","0","100"
"082818","12:39:12","58961423","test","2","intention_check","51","2","59","1","286","0","100"
"082818","12:39:12","58961423","test","2","prime_trump","52","4","67","1","251","0","100"
"082818","12:39:12","58961423","test","2","intention_check","53","4","67","1","349","0","100"
"082818","12:39:12","58961423","test","2","prime_obama","54","5","29","0","241","0","100"
"082818","12:39:12","58961423","test","2","intention_check","55","5","29","1","351","0","100"
"082818","12:39:12","58961423","test","2","prime_trump","56","3","82","1","444","0","100"
"082818","12:39:12","58961423","test","2","intention_check","57","3","82","1","327","0","100"
"082818","12:39:12","58961423","test","2","prime_trump","58","5","74","1","215","0","100"
"082818","12:39:12","58961423","test","2","intention_check","59","5","74","1","361","0","100"
"082818","12:39:12","58961423","test","2","prime_obama","60","2","89","0","1724","0","100"
"082818","12:39:12","58961423","test","2","intention_check","61","2","89","1","488","0","100"
"082818","12:39:12","58961423","test","2","prime_trump","62","1","73","1","253","0","100"
"082818","12:39:12","58961423","test","2","intention_check","63","1","73","1","391","0","100"
"082818","12:39:12","58961423","test","2","prime_obama","64","1","2","0","909","0","100"
"082818","12:39:12","58961423","test","2","intention_check","65","1","2","1","247","0","100"
"082818","12:39:12","58961423","test","2","prime_obama","66","5","1","0","300","0","100"
"082818","12:39:12","58961423","test","2","intention_check","67","5","1","1","521","0","100"
"082818","12:39:12","58961423","test","2","prime_obama","68","4","35","0","194","0","100"
"082818","12:39:12","58961423","test","2","intention_check","69","4","35","1","552","0","100"
"082818","12:39:12","58961423","test","2","prime_trump","70","6","23","1","881","0","100"
"082818","12:39:12","58961423","test","2","intention_check","71","6","23","1","302","0","100"
"082818","12:39:12","58961423","test","2","prime_trump","72","1","37","1","1060","0","100"
"082818","12:39:12","58961423","test","2","intention_check","73","1","37","1","359","0","100"
"082818","12:39:12","58961423","test","2","prime_trump","74","2","28","1","1064","0","100"
"082818","12:39:12","58961423","test","2","intention_check","75","2","28","1","174","0","100"
"082818","12:39:12","58961423","test","2","prime_obama","76","1","43","0","1349","0","100"
"082818","12:39:12","58961423","test","2","intention_check","77","1","43","1","460","0","100"
"082818","12:39:12","58961423","test","2","prime_obama","78","6","17","1","739","5","100"
"082818","12:39:12","58961423","test","2","intention_check","79","6","17","1","306","5","100"
"082818","12:39:12","58961423","test","2","prime_trump","80","4","30","1","228","5","100"
"082818","12:39:12","58961423","test","2","intention_check","81","4","30","1","1085","5","100"
"082818","12:39:12","58961423","test","2","prime_obama","82","2","24","0","262","5","100"
"082818","12:39:12","58961423","test","2","intention_check","83","2","24","1","373","5","100"
"082818","12:39:12","58961423","test","2","prime_obama","84","3","45","0","270","5","100"
"082818","12:39:12","58961423","test","2","intention_check","85","3","45","1","284","5","100"
"082818","12:39:12","58961423","test","2","prime_trump","86","5","4","1","249","5","100"
"082818","12:39:12","58961423","test","2","intention_check","87","5","4","1","375","5","100"
"082818","12:39:12","58961423","test","2","prime_obama","88","6","62","0","266","5","100"
"082818","12:39:12","58961423","test","2","intention_check","89","6","62","1","295","5","100"
"082818","12:39:12","58961423","test","2","prime_obama","90","2","11","0","604","4","100"
"082818","12:39:12","58961423","test","2","intention_check","91","2","11","1","311","4","100"
"082818","12:39:12","58961423","test","2","prime_obama","92","4","18","0","228","4","100"
"082818","12:39:12","58961423","test","2","intention_check","93","4","18","1","293","4","100"
"082818","12:39:12","58961423","test","2","prime_obama","94","3","77","0","1382","4","100"
"082818","12:39:12","58961423","test","2","intention_check","95","3","77","1","218","4","100"
"082818","12:39:12","58961423","test","2","prime_obama","96","5","58","0","278","4","100"
"082818","12:39:12","58961423","test","2","intention_check","97","5","58","1","1474","4","100"
"082818","12:39:12","58961423","test","2","prime_trump","98","3","51","1","117","4","100"
"082818","12:39:12","58961423","test","2","intention_check","99","3","51","1","318","4","100"
"082818","12:39:12","58961423","test","2","prime_trump","100","1","70","1","230","4","100"
"082818","12:39:12","58961423","test","2","intention_check","101","1","70","1","294","4","100"
"082818","12:39:12","58961423","test","2","prime_trump","102","3","6","1","233","4","100"
"082818","12:39:12","58961423","test","2","intention_check","103","3","6","1","308","4","100"
"082818","12:39:12","58961423","test","2","prime_obama","104","1","48","0","310","4","100"
"082818","12:39:12","58961423","test","2","intention_check","105","1","48","1","313","4","100"
"082818","12:39:12","58961423","test","2","prime_obama","106","5","50","0","617","3","100"
"082818","12:39:12","58961423","test","2","intention_check","107","5","50","1","459","3","100"
"082818","12:39:12","58961423","test","2","prime_obama","108","4","55","0","234","3","100"
"082818","12:39:12","58961423","test","2","intention_check","109","4","55","1","292","3","100"
"082818","12:39:12","58961423","test","2","prime_obama","110","6","78","0","265","3","100"
"082818","12:39:12","58961423","test","2","intention_check","111","6","78","1","385","3","100"
"082818","12:39:12","58961423","test","2","prime_trump","112","5","61","1","297","3","100"
"082818","12:39:12","58961423","test","2","intention_check","113","5","61","1","311","3","100"
"082818","12:39:12","58961423","test","2","prime_obama","114","3","83","0","298","3","100"
"082818","12:39:12","58961423","test","2","intention_check","115","3","83","1","371","3","100"
"082818","12:39:12","58961423","test","2","prime_trump","116","4","21","1","314","3","100"
"082818","12:39:12","58961423","test","2","intention_check","117","4","21","1","307","3","100"
"082818","12:39:12","58961423","test","2","prime_trump","118","2","85","1","531","3","100"
"082818","12:39:12","58961423","test","2","intention_check","119","2","85","1","297","3","100"
"082818","12:39:12","58961423","test","2","prime_obama","120","1","94","0","382","3","100"
"082818","12:39:12","58961423","test","2","intention_check","121","1","94","1","338","3","100"
"082818","12:39:12","58961423","test","2","prime_obama","122","2","5","0","285","3","100"
"082818","12:39:12","58961423","test","2","intention_check","123","2","5","1","345","3","100"
"082818","12:39:12","58961423","test","2","prime_obama","124","4","12","0","372","3","100"
"082818","12:39:12","58961423","test","2","intention_check","125","4","12","1","390","3","100"
"082818","12:39:12","58961423","test","2","prime_trump","126","6","33","1","369","3","100"
"082818","12:39:12","58961423","test","2","intention_check","127","6","33","1","335","3","100"
"082818","12:39:12","58961423","test","2","prime_trump","128","5","27","1","381","3","100"
"082818","12:39:12","58961423","test","2","intention_check","129","5","27","1","324","3","100"
"082818","12:39:12","58961423","test","2","prime_obama","130","1","14","0","496","3","100"
"082818","12:39:12","58961423","test","2","intention_check","131","1","14","1","468","3","100"
"082818","12:39:12","58961423","test","2","prime_trump","132","6","93","1","253","3","100"
"082818","12:39:12","58961423","test","2","intention_check","133","6","93","1","292","3","100"
"082818","12:39:12","58961423","test","2","prime_trump","134","1","66","1","814","3","100"
"082818","12:39:12","58961423","test","2","intention_check","135","1","66","1","279","3","100"
"082818","12:39:12","58961423","test","2","prime_trump","136","4","96","1","125","3","100"
"082818","12:39:12","58961423","test","2","intention_check","137","4","96","1","309","3","100"
"082818","12:39:12","58961423","test","2","prime_trump","138","2","56","1","88","3","100"
"082818","12:39:12","58961423","test","2","intention_check","139","2","56","1","292","3","100"
"082818","12:39:12","58961423","test","2","prime_obama","140","5","65","0","224","2","100"
"082818","12:39:12","58961423","test","2","intention_check","141","5","65","1","319","2","100"
"082818","12:39:12","58961423","test","2","prime_obama","142","2","41","0","305","2","100"
"082818","12:39:12","58961423","test","2","intention_check","143","2","41","1","591","2","100"
"082818","12:39:12","58961423","test","2","prime_obama","144","3","75","0","252","2","100"
"082818","12:39:12","58961423","test","2","intention_check","145","3","75","1","497","2","100"
"082818","12:39:12","58961423","test","2","prime_obama","146","6","88","0","234","2","100"
"082818","12:39:12","58961423","test","2","intention_check","147","6","88","1","453","2","100"
"082818","12:39:12","58961423","test","2","prime_trump","148","3","69","1","239","2","100"
"082818","12:39:12","58961423","test","2","intention_check","149","3","69","1","313","2","100"
"082818","12:39:12","58961423","test","2","prime_obama","150","6","20","0","177","2","100"
"082818","12:39:12","58961423","test","2","intention_check","151","6","20","1","247","2","100"
"082818","12:39:12","58961423","test","2","prime_obama","152","3","13","0","290","2","100"
"082818","12:39:12","58961423","test","2","intention_check","153","3","13","1","487","2","100"
"082818","12:39:12","58961423","test","2","prime_trump","154","5","87","1","244","2","100"
"082818","12:39:12","58961423","test","2","intention_check","155","5","87","1","325","2","100"
"082818","12:39:12","58961423","test","2","prime_trump","156","4","80","1","893","2","100"
"082818","12:39:12","58961423","test","2","intention_check","157","4","80","1","293","2","100"
"082818","12:39:12","58961423","test","2","prime_trump","158","3","79","1","252","2","100"
"082818","12:39:12","58961423","test","2","intention_check","159","3","79","1","339","2","100"
"082818","12:39:12","58961423","test","2","prime_trump","160","6","39","1","108","2","100"
"082818","12:39:12","58961423","test","2","intention_check","161","6","39","1","281","2","100"
"082818","12:39:12","58961423","test","2","prime_obama","162","4","86","0","202","2","100"
"082818","12:39:12","58961423","test","2","intention_check","163","4","86","1","287","2","100"
"082818","12:39:12","58961423","test","2","prime_obama","164","5","15","0","198","2","100"
"082818","12:39:12","58961423","test","2","intention_check","165","5","15","1","357","2","100"
"082818","12:39:12","58961423","test","2","prime_trump","166","2","97","1","181","2","100"
"082818","12:39:12","58961423","test","2","intention_check","167","2","97","1","330","2","100"
"082818","12:39:12","58961423","test","2","prime_obama","168","2","3","0","238","2","100"
"082818","12:39:12","58961423","test","2","intention_check","169","2","3","1","297","2","100"
"082818","12:39:12","58961423","test","2","prime_trump","170","1","57","1","122","2","100"
"082818","12:39:12","58961423","test","2","intention_check","171","1","57","1","308","2","100"
"082818","12:39:12","58961423","test","2","prime_obama","172","1","46","0","270","2","100"
"082818","12:39:12","58961423","test","2","intention_check","173","1","46","1","300","2","100"
"082818","12:39:12","58961423","test","2","prime_obama","174","2","90","0","281","2","100"
"082818","12:39:12","58961423","test","2","intention_check","175","2","90","1","291","2","100"
"082818","12:39:12","58961423","test","2","prime_trump","176","3","19","1","327","2","100"
"082818","12:39:12","58961423","test","2","intention_check","177","3","19","1","315","2","100"
"082818","12:39:12","58961423","test","2","prime_obama","178","5","40","0","135","2","100"
"082818","12:39:12","58961423","test","2","intention_check","179","5","40","1","325","2","100"
"082818","12:39:12","58961423","test","2","prime_trump","180","2","36","1","219","2","100"
"082818","12:39:12","58961423","test","2","intention_check","181","2","36","1","287","2","100"
"082818","12:39:12","58961423","test","2","prime_trump","182","1","29","1","299","2","100"
"082818","12:39:12","58961423","test","2","intention_check","183","1","29","1","369","2","100"
"082818","12:39:12","58961423","test","2","prime_trump","184","6","32","1","70","2","100"
"082818","12:39:12","58961423","test","2","intention_check","185","6","32","1","299","2","100"
"082818","12:39:12","58961423","test","2","prime_trump","186","5","70","1","66","2","100"
"082818","12:39:12","58961423","test","2","intention_check","187","5","70","1","302","2","100"
"082818","12:39:12","58961423","test","2","prime_obama","188","1","19","0","283","2","100"
"082818","12:39:12","58961423","test","2","intention_check","189","1","19","1","335","2","100"
"082818","12:39:12","58961423","test","2","prime_trump","190","4","89","1","189","2","100"
"082818","12:39:12","58961423","test","2","intention_check","191","4","89","1","276","2","100"
"082818","12:39:12","58961423","test","2","prime_obama","192","6","14","0","196","2","100"
"082818","12:39:12","58961423","test","2","intention_check","193","6","14","1","264","2","100"
"082818","12:39:12","58961423","test","2","prime_obama","194","4","42","0","258","2","100"
"082818","12:39:12","58961423","test","2","intention_check","195","4","42","1","301","2","100"
"082818","12:39:12","58961423","test","2","prime_trump","196","6","86","1","231","2","100"
"082818","12:39:12","58961423","test","2","intention_check","197","6","86","1","289","2","100"
"082818","12:39:12","58961423","test","2","prime_obama","198","3","24","1","367","4","100"
"082818","12:39:12","58961423","test","2","intention_check","199","3","24","1","419","4","100"
"082818","12:39:12","58961423","test","2","prime_trump","200","1","34","1","164","4","100"
"082818","12:39:12","58961423","test","2","intention_check","201","1","34","1","330","4","100"
"082818","12:39:12","58961423","test","2","prime_trump","202","2","73","1","206","4","100"
"082818","12:39:12","58961423","test","2","intention_check","203","2","73","1","301","4","100"
"082818","12:39:12","58961423","test","2","prime_obama","204","5","99","0","250","4","100"
"082818","12:39:12","58961423","test","2","intention_check","205","5","99","1","322","4","100"
"082818","12:39:12","58961423","test","2","prime_trump","206","4","33","1","368","4","100"
"082818","12:39:12","58961423","test","2","intention_check","207","4","33","1","333","4","100"
"082818","12:39:12","58961423","test","2","prime_trump","208","3","48","1","105","4","100"
"082818","12:39:12","58961423","test","2","intention_check","209","3","48","1","311","4","100"
"082818","12:39:12","58961423","test","2","prime_obama","210","1","7","0","215","3","100"
"082818","12:39:12","58961423","test","2","intention_check","211","1","7","1","312","3","100"
"082818","12:39:12","58961423","test","2","prime_obama","212","2","10","0","232","3","100"
"082818","12:39:12","58961423","test","2","intention_check","213","2","10","1","319","3","100"
"082818","12:39:12","58961423","test","2","prime_obama","214","4","63","0","214","3","100"
"082818","12:39:12","58961423","test","2","intention_check","215","4","63","1","350","3","100"
"082818","12:39:12","58961423","test","2","prime_trump","216","5","20","1","116","3","100"
"082818","12:39:12","58961423","test","2","intention_check","217","5","20","1","316","3","100"
"082818","12:39:12","58961423","test","2","prime_obama","218","6","4","0","302","3","100"
"082818","12:39:12","58961423","test","2","intention_check","219","6","4","1","345","3","100"
"082818","12:39:12","58961423","test","2","prime_trump","220","5","43","1","129","3","100"
"082818","12:39:12","58961423","test","2","intention_check","221","5","43","1","568","3","100"
"082818","12:39:12","58961423","test","2","prime_obama","222","3","62","1","443","5","100"
"082818","12:39:12","58961423","test","2","intention_check","223","3","62","1","318","5","100"
"082818","12:39:12","58961423","test","2","prime_obama","224","3","91","0","331","5","100"
"082818","12:39:12","58961423","test","2","intention_check","225","3","91","1","310","5","100"
"082818","12:39:12","58961423","test","2","prime_obama","226","5","77","0","242","5","100"
"082818","12:39:12","58961423","test","2","intention_check","227","5","77","1","314","5","100"
"082818","12:39:12","58961423","test","2","prime_trump","228","2","41","1","281","5","100"
"082818","12:39:12","58961423","test","2","intention_check","229","2","41","1","400","5","100"
"082818","12:39:12","58961423","test","2","prime_obama","230","2","44","0","271","5","100"
"082818","12:39:12","58961423","test","2","intention_check","231","2","44","1","358","5","100"
"082818","12:39:12","58961423","test","2","prime_obama","232","4","27","0","223","5","100"
"082818","12:39:12","58961423","test","2","intention_check","233","4","27","1","333","5","100"
"082818","12:39:12","58961423","test","2","prime_trump","234","4","47","1","252","5","100"
"082818","12:39:12","58961423","test","2","intention_check","235","4","47","1","301","5","100"
"082818","12:39:12","58961423","test","2","prime_trump","236","6","2","1","228","5","100"
"082818","12:39:12","58961423","test","2","intention_check","237","6","2","1","299","5","100"
"082818","12:39:12","58961423","test","2","prime_obama","238","6","3","0","237","5","100"
"082818","12:39:12","58961423","test","2","intention_check","239","6","3","1","344","5","100"
"082818","12:39:12","58961423","test","2","prime_trump","240","1","40","1","110","5","100"
"082818","12:39:12","58961423","test","2","intention_check","241","1","40","1","317","5","100"
"082818","09:41:29","803829398","practice","1","prime_trump_practice","5","0","0","1","4466","0","0"
"082818","09:41:29","803829398","practice","1","intention_check_practice","6","0","0","0","2500","0","0"
"082818","09:41:29","803829398","practice","1","prime_obama_practice","7","0","0","1","1124","0","0"
"082818","09:41:29","803829398","practice","1","intention_check_practice","8","0","0","1","724","0","0"
"082818","09:41:29","803829398","practice","1","prime_obama_practice","9","0","0","1","397","0","0"
"082818","09:41:29","803829398","practice","1","intention_check_practice","10","0","0","1","1079","0","0"
"082818","09:41:29","803829398","practice","1","prime_trump_practice","11","0","0","1","369","0","0"
"082818","09:41:29","803829398","practice","1","intention_check_practice","12","0","0","1","1195","0","0"
"082818","09:41:29","803829398","practice","1","prime_obama_practice","13","0","0","0","719","0","0"
"082818","09:41:29","803829398","practice","1","intention_check_practice","14","0","0","1","1638","0","0"
"082818","09:41:29","803829398","practice","1","prime_obama_practice","15","0","0","1","354","0","0"
"082818","09:41:29","803829398","practice","1","intention_check_practice","16","0","0","1","970","0","0"
"082818","09:41:29","803829398","practice","1","prime_trump_practice","17","0","0","1","285","0","0"
"082818","09:41:29","803829398","practice","1","intention_check_practice","18","0","0","1","269","0","0"
"082818","09:41:29","803829398","practice","1","prime_trump_practice","19","0","0","1","386","0","0"
"082818","09:41:29","803829398","practice","1","intention_check_practice","20","0","0","1","39","0","0"
"082818","09:41:29","803829398","practice","1","prime_trump_practice","21","0","0","1","1229","0","0"
"082818","09:41:29","803829398","practice","1","intention_check_practice","22","0","0","1","588","0","0"
"082818","09:41:29","803829398","practice","1","prime_obama_practice","23","0","0","1","1315","0","0"
"082818","09:41:29","803829398","practice","1","intention_check_practice","24","0","0","1","797","0","0"
"082818","09:41:29","803829398","test","2","prime_trump","2","1","30","1","919","0","100"
"082818","09:41:29","803829398","test","2","intention_check","3","1","30","1","954","0","100"
"082818","09:41:29","803829398","test","2","prime_trump","4","4","28","1","572","0","100"
"082818","09:41:29","803829398","test","2","intention_check","5","4","28","1","652","0","100"
"082818","09:41:29","803829398","test","2","prime_trump","6","3","94","1","540","0","100"
"082818","09:41:29","803829398","test","2","intention_check","7","3","94","1","818","0","100"
"082818","09:41:29","803829398","test","2","prime_obama","8","3","14","1","584","100","100"
"082818","09:41:29","803829398","test","2","intention_check","9","3","14","1","551","100","100"
"082818","09:41:29","803829398","test","2","prime_obama","10","6","21","1","576","100","100"
"082818","09:41:29","803829398","test","2","intention_check","11","6","21","1","234","100","100"
"082818","09:41:29","803829398","test","2","prime_obama","12","2","41","1","251","100","100"
"082818","09:41:29","803829398","test","2","intention_check","13","2","41","1","275","100","100"
"082818","09:41:29","803829398","test","2","prime_obama","14","4","25","1","303","100","100"
"082818","09:41:29","803829398","test","2","intention_check","15","4","25","1","267","100","100"
"082818","09:41:29","803829398","test","2","prime_trump","16","5","15","1","195","100","100"
"082818","09:41:29","803829398","test","2","intention_check","17","5","15","1","251","100","100"
"082818","09:41:29","803829398","test","2","prime_trump","18","1","35","0","934","100","80"
"082818","09:41:29","803829398","test","2","intention_check","19","1","35","1","890","100","80"
"082818","09:41:29","803829398","test","2","prime_trump","20","6","29","1","283","100","83"
"082818","09:41:29","803829398","test","2","intention_check","21","6","29","1","320","100","83"
"082818","09:41:29","803829398","test","2","prime_trump","22","2","87","1","246","100","85"
"082818","09:41:29","803829398","test","2","intention_check","23","2","87","1","300","100","85"
"082818","09:41:29","803829398","test","2","prime_trump","24","6","100","1","186","100","87"
"082818","09:41:29","803829398","test","2","intention_check","25","6","100","1","223","100","87"
"082818","09:41:29","803829398","test","2","prime_trump","26","1","2","1","272","100","88"
"082818","09:41:29","803829398","test","2","intention_check","27","1","2","1","191","100","88"
"082818","09:41:29","803829398","test","2","prime_trump","28","4","9","1","288","100","90"
"082818","09:41:29","803829398","test","2","intention_check","29","4","9","1","250","100","90"
"082818","09:41:29","803829398","test","2","prime_trump","30","2","64","1","58","100","90"
"082818","09:41:29","803829398","test","2","intention_check","31","2","64","1","179","100","90"
"082818","09:41:29","803829398","test","2","prime_trump","32","3","49","1","187","100","91"
"082818","09:41:29","803829398","test","2","intention_check","33","3","49","1","675","100","91"
"082818","09:41:29","803829398","test","2","prime_trump","34","5","69","1","604","100","92"
"082818","09:41:29","803829398","test","2","intention_check","35","5","69","1","570","100","92"
"082818","09:41:29","803829398","test","2","prime_trump","36","4","1","1","996","100","92"
"082818","09:41:29","803829398","test","2","intention_check","37","4","1","1","710","100","92"
"082818","09:41:29","803829398","test","2","prime_obama","38","1","6","1","211","100","92"
"082818","09:41:29","803829398","test","2","intention_check","39","1","6","1","238","100","92"
"082818","09:41:29","803829398","test","2","prime_trump","40","3","32","1","84","100","93"
"082818","09:41:29","803829398","test","2","intention_check","41","3","32","1","208","100","93"
"082818","09:41:29","803829398","test","2","prime_trump","42","1","96","1","166","100","93"
"082818","09:41:29","803829398","test","2","intention_check","43","1","96","1","194","100","93"
"082818","09:41:29","803829398","test","2","prime_trump","44","5","89","1","159","100","94"
"082818","09:41:29","803829398","test","2","intention_check","45","5","89","1","200","100","94"
"082818","09:41:29","803829398","test","2","prime_obama","46","3","45","1","166","100","94"
"082818","09:41:29","803829398","test","2","intention_check","47","3","45","1","284","100","94"
"082818","09:41:29","803829398","test","2","prime_obama","48","5","75","1","151","100","94"
"082818","09:41:29","803829398","test","2","intention_check","49","5","75","1","165","100","94"
"082818","09:41:29","803829398","test","2","prime_trump","50","2","58","1","215","100","94"
"082818","09:41:29","803829398","test","2","intention_check","51","2","58","1","264","100","94"
"082818","09:41:29","803829398","test","2","prime_trump","52","6","43","1","232","100","94"
"082818","09:41:29","803829398","test","2","intention_check","53","6","43","1","597","100","94"
"082818","09:41:29","803829398","test","2","prime_trump","54","3","91","1","203","100","95"
"082818","09:41:29","803829398","test","2","intention_check","55","3","91","1","157","100","95"
"082818","09:41:29","803829398","test","2","prime_trump","56","4","83","1","224","100","95"
"082818","09:41:29","803829398","test","2","intention_check","57","4","83","1","214","100","95"
"082818","09:41:29","803829398","test","2","prime_obama","58","5","61","0","790","87","95"
"082818","09:41:29","803829398","test","2","intention_check","59","5","61","1","452","87","95"
"082818","09:41:29","803829398","test","2","prime_trump","60","2","67","1","300","87","95"
"082818","09:41:29","803829398","test","2","intention_check","61","2","67","1","202","87","95"
"082818","09:41:29","803829398","test","2","prime_obama","62","2","26","0","258","77","95"
"082818","09:41:29","803829398","test","2","intention_check","63","2","26","1","431","77","95"
"082818","09:41:29","803829398","test","2","prime_obama","64","4","80","0","441","70","95"
"082818","09:41:29","803829398","test","2","intention_check","65","4","80","1","315","70","95"
"082818","09:41:29","803829398","test","2","prime_obama","66","3","93","0","303","63","95"
"082818","09:41:29","803829398","test","2","intention_check","67","3","93","1","378","63","95"
"082818","09:41:29","803829398","test","2","prime_obama","68","1","31","0","427","58","95"
"082818","09:41:29","803829398","test","2","intention_check","69","1","31","1","286","58","95"
"082818","09:41:29","803829398","test","2","prime_obama","70","6","73","0","534","53","95"
"082818","09:41:29","803829398","test","2","intention_check","71","6","73","1","319","53","95"
"082818","09:41:29","803829398","test","2","prime_obama","72","4","7","0","466","50","95"
"082818","09:41:29","803829398","test","2","intention_check","73","4","7","1","234","50","95"
"082818","09:41:29","803829398","test","2","prime_trump","74","1","66","1","493","50","95"
"082818","09:41:29","803829398","test","2","intention_check","75","1","66","1","214","50","95"
"082818","09:41:29","803829398","test","2","prime_trump","76","6","10","1","855","50","95"
"082818","09:41:29","803829398","test","2","intention_check","77","6","10","1","197","50","95"
"082818","09:41:29","803829398","test","2","prime_obama","78","2","77","0","506","46","95"
"082818","09:41:29","803829398","test","2","intention_check","79","2","77","1","254","46","95"
"082818","09:41:29","803829398","test","2","prime_trump","80","5","16","1","349","46","96"
"082818","09:41:29","803829398","test","2","intention_check","81","5","16","1","154","46","96"
"082818","09:41:29","803829398","test","2","prime_trump","82","2","34","1","139","46","96"
"082818","09:41:29","803829398","test","2","intention_check","83","2","34","1","125","46","96"
"082818","09:41:29","803829398","test","2","prime_trump","84","4","81","1","314","46","96"
"082818","09:41:29","803829398","test","2","intention_check","85","4","81","1","110","46","96"
"082818","09:41:29","803829398","test","2","prime_trump","86","3","72","1","201","46","96"
"082818","09:41:29","803829398","test","2","intention_check","87","3","72","1","93","46","96"
"082818","09:41:29","803829398","test","2","prime_trump","88","1","4","1","260","46","96"
"082818","09:41:29","803829398","test","2","intention_check","89","1","4","1","736","46","96"
"082818","09:41:29","803829398","test","2","prime_obama","90","6","74","0","199","43","96"
"082818","09:41:29","803829398","test","2","intention_check","91","6","74","1","193","43","96"
"082818","09:41:29","803829398","test","2","prime_obama","92","3","3","1","907","47","96"
"082818","09:41:29","803829398","test","2","intention_check","93","3","3","1","556","47","96"
"082818","09:41:29","803829398","test","2","prime_trump","94","5","90","1","300","47","96"
"082818","09:41:29","803829398","test","2","intention_check","95","5","90","1","155","47","96"
"082818","09:41:29","803829398","test","2","prime_obama","96","1","22","0","219","44","96"
"082818","09:41:29","803829398","test","2","intention_check","97","1","22","1","191","44","96"
"082818","09:41:29","803829398","test","2","prime_obama","98","5","76","0","320","42","96"
"082818","09:41:29","803829398","test","2","intention_check","99","5","76","1","168","42","96"
"082818","09:41:29","803829398","test","2","prime_trump","100","6","51","1","350","42","96"
"082818","09:41:29","803829398","test","2","intention_check","101","6","51","1","153","42","96"
"082818","09:41:29","803829398","test","2","prime_trump","102","1","53","1","280","42","96"
"082818","09:41:29","803829398","test","2","intention_check","103","1","53","1","115","42","96"
"082818","09:41:29","803829398","test","2","prime_trump","104","3","11","1","406","42","96"
"082818","09:41:29","803829398","test","2","intention_check","105","3","11","1","153","42","96"
"082818","09:41:29","803829398","test","2","prime_trump","106","5","68","1","284","42","97"
"082818","09:41:29","803829398","test","2","intention_check","107","5","68","1","137","42","97"
"082818","09:41:29","803829398","test","2","prime_obama","108","2","36","0","895","40","97"
"082818","09:41:29","803829398","test","2","intention_check","109","2","36","1","244","40","97"
"082818","09:41:29","803829398","test","2","prime_trump","110","2","23","1","323","40","97"
"082818","09:41:29","803829398","test","2","intention_check","111","2","23","1","144","40","97"
"082818","09:41:29","803829398","test","2","prime_trump","112","6","95","1","300","40","97"
"082818","09:41:29","803829398","test","2","intention_check","113","6","95","1","136","40","97"
"082818","09:41:29","803829398","test","2","prime_obama","114","1","27","0","345","38","97"
"082818","09:41:29","803829398","test","2","intention_check","115","1","27","1","207","38","97"
"082818","09:41:29","803829398","test","2","prime_trump","116","4","57","1","873","38","97"
"082818","09:41:29","803829398","test","2","intention_check","117","4","57","1","261","38","97"
"082818","09:41:29","803829398","test","2","prime_trump","118","6","40","1","399","38","97"
"082818","09:41:29","803829398","test","2","intention_check","119","6","40","1","170","38","97"
"082818","09:41:29","803829398","test","2","prime_obama","120","6","13","0","316","36","97"
"082818","09:41:29","803829398","test","2","intention_check","121","6","13","1","147","36","97"
"082818","09:41:29","803829398","test","2","prime_trump","122","1","56","1","296","36","97"
"082818","09:41:29","803829398","test","2","intention_check","123","1","56","1","190","36","97"
"082818","09:41:29","803829398","test","2","prime_trump","124","5","46","1","460","36","97"
"082818","09:41:29","803829398","test","2","intention_check","125","5","46","1","129","36","97"
"082818","09:41:29","803829398","test","2","prime_obama","126","4","38","0","290","34","97"
"082818","09:41:29","803829398","test","2","intention_check","127","4","38","1","142","34","97"
"082818","09:41:29","803829398","test","2","prime_trump","128","3","5","1","274","34","97"
"082818","09:41:29","803829398","test","2","intention_check","129","3","5","1","141","34","97"
"082818","09:41:29","803829398","test","2","prime_obama","130","5","62","0","765","33","97"
"082818","09:41:29","803829398","test","2","intention_check","131","5","62","1","172","33","97"
"082818","09:41:29","803829398","test","2","prime_trump","132","2","97","0","1926","33","95"
"082818","09:41:29","803829398","test","2","intention_check","133","2","97","1","946","33","95"
"082818","09:41:29","803829398","test","2","prime_obama","134","3","88","0","426","32","95"
"082818","09:41:29","803829398","test","2","intention_check","135","3","88","1","302","32","95"
"082818","09:41:29","803829398","test","2","prime_obama","136","1","18","0","194","30","95"
"082818","09:41:29","803829398","test","2","intention_check","137","1","18","1","253","30","95"
"082818","09:41:29","803829398","test","2","prime_obama","138","3","33","0","230","29","95"
"082818","09:41:29","803829398","test","2","intention_check","139","3","33","1","161","29","95"
"082818","09:41:29","803829398","test","2","prime_obama","140","6","52","0","169","28","95"
"082818","09:41:29","803829398","test","2","intention_check","141","6","52","1","178","28","95"
"082818","09:41:29","803829398","test","2","prime_obama","142","5","86","0","159","27","95"
"082818","09:41:29","803829398","test","2","intention_check","143","5","86","1","166","27","95"
"082818","09:41:29","803829398","test","2","prime_obama","144","4","92","0","153","26","95"
"082818","09:41:29","803829398","test","2","intention_check","145","4","92","1","167","26","95"
"082818","09:41:29","803829398","test","2","prime_trump","146","4","63","1","446","26","95"
"082818","09:41:29","803829398","test","2","intention_check","147","4","63","1","199","26","95"
"082818","09:41:29","803829398","test","2","prime_obama","148","2","8","0","907","25","95"
"082818","09:41:29","803829398","test","2","intention_check","149","2","8","1","242","25","95"
"082818","09:41:29","803829398","test","2","prime_trump","150","3","84","1","241","25","95"
"082818","09:41:29","803829398","test","2","intention_check","151","3","84","1","225","25","95"
"082818","09:41:29","803829398","test","2","prime_obama","152","2","71","0","447","25","95"
"082818","09:41:29","803829398","test","2","intention_check","153","2","71","1","158","25","95"
"082818","09:41:29","803829398","test","2","prime_trump","154","1","48","1","430","25","95"
"082818","09:41:29","803829398","test","2","intention_check","155","1","48","1","124","25","95"
"082818","09:41:29","803829398","test","2","prime_trump","156","6","82","1","381","25","95"
"082818","09:41:29","803829398","test","2","intention_check","157","6","82","1","144","25","95"
"082818","09:41:29","803829398","test","2","prime_obama","158","3","79","0","324","24","95"
"082818","09:41:29","803829398","test","2","intention_check","159","3","79","1","263","24","95"
"082818","09:41:29","803829398","test","2","prime_obama","160","4","24","0","290","23","95"
"082818","09:41:29","803829398","test","2","intention_check","161","4","24","1","267","23","95"
"082818","09:41:29","803829398","test","2","prime_obama","162","5","19","0","334","22","95"
"082818","09:41:29","803829398","test","2","intention_check","163","5","19","1","135","22","95"
"082818","09:41:29","803829398","test","2","prime_obama","164","6","44","0","1546","22","95"
"082818","09:41:29","803829398","test","2","intention_check","165","6","44","1","325","22","95"
"082818","09:41:29","803829398","test","2","prime_obama","166","1","55","0","263","21","95"
"082818","09:41:29","803829398","test","2","intention_check","167","1","55","1","149","21","95"
"082818","09:41:29","803829398","test","2","prime_obama","168","2","50","0","613","21","95"
"082818","09:41:29","803829398","test","2","intention_check","169","2","50","1","179","21","95"
"082818","09:41:29","803829398","test","2","prime_trump","170","5","98","1","603","21","95"
"082818","09:41:29","803829398","test","2","intention_check","171","5","98","1","650","21","95"
"082818","09:41:29","803829398","test","2","prime_trump","172","2","54","1","334","21","95"
"082818","09:41:29","803829398","test","2","intention_check","173","2","54","1","148","21","95"
"082818","09:41:29","803829398","test","2","prime_obama","174","3","60","0","285","20","95"
"082818","09:41:29","803829398","test","2","intention_check","175","3","60","1","148","20","95"
"082818","09:41:29","803829398","test","2","prime_obama","176","1","99","0","287","20","95"
"082818","09:41:29","803829398","test","2","intention_check","177","1","99","1","169","20","95"
"082818","09:41:29","803829398","test","2","prime_obama","178","6","59","0","269","19","95"
"082818","09:41:29","803829398","test","2","intention_check","179","6","59","1","162","19","95"
"082818","09:41:29","803829398","test","2","prime_obama","180","4","42","0","226","19","95"
"082818","09:41:29","803829398","test","2","intention_check","181","4","42","1","159","19","95"
"082818","09:41:29","803829398","test","2","prime_obama","182","5","83","0","143","18","95"
"082818","09:41:29","803829398","test","2","intention_check","183","5","83","1","102","18","95"
"082818","09:41:29","803829398","test","2","prime_obama","184","3","97","0","247","18","95"
"082818","09:41:29","803829398","test","2","intention_check","185","3","97","1","106","18","95"
"082818","09:41:29","803829398","test","2","prime_obama","186","5","82","0","141","17","95"
"082818","09:41:29","803829398","test","2","intention_check","187","5","82","1","114","17","95"
"082818","09:41:29","803829398","test","2","prime_trump","188","4","50","1","242","17","95"
"082818","09:41:29","803829398","test","2","intention_check","189","4","50","1","106","17","95"
"082818","09:41:29","803829398","test","2","prime_trump","190","2","25","1","350","17","96"
"082818","09:41:29","803829398","test","2","intention_check","191","2","25","1","133","17","96"
"082818","09:41:29","803829398","test","2","prime_obama","192","2","11","0","344","17","96"
"082818","09:41:29","803829398","test","2","intention_check","193","2","11","1","139","17","96"
"082818","09:41:29","803829398","test","2","prime_obama","194","6","18","0","811","17","96"
"082818","09:41:29","803829398","test","2","intention_check","195","6","18","1","205","17","96"
"082818","09:41:29","803829398","test","2","prime_obama","196","4","90","0","318","16","96"
"082818","09:41:29","803829398","test","2","intention_check","197","4","90","1","137","16","96"
"082818","09:41:29","803829398","test","2","prime_trump","198","4","62","1","336","16","96"
"082818","09:41:29","803829398","test","2","intention_check","199","4","62","1","119","16","96"
"082818","09:41:29","803829398","test","2","prime_obama","200","1","64","0","330","16","96"
"082818","09:41:29","803829398","test","2","intention_check","201","1","64","1","151","16","96"
"082818","09:41:29","803829398","test","2","prime_obama","202","6","43","0","273","16","96"
"082818","09:41:29","803829398","test","2","intention_check","203","6","43","1","182","16","96"
"082818","09:41:29","803829398","test","2","prime_obama","204","1","29","0","139","15","96"
"082818","09:41:29","803829398","test","2","intention_check","205","1","29","1","147","15","96"
"082818","09:41:29","803829398","test","2","prime_obama","206","4","17","0","485","15","96"
"082818","09:41:29","803829398","test","2","intention_check","207","4","17","1","156","15","96"
"082818","09:41:29","803829398","test","2","prime_trump","208","5","23","1","305","15","96"
"082818","09:41:29","803829398","test","2","intention_check","209","5","23","1","489","15","96"
"082818","09:41:29","803829398","test","2","prime_trump","210","1","76","0","299","15","94"
"082818","09:41:29","803829398","test","2","intention_check","211","1","76","1","1432","15","94"
"082818","09:41:29","803829398","test","2","prime_obama","212","3","89","0","276","15","94"
"082818","09:41:29","803829398","test","2","intention_check","213","3","89","1","173","15","94"
"082818","09:41:29","803829398","test","2","prime_obama","214","5","1","0","304","14","94"
"082818","09:41:29","803829398","test","2","intention_check","215","5","1","1","277","14","94"
"082818","09:41:29","803829398","test","2","prime_obama","216","2","65","0","264","14","94"
"082818","09:41:29","803829398","test","2","intention_check","217","2","65","1","323","14","94"
"082818","09:41:29","803829398","test","2","prime_trump","218","6","55","1","382","14","94"
"082818","09:41:29","803829398","test","2","intention_check","219","6","55","1","143","14","94"
"082818","09:41:29","803829398","test","2","prime_obama","220","3","39","0","548","14","94"
"082818","09:41:29","803829398","test","2","intention_check","221","3","39","1","817","14","94"
"082818","09:41:29","803829398","test","2","prime_trump","222","3","98","1","369","14","94"
"082818","09:41:29","803829398","test","2","intention_check","223","3","98","1","197","14","94"
"082818","09:41:29","803829398","test","2","prime_trump","224","6","84","1","791","14","94"
"082818","09:41:29","803829398","test","2","intention_check","225","6","84","1","241","14","94"
"082818","09:41:29","803829398","test","2","prime_trump","226","4","96","1","258","14","94"
"082818","09:41:29","803829398","test","2","intention_check","227","4","96","1","145","14","94"
"082818","09:41:29","803829398","test","2","prime_trump","228","1","9","1","284","14","94"
"082818","09:41:29","803829398","test","2","intention_check","229","1","9","1","167","14","94"
"082818","09:41:29","803829398","test","2","prime_obama","230","5","54","0","338","14","94"
"082818","09:41:29","803829398","test","2","intention_check","231","5","54","1","169","14","94"
"082818","09:41:29","803829398","test","2","prime_trump","232","2","70","1","289","14","94"
"082818","09:41:29","803829398","test","2","intention_check","233","2","70","1","111","14","94"
"082818","09:41:29","803829398","test","2","prime_obama","234","2","5","0","269","13","94"
"082818","09:41:29","803829398","test","2","intention_check","235","2","5","1","177","13","94"
"082818","09:41:29","803829398","test","2","prime_obama","236","1","31","0","236","13","94"
"082818","09:41:29","803829398","test","2","intention_check","237","1","31","1","240","13","94"
"082818","09:41:29","803829398","test","2","prime_trump","238","5","51","1","342","13","95"
"082818","09:41:29","803829398","test","2","intention_check","239","5","51","1","153","13","95"
"082818","09:41:29","803829398","test","2","prime_obama","240","4","58","0","645","13","95"
"082818","09:41:29","803829398","test","2","intention_check","241","4","58","1","146","13","95"
"date","time","subject","blockcode","blocknum","trialcode","trialnum","values.primestim","values.targetstim","correct","latency","trial.prime_positive.totalpercentcorrect","trial.prime_negative.totalpercentcorrect"
"082818","12:50:16","58961423","practice","1","prime_negative_practice","3","0","0","1","1436","0","0"
"082818","12:50:16","58961423","practice","1","intention_check_practice","4","0","0","1","443","0","0"
"082818","12:50:16","58961423","practice","1","prime_positive_practice","5","0","0","1","457","0","0"
"082818","12:50:16","58961423","practice","1","intention_check_practice","6","0","0","1","416","0","0"
"082818","12:50:16","58961423","practice","1","prime_negative_practice","7","0","0","0","707","0","0"
"082818","12:50:16","58961423","practice","1","intention_check_practice","8","0","0","1","405","0","0"
"082818","12:50:16","58961423","practice","1","prime_positive_practice","9","0","0","1","729","0","0"
"082818","12:50:16","58961423","practice","1","intention_check_practice","10","0","0","1","437","0","0"
"082818","12:50:16","58961423","practice","1","prime_positive_practice","11","0","0","1","335","0","0"
"082818","12:50:16","58961423","practice","1","intention_check_practice","12","0","0","1","458","0","0"
"082818","12:50:16","58961423","practice","1","prime_positive_practice","13","0","0","1","280","0","0"
"082818","12:50:16","58961423","practice","1","intention_check_practice","14","0","0","1","359","0","0"
"082818","12:50:16","58961423","practice","1","prime_negative_practice","15","0","0","0","621","0","0"
"082818","12:50:16","58961423","practice","1","intention_check_practice","16","0","0","1","293","0","0"
"082818","12:50:16","58961423","practice","1","prime_negative_practice","17","0","0","1","798","0","0"
"082818","12:50:16","58961423","practice","1","intention_check_practice","18","0","0","1","436","0","0"
"082818","12:50:16","58961423","practice","1","prime_positive_practice","19","0","0","1","276","0","0"
"082818","12:50:16","58961423","practice","1","intention_check_practice","20","0","0","1","357","0","0"
"082818","12:50:16","58961423","practice","1","prime_negative_practice","21","0","0","0","559","0","0"
"082818","12:50:16","58961423","practice","1","intention_check_practice","22","0","0","1","343","0","0"
"082818","12:50:16","58961423","test","2","prime_negative","2","7","83","1","295","0","100"
"082818","12:50:16","58961423","test","2","intention_check","3","7","83","1","750","0","100"
"082818","12:50:16","58961423","test","2","prime_positive","4","4","35","1","508","100","100"
"082818","12:50:16","58961423","test","2","intention_check","5","4","35","1","359","100","100"
"082818","12:50:16","58961423","test","2","prime_negative","6","5","95","0","381","100","50"
"082818","12:50:16","58961423","test","2","intention_check","7","5","95","1","336","100","50"
"082818","12:50:16","58961423","test","2","prime_positive","8","7","60","1","220","100","50"
"082818","12:50:16","58961423","test","2","intention_check","9","7","60","1","442","100","50"
"082818","12:50:16","58961423","test","2","prime_negative","10","4","86","1","730","100","66"
"082818","12:50:16","58961423","test","2","intention_check","11","4","86","1","448","100","66"
"082818","12:50:16","58961423","test","2","prime_positive","12","9","29","1","340","100","66"
"082818","12:50:16","58961423","test","2","intention_check","13","9","29","1","382","100","66"
"082818","12:50:16","58961423","test","2","prime_positive","14","12","2","1","568","100","66"
"082818","12:50:16","58961423","test","2","intention_check","15","12","2","1","337","100","66"
"082818","12:50:16","58961423","test","2","prime_positive","16","5","17","1","405","100","66"
"082818","12:50:16","58961423","test","2","intention_check","17","5","17","1","355","100","66"
"082818","12:50:16","58961423","test","2","prime_positive","18","1","15","1","184","100","66"
"082818","12:50:16","58961423","test","2","intention_check","19","1","15","1","330","100","66"
"082818","12:50:16","58961423","test","2","prime_positive","20","11","8","1","322","100","66"
"082818","12:50:16","58961423","test","2","intention_check","21","11","8","1","365","100","66"
"082818","12:50:16","58961423","test","2","prime_negative","22","3","90","0","658","100","50"
"082818","12:50:16","58961423","test","2","intention_check","23","3","90","1","335","100","50"
"082818","12:50:16","58961423","test","2","prime_negative","24","1","27","0","168","100","40"
"082818","12:50:16","58961423","test","2","intention_check","25","1","27","1","345","100","40"
"082818","12:50:16","58961423","test","2","prime_negative","26","11","76","1","315","100","50"
"082818","12:50:16","58961423","test","2","intention_check","27","11","76","1","293","100","50"
"082818","12:50:16","58961423","test","2","prime_negative","28","2","71","0","361","100","42"
"082818","12:50:16","58961423","test","2","intention_check","29","2","71","1","374","100","42"
"082818","12:50:16","58961423","test","2","prime_negative","30","1","77","0","174","100","37"
"082818","12:50:16","58961423","test","2","intention_check","31","1","77","1","344","100","37"
"082818","12:50:16","58961423","test","2","prime_positive","32","4","6","1","272","100","37"
"082818","12:50:16","58961423","test","2","intention_check","33","4","6","1","372","100","37"
"082818","12:50:16","58961423","test","2","prime_positive","34","1","61","1","198","100","37"
"082818","12:50:16","58961423","test","2","intention_check","35","1","61","1","377","100","37"
"082818","12:50:16","58961423","test","2","prime_positive","36","11","80","1","270","100","37"
"082818","12:50:16","58961423","test","2","intention_check","37","11","80","1","351","100","37"
"082818","12:50:16","58961423","test","2","prime_negative","38","6","88","0","262","100","33"
"082818","12:50:16","58961423","test","2","intention_check","39","6","88","1","442","100","33"
"082818","12:50:16","58961423","test","2","prime_positive","40","9","57","1","239","100","33"
"082818","12:50:16","58961423","test","2","intention_check","41","9","57","1","366","100","33"
"082818","12:50:16","58961423","test","2","prime_negative","42","3","91","0","160","100","30"
"082818","12:50:16","58961423","test","2","intention_check","43","3","91","1","334","100","30"
"082818","12:50:16","58961423","test","2","prime_negative","44","4","97","0","850","100","27"
"082818","12:50:16","58961423","test","2","intention_check","45","4","97","1","356","100","27"
"082818","12:50:16","58961423","test","2","prime_positive","46","2","38","1","222","100","27"
"082818","12:50:16","58961423","test","2","intention_check","47","2","38","1","342","100","27"
"082818","12:50:16","58961423","test","2","prime_positive","48","10","54","1","284","100","27"
"082818","12:50:16","58961423","test","2","intention_check","49","10","54","1","462","100","27"
"082818","12:50:16","58961423","test","2","prime_positive","50","12","59","1","325","100","27"
"082818","12:50:16","58961423","test","2","intention_check","51","12","59","1","334","100","27"
"082818","12:50:16","58961423","test","2","prime_negative","52","8","47","1","557","100","33"
"082818","12:50:16","58961423","test","2","intention_check","53","8","47","1","490","100","33"
"082818","12:50:16","58961423","test","2","prime_positive","54","7","9","1","167","100","33"
"082818","12:50:16","58961423","test","2","intention_check","55","7","9","1","314","100","33"
"082818","12:50:16","58961423","test","2","prime_negative","56","12","22","0","547","100","30"
"082818","12:50:16","58961423","test","2","intention_check","57","12","22","1","315","100","30"
"082818","12:50:16","58961423","test","2","prime_negative","58","5","41","0","252","100","28"
"082818","12:50:16","58961423","test","2","intention_check","59","5","41","1","295","100","28"
"082818","12:50:16","58961423","test","2","prime_positive","60","8","40","1","309","100","28"
"082818","12:50:16","58961423","test","2","intention_check","61","8","40","1","366","100","28"
"082818","12:50:16","58961423","test","2","prime_positive","62","3","11","1","238","100","28"
"082818","12:50:16","58961423","test","2","intention_check","63","3","11","1","346","100","28"
"082818","12:50:16","58961423","test","2","prime_negative","64","7","32","1","765","100","33"
"082818","12:50:16","58961423","test","2","intention_check","65","7","32","1","504","100","33"
"082818","12:50:16","58961423","test","2","prime_negative","66","2","58","0","245","100","31"
"082818","12:50:16","58961423","test","2","intention_check","67","2","58","1","407","100","31"
"082818","12:50:16","58961423","test","2","prime_negative","68","11","100","1","359","100","35"
"082818","12:50:16","58961423","test","2","intention_check","69","11","100","1","306","100","35"
"082818","12:50:16","58961423","test","2","prime_positive","70","6","72","1","210","100","35"
"082818","12:50:16","58961423","test","2","intention_check","71","6","72","1","310","100","35"
"082818","12:50:16","58961423","test","2","prime_negative","72","10","46","0","294","100","33"
"082818","12:50:16","58961423","test","2","intention_check","73","10","46","1","373","100","33"
"082818","12:50:16","58961423","test","2","prime_positive","74","5","25","1","464","100","33"
"082818","12:50:16","58961423","test","2","intention_check","75","5","25","1","374","100","33"
"082818","12:50:16","58961423","test","2","prime_positive","76","11","10","1","431","100","33"
"082818","12:50:16","58961423","test","2","intention_check","77","11","10","1","360","100","33"
"082818","12:50:16","58961423","test","2","prime_positive","78","3","4","1","210","100","33"
"082818","12:50:16","58961423","test","2","intention_check","79","3","4","1","466","100","33"
"082818","12:50:16","58961423","test","2","prime_positive","80","5","48","1","215","100","33"
"082818","12:50:16","58961423","test","2","intention_check","81","5","48","1","338","100","33"
"082818","12:50:16","58961423","test","2","prime_positive","82","8","93","1","237","100","33"
"082818","12:50:16","58961423","test","2","intention_check","83","8","93","1","398","100","33"
"082818","12:50:16","58961423","test","2","prime_negative","84","9","3","0","243","100","31"
"082818","12:50:16","58961423","test","2","intention_check","85","9","3","1","415","100","31"
"082818","12:50:16","58961423","test","2","prime_negative","86","8","20","1","374","100","35"
"082818","12:50:16","58961423","test","2","intention_check","87","8","20","1","408","100","35"
"082818","12:50:16","58961423","test","2","prime_negative","88","3","67","0","226","100","33"
"082818","12:50:16","58961423","test","2","intention_check","89","3","67","1","909","100","33"
"082818","12:50:16","58961423","test","2","prime_negative","90","1","44","0","421","100","31"
"082818","12:50:16","58961423","test","2","intention_check","91","1","44","1","557","100","31"
"082818","12:50:16","58961423","test","2","prime_negative","92","6","21","0","371","100","30"
"082818","12:50:16","58961423","test","2","intention_check","93","6","21","1","485","100","30"
"082818","12:50:16","58961423","test","2","prime_positive","94","12","52","1","235","100","30"
"082818","12:50:16","58961423","test","2","intention_check","95","12","52","1","459","100","30"
"082818","12:50:16","58961423","test","2","prime_positive","96","9","64","1","196","100","30"
"082818","12:50:16","58961423","test","2","intention_check","97","9","64","1","338","100","30"
"082818","12:50:16","58961423","test","2","prime_negative","98","10","94","0","350","100","29"
"082818","12:50:16","58961423","test","2","intention_check","99","10","94","1","371","100","29"
"082818","12:50:16","58961423","test","2","prime_positive","100","7","96","1","223","100","29"
"082818","12:50:16","58961423","test","2","intention_check","101","7","96","1","315","100","29"
"082818","12:50:16","58961423","test","2","prime_negative","102","12","23","0","310","100","28"
"082818","12:50:16","58961423","test","2","intention_check","103","12","23","1","343","100","28"
"082818","12:50:16","58961423","test","2","prime_positive","104","6","13","1","233","100","28"
"082818","12:50:16","58961423","test","2","intention_check","105","6","13","1","380","100","28"
"082818","12:50:16","58961423","test","2","prime_negative","106","9","50","0","259","100","26"
"082818","12:50:16","58961423","test","2","intention_check","107","9","50","1","360","100","26"
"082818","12:50:16","58961423","test","2","prime_positive","108","2","87","1","177","100","26"
"082818","12:50:16","58961423","test","2","intention_check","109","2","87","1","313","100","26"
"082818","12:50:16","58961423","test","2","prime_positive","110","10","75","1","204","100","26"
"082818","12:50:16","58961423","test","2","intention_check","111","10","75","1","472","100","26"
"082818","12:50:16","58961423","test","2","prime_negative","112","11","70","1","263","100","29"
"082818","12:50:16","58961423","test","2","intention_check","113","11","70","1","441","100","29"
"082818","12:50:16","58961423","test","2","prime_positive","114","1","45","1","159","100","29"
"082818","12:50:16","58961423","test","2","intention_check","115","1","45","1","356","100","29"
"082818","12:50:16","58961423","test","2","prime_positive","116","4","68","1","217","100","29"
"082818","12:50:16","58961423","test","2","intention_check","117","4","68","1","353","100","29"
"082818","12:50:16","58961423","test","2","prime_positive","118","7","79","1","147","100","29"
"082818","12:50:16","58961423","test","2","intention_check","119","7","79","1","285","100","29"
"082818","12:50:16","58961423","test","2","prime_negative","120","7","14","0","397","100","28"
"082818","12:50:16","58961423","test","2","intention_check","121","7","14","1","420","100","28"
"082818","12:50:16","58961423","test","2","prime_negative","122","5","28","0","172","100","27"
"082818","12:50:16","58961423","test","2","intention_check","123","5","28","1","341","100","27"
"082818","12:50:16","58961423","test","2","prime_negative","124","4","65","0","409","100","26"
"082818","12:50:16","58961423","test","2","intention_check","125","4","65","1","344","100","26"
"082818","12:50:16","58961423","test","2","prime_positive","126","2","19","1","208","100","26"
"082818","12:50:16","58961423","test","2","intention_check","127","2","19","1","349","100","26"
"082818","12:50:16","58961423","test","2","prime_negative","128","2","37","0","221","100","25"
"082818","12:50:16","58961423","test","2","intention_check","129","2","37","1","405","100","25"
"082818","12:50:16","58961423","test","2","prime_negative","130","5","5","0","149","100","25"
"082818","12:50:16","58961423","test","2","intention_check","131","5","5","1","493","100","25"
"082818","12:50:16","58961423","test","2","prime_positive","132","6","39","1","248","100","25"
"082818","12:50:16","58961423","test","2","intention_check","133","6","39","1","468","100","25"
"082818","12:50:16","58961423","test","2","prime_negative","134","1","31","0","191","100","24"
"082818","12:50:16","58961423","test","2","intention_check","135","1","31","1","503","100","24"
"082818","12:50:16","58961423","test","2","prime_positive","136","10","69","1","176","100","24"
"082818","12:50:16","58961423","test","2","intention_check","137","10","69","1","437","100","24"
"082818","12:50:16","58961423","test","2","prime_negative","138","12","62","0","248","100","23"
"082818","12:50:16","58961423","test","2","intention_check","139","12","62","1","445","100","23"
"082818","12:50:16","58961423","test","2","prime_negative","140","9","26","0","301","100","22"
"082818","12:50:16","58961423","test","2","intention_check","141","9","26","1","418","100","22"
"082818","12:50:16","58961423","test","2","prime_negative","142","3","24","0","224","100","22"
"082818","12:50:16","58961423","test","2","intention_check","143","3","24","1","604","100","22"
"082818","12:50:16","58961423","test","2","prime_positive","144","8","36","1","536","100","22"
"082818","12:50:16","58961423","test","2","intention_check","145","8","36","1","310","100","22"
"082818","12:50:16","58961423","test","2","prime_positive","146","12","18","1","235","100","22"
"082818","12:50:16","58961423","test","2","intention_check","147","12","18","1","386","100","22"
"082818","12:50:16","58961423","test","2","prime_positive","148","1","74","1","263","100","22"
"082818","12:50:16","58961423","test","2","intention_check","149","1","74","1","433","100","22"
"082818","12:50:16","58961423","test","2","prime_positive","150","5","34","1","304","100","22"
"082818","12:50:16","58961423","test","2","intention_check","151","5","34","1","477","100","22"
"082818","12:50:16","58961423","test","2","prime_positive","152","3","12","1","179","100","22"
"082818","12:50:16","58961423","test","2","intention_check","153","3","12","1","301","100","22"
"082818","12:50:16","58961423","test","2","prime_positive","154","11","85","1","268","100","22"
"082818","12:50:16","58961423","test","2","intention_check","155","11","85","1","330","100","22"
"082818","12:50:16","58961423","test","2","prime_negative","156","10","84","0","371","100","21"
"082818","12:50:16","58961423","test","2","intention_check","157","10","84","1","379","100","21"
"082818","12:50:16","58961423","test","2","prime_negative","158","8","16","1","337","100","23"
"082818","12:50:16","58961423","test","2","intention_check","159","8","16","1","324","100","23"
"082818","12:50:16","58961423","test","2","prime_positive","160","9","51","1","319","100","23"
"082818","12:50:16","58961423","test","2","intention_check","161","9","51","1","370","100","23"
"082818","12:50:16","58961423","test","2","prime_positive","162","4","89","1","222","100","23"
"082818","12:50:16","58961423","test","2","intention_check","163","4","89","1","339","100","23"
"082818","12:50:16","58961423","test","2","prime_positive","164","2","81","1","179","100","23"
"082818","12:50:16","58961423","test","2","intention_check","165","2","81","1","322","100","23"
"082818","12:50:16","58961423","test","2","prime_negative","166","6","63","0","223","100","23"
"082818","12:50:16","58961423","test","2","intention_check","167","6","63","1","426","100","23"
"082818","12:50:16","58961423","test","2","prime_positive","168","12","43","1","198","100","23"
"082818","12:50:16","58961423","test","2","intention_check","169","12","43","1","411","100","23"
"082818","12:50:16","58961423","test","2","prime_positive","170","11","98","1","187","100","23"
"082818","12:50:16","58961423","test","2","intention_check","171","11","98","1","350","100","23"
"082818","12:50:16","58961423","test","2","prime_negative","172","7","30","0","314","100","22"
"082818","12:50:16","58961423","test","2","intention_check","173","7","30","1","381","100","22"
"082818","12:50:16","58961423","test","2","prime_positive","174","7","53","1","179","100","22"
"082818","12:50:16","58961423","test","2","intention_check","175","7","53","1","409","100","22"
"082818","12:50:16","58961423","test","2","prime_negative","176","11","78","1","244","100","24"
"082818","12:50:16","58961423","test","2","intention_check","177","11","78","1","656","100","24"
"082818","12:50:16","58961423","test","2","prime_negative","178","4","1","1","217","100","26"
"082818","12:50:16","58961423","test","2","intention_check","179","4","1","1","543","100","26"
"082818","12:50:16","58961423","test","2","prime_negative","180","2","42","0","235","100","25"
"082818","12:50:16","58961423","test","2","intention_check","181","2","42","1","515","100","25"
"082818","12:50:16","58961423","test","2","prime_negative","182","8","4","1","384","100","27"
"082818","12:50:16","58961423","test","2","intention_check","183","8","4","1","299","100","27"
"082818","12:50:16","58961423","test","2","prime_negative","184","6","91","0","352","100","26"
"082818","12:50:16","58961423","test","2","intention_check","185","6","91","1","464","100","26"
"082818","12:50:16","58961423","test","2","prime_positive","186","10","55","1","217","100","26"
"082818","12:50:16","58961423","test","2","intention_check","187","10","55","1","472","100","26"
"082818","12:50:16","58961423","test","2","prime_negative","188","1","57","0","218","100","26"
"082818","12:50:16","58961423","test","2","intention_check","189","1","57","1","409","100","26"
"082818","12:50:16","58961423","test","2","prime_negative","190","2","69","0","255","100","25"
"082818","12:50:16","58961423","test","2","intention_check","191","2","69","1","417","100","25"
"082818","12:50:16","58961423","test","2","prime_negative","192","12","35","0","208","100","25"
"082818","12:50:16","58961423","test","2","intention_check","193","12","35","1","467","100","25"
"082818","12:50:16","58961423","test","2","prime_negative","194","11","41","1","223","100","26"
"082818","12:50:16","58961423","test","2","intention_check","195","11","41","1","382","100","26"
"082818","12:50:16","58961423","test","2","prime_negative","196","10","24","0","382","100","26"
"082818","12:50:16","58961423","test","2","intention_check","197","10","24","1","436","100","26"
"082818","12:50:16","58961423","test","2","prime_negative","198","5","18","0","354","100","25"
"082818","12:50:16","58961423","test","2","intention_check","199","5","18","1","381","100","25"
"082818","12:50:16","58961423","test","2","prime_negative","200","7","20","0","333","100","25"
"082818","12:50:16","58961423","test","2","intention_check","201","7","20","1","330","100","25"
"082818","12:50:16","58961423","test","2","prime_positive","202","3","90","1","216","100","25"
"082818","12:50:16","58961423","test","2","intention_check","203","3","90","1","319","100","25"
"082818","12:50:16","58961423","test","2","prime_positive","204","4","77","1","229","100","25"
"082818","12:50:16","58961423","test","2","intention_check","205","4","77","1","329","100","25"
"082818","12:50:16","58961423","test","2","prime_negative","206","3","33","0","206","100","24"
"082818","12:50:16","58961423","test","2","intention_check","207","3","33","1","479","100","24"
"082818","12:50:16","58961423","test","2","prime_positive","208","9","84","1","213","100","24"
"082818","12:50:16","58961423","test","2","intention_check","209","9","84","1","305","100","24"
"082818","12:50:16","58961423","test","2","prime_positive","210","5","31","1","258","100","24"
"082818","12:50:16","58961423","test","2","intention_check","211","5","31","1","319","100","24"
"082818","12:50:16","58961423","test","2","prime_negative","212","9","58","0","160","100","24"
"082818","12:50:16","58961423","test","2","intention_check","213","9","58","1","322","100","24"
"082818","12:50:16","58961423","test","2","prime_positive","214","8","60","1","203","100","24"
"082818","12:50:16","58961423","test","2","intention_check","215","8","60","1","364","100","24"
"082818","12:50:16","58961423","test","2","prime_negative","216","4","27","0","293","100","23"
"082818","12:50:16","58961423","test","2","intention_check","217","4","27","1","325","100","23"
"082818","12:50:16","58961423","test","2","prime_positive","218","1","5","1","155","100","23"
"082818","12:50:16","58961423","test","2","intention_check","219","1","5","1","332","100","23"
"082818","12:50:16","58961423","test","2","prime_negative","220","7","17","0","301","100","23"
"082818","12:50:16","58961423","test","2","intention_check","221","7","17","1","504","100","23"
"082818","12:50:16","58961423","test","2","prime_positive","222","6","9","1","323","100","23"
"082818","12:50:16","58961423","test","2","intention_check","223","6","9","1","476","100","23"
"082818","12:50:16","58961423","test","2","prime_negative","224","4","6","0","298","100","22"
"082818","12:50:16","58961423","test","2","intention_check","225","4","6","1","1190","100","22"
"082818","12:50:16","58961423","test","2","prime_positive","226","5","47","1","296","100","22"
"082818","12:50:16","58961423","test","2","intention_check","227","5","47","1","365","100","22"
"082818","12:50:16","58961423","test","2","prime_positive","228","8","23","1","230","100","22"
"082818","12:50:16","58961423","test","2","intention_check","229","8","23","1","364","100","22"
"082818","12:50:16","58961423","test","2","prime_negative","230","10","89","0","255","100","22"
"082818","12:50:16","58961423","test","2","intention_check","231","10","89","1","425","100","22"
"082818","12:50:16","58961423","test","2","prime_positive","232","11","21","1","261","100","22"
"082818","12:50:16","58961423","test","2","intention_check","233","11","21","1","531","100","22"
"082818","12:50:16","58961423","test","2","prime_positive","234","12","87","1","250","100","22"
"082818","12:50:16","58961423","test","2","intention_check","235","12","87","1","345","100","22"
"082818","12:50:16","58961423","test","2","prime_negative","236","9","22","0","315","100","22"
"082818","12:50:16","58961423","test","2","intention_check","237","9","22","1","488","100","22"
"082818","12:50:16","58961423","test","2","prime_negative","238","12","26","0","388","100","21"
"082818","12:50:16","58961423","test","2","intention_check","239","12","26","1","416","100","21"
"082818","12:50:16","58961423","test","2","prime_positive","240","6","15","1","237","100","21"
"082818","12:50:16","58961423","test","2","intention_check","241","6","15","1","329","100","21"
"date","time","subject","blockcode","blocknum","trialcode","trialnum","values.primestim","values.targetstim","correct","latency","trial.prime_obama.totalpercentcorrect","trial.prime_trump.totalpercentcorrect"
"082818","12:49:34","48643450","practice","1","prime_obama_practice","5","0","0","0","11234","0","0"
"082818","12:49:34","48643450","practice","1","intention_check_practice","6","0","0","0","2500","0","0"
"082818","12:49:34","48643450","practice","1","prime_obama_practice","7","0","0","1","8938","0","0"
"082818","12:49:34","48643450","practice","1","intention_check_practice","8","0","0","0","2500","0","0"
"082818","12:49:34","48643450","practice","1","prime_trump_practice","9","0","0","1","2451","0","0"
"082818","12:49:34","48643450","practice","1","intention_check_practice","10","0","0","0","2500","0","0"
"082818","12:49:34","48643450","practice","1","prime_trump_practice","11","0","0","0","1132","0","0"
"082818","12:49:34","48643450","practice","1","intention_check_practice","12","0","0","0","2500","0","0"
"082818","12:49:34","48643450","practice","1","prime_obama_practice","13","0","0","1","1302","0","0"
"082818","12:49:34","48643450","practice","1","intention_check_practice","14","0","0","0","2500","0","0"
"082818","12:49:34","48643450","practice","1","prime_trump_practice","15","0","0","1","1278","0","0"
"082818","12:49:34","48643450","practice","1","intention_check_practice","16","0","0","0","2500","0","0"
"082818","12:49:34","48643450","practice","1","prime_obama_practice","17","0","0","1","741","0","0"
"082818","12:49:34","48643450","practice","1","intention_check_practice","18","0","0","0","2500","0","0"
"082818","12:49:34","48643450","practice","1","prime_trump_practice","19","0","0","1","809","0","0"
"082818","12:49:34","48643450","practice","1","intention_check_practice","20","0","0","0","2500","0","0"
"082818","12:49:34","48643450","practice","1","prime_trump_practice","21","0","0","1","736","0","0"
"082818","12:49:34","48643450","practice","1","intention_check_practice","22","0","0","0","2500","0","0"
"082818","12:49:34","48643450","practice","1","prime_obama_practice","23","0","0","1","711","0","0"
"082818","12:49:34","48643450","practice","1","intention_check_practice","24","0","0","0","2500","0","0"
"082818","12:49:34","48643450","test","2","prime_obama","2","4","94","1","708","100","0"
"082818","12:49:34","48643450","test","2","intention_check","3","4","94","0","2500","100","0"
"082818","12:49:34","48643450","test","2","prime_trump","4","4","14","0","2034","100","0"
"082818","12:49:34","48643450","test","2","intention_check","5","4","14","0","2500","100","0"
"082818","12:49:34","48643450","test","2","prime_trump","6","2","39","1","596","100","50"
"082818","12:49:34","48643450","test","2","intention_check","7","2","39","0","2500","100","50"
"082818","12:49:34","48643450","test","2","prime_trump","8","6","11","0","777","100","33"
"082818","12:49:34","48643450","test","2","intention_check","9","6","11","0","2500","100","33"
"082818","12:49:34","48643450","test","2","prime_trump","10","3","40","1","1046","100","50"
"082818","12:49:34","48643450","test","2","intention_check","11","3","40","0","2500","100","50"
"082818","12:49:34","48643450","test","2","prime_obama","12","6","41","1","678","100","50"
"082818","12:49:34","48643450","test","2","intention_check","13","6","41","0","2500","100","50"
"082818","12:49:34","48643450","test","2","prime_obama","14","5","5","0","601","66","50"
"082818","12:49:34","48643450","test","2","intention_check","15","5","5","0","2500","66","50"
"082818","12:49:34","48643450","test","2","prime_trump","16","4","49","1","1460","66","60"
"082818","12:49:34","48643450","test","2","intention_check","17","4","49","0","2500","66","60"
"082818","12:49:34","48643450","test","2","prime_trump","18","1","23","0","771","66","50"
"082818","12:49:34","48643450","test","2","intention_check","19","1","23","0","2500","66","50"
"082818","12:49:34","48643450","test","2","prime_obama","20","2","18","0","862","50","50"
"082818","12:49:34","48643450","test","2","intention_check","21","2","18","0","2500","50","50"
"082818","12:49:34","48643450","test","2","prime_trump","22","5","69","1","1150","50","57"
"082818","12:49:34","48643450","test","2","intention_check","23","5","69","0","2500","50","57"
"082818","12:49:34","48643450","test","2","prime_obama","24","3","46","1","771","60","57"
"082818","12:49:34","48643450","test","2","intention_check","25","3","46","0","2500","60","57"
"082818","12:49:34","48643450","test","2","prime_obama","26","4","48","1","597","66","57"
"082818","12:49:34","48643450","test","2","intention_check","27","4","48","0","2500","66","57"
"082818","12:49:34","48643450","test","2","prime_trump","28","3","75","1","795","66","62"
"082818","12:49:34","48643450","test","2","intention_check","29","3","75","0","2500","66","62"
"082818","12:49:34","48643450","test","2","prime_obama","30","1","88","1","511","71","62"
"082818","12:49:34","48643450","test","2","intention_check","31","1","88","0","2500","71","62"
"082818","12:49:34","48643450","test","2","prime_obama","32","5","51","1","459","75","62"
"082818","12:49:34","48643450","test","2","intention_check","33","5","51","0","2500","75","62"
"082818","12:49:34","48643450","test","2","prime_trump","34","5","85","0","579","75","55"
"082818","12:49:34","48643450","test","2","intention_check","35","5","85","0","2500","75","55"
"082818","12:49:34","48643450","test","2","prime_trump","36","1","66","1","521","75","60"
"082818","12:49:34","48643450","test","2","intention_check","37","1","66","0","2500","75","60"
"082818","12:49:34","48643450","test","2","prime_trump","38","2","3","1","523","75","63"
"082818","12:49:34","48643450","test","2","intention_check","39","2","3","0","2500","75","63"
"082818","12:49:34","48643450","test","2","prime_trump","40","6","29","1","675","75","66"
"082818","12:49:34","48643450","test","2","intention_check","41","6","29","0","2500","75","66"
"082818","12:49:34","48643450","test","2","prime_obama","42","3","44","1","780","77","66"
"082818","12:49:34","48643450","test","2","intention_check","43","3","44","0","2500","77","66"
"082818","12:49:34","48643450","test","2","prime_trump","44","4","21","1","665","77","69"
"082818","12:49:34","48643450","test","2","intention_check","45","4","21","0","2500","77","69"
"082818","12:49:34","48643450","test","2","prime_trump","46","3","62","1","613","77","71"
"082818","12:49:34","48643450","test","2","intention_check","47","3","62","0","2500","77","71"
"082818","12:49:34","48643450","test","2","prime_obama","48","4","54","1","600","80","71"
"082818","12:49:34","48643450","test","2","intention_check","49","4","54","0","2500","80","71"
"082818","12:49:34","48643450","test","2","prime_obama","50","1","96","0","593","72","71"
"082818","12:49:34","48643450","test","2","intention_check","51","1","96","0","2500","72","71"
"082818","12:49:34","48643450","test","2","prime_obama","52","2","82","0","916","66","71"
"082818","12:49:34","48643450","test","2","intention_check","53","2","82","0","2500","66","71"
"082818","12:49:34","48643450","test","2","prime_trump","54","4","1","0","897","66","66"
"082818","12:49:34","48643450","test","2","intention_check","55","4","1","0","2500","66","66"
"082818","12:49:34","48643450","test","2","prime_trump","56","2","25","0","510","66","62"
"082818","12:49:34","48643450","test","2","intention_check","57","2","25","0","2500","66","62"
"082818","12:49:34","48643450","test","2","prime_obama","58","6","76","0","1208","61","62"
"082818","12:49:34","48643450","test","2","intention_check","59","6","76","0","2500","61","62"
"082818","12:49:34","48643450","test","2","prime_obama","60","5","95","1","877","64","62"
"082818","12:49:34","48643450","test","2","intention_check","61","5","95","0","2500","64","62"
"082818","12:49:34","48643450","test","2","prime_trump","62","5","24","0","1697","64","58"
"082818","12:49:34","48643450","test","2","intention_check","63","5","24","0","2500","64","58"
"082818","12:49:34","48643450","test","2","prime_trump","64","6","93","0","604","64","55"
"082818","12:49:34","48643450","test","2","intention_check","65","6","93","0","2500","64","55"
"082818","12:49:34","48643450","test","2","prime_trump","66","1","80","1","569","64","57"
"082818","12:49:34","48643450","test","2","intention_check","67","1","80","0","2500","64","57"
"082818","12:49:34","48643450","test","2","prime_obama","68","1","52","0","740","60","57"
"082818","12:49:34","48643450","test","2","intention_check","69","1","52","0","2500","60","57"
"082818","12:49:34","48643450","test","2","prime_trump","70","4","37","0","597","60","55"
"082818","12:49:34","48643450","test","2","intention_check","71","4","37","0","2500","60","55"
"082818","12:49:34","48643450","test","2","prime_trump","72","5","56","0","524","60","52"
"082818","12:49:34","48643450","test","2","intention_check","73","5","56","0","2500","60","52"
"082818","12:49:34","48643450","test","2","prime_trump","74","6","92","0","647","60","50"
"082818","12:49:34","48643450","test","2","intention_check","75","6","92","0","2500","60","50"
"082818","12:49:34","48643450","test","2","prime_trump","76","2","64","0","684","60","47"
"082818","12:49:34","48643450","test","2","intention_check","77","2","64","0","2500","60","47"
"082818","12:49:34","48643450","test","2","prime_obama","78","6","55","0","714","56","47"
"082818","12:49:34","48643450","test","2","intention_check","79","6","55","0","2500","56","47"
"082818","12:49:34","48643450","test","2","prime_trump","80","1","50","0","514","56","45"
"082818","12:49:34","48643450","test","2","intention_check","81","1","50","0","2500","56","45"
"082818","12:49:34","48643450","test","2","prime_obama","82","2","36","1","489","58","45"
"082818","12:49:34","48643450","test","2","intention_check","83","2","36","0","2500","58","45"
"082818","12:49:34","48643450","test","2","prime_obama","84","4","57","0","641","55","45"
"082818","12:49:34","48643450","test","2","intention_check","85","4","57","0","2500","55","45"
"082818","12:49:34","48643450","test","2","prime_obama","86","3","33","0","672","52","45"
"082818","12:49:34","48643450","test","2","intention_check","87","3","33","0","2500","52","45"
"082818","12:49:34","48643450","test","2","prime_trump","88","3","34","0","569","52","44"
"082818","12:49:34","48643450","test","2","intention_check","89","3","34","0","2500","52","44"
"082818","12:49:34","48643450","test","2","prime_obama","90","2","2","1","540","55","44"
"082818","12:49:34","48643450","test","2","intention_check","91","2","2","0","2500","55","44"
"082818","12:49:34","48643450","test","2","prime_trump","92","4","61","1","518","55","46"
"082818","12:49:34","48643450","test","2","intention_check","93","4","61","0","2500","55","46"
"082818","12:49:34","48643450","test","2","prime_trump","94","2","97","1","857","55","48"
"082818","12:49:34","48643450","test","2","intention_check","95","2","97","0","2500","55","48"
"082818","12:49:34","48643450","test","2","prime_obama","96","5","78","0","6288","52","48"
"082818","12:49:34","48643450","test","2","intention_check","97","5","78","0","2500","52","48"
"082818","12:49:34","48643450","test","2","prime_obama","98","3","71","0","617","50","48"
"082818","12:49:34","48643450","test","2","intention_check","99","3","71","0","2500","50","48"
"082818","12:49:34","48643450","test","2","prime_obama","100","6","86","1","819","52","48"
"082818","12:49:34","48643450","test","2","intention_check","101","6","86","0","2500","52","48"
"082818","12:49:34","48643450","test","2","prime_obama","102","1","87","1","594","54","48"
"082818","12:49:34","48643450","test","2","intention_check","103","1","87","0","2500","54","48"
"082818","12:49:34","48643450","test","2","prime_trump","104","3","26","0","695","54","46"
"082818","12:49:34","48643450","test","2","intention_check","105","3","26","0","2500","54","46"
"082818","12:49:34","48643450","test","2","prime_trump","106","5","32","0","811","54","44"
"082818","12:49:34","48643450","test","2","intention_check","107","5","32","0","2500","54","44"
"082818","12:49:34","48643450","test","2","prime_obama","108","4","45","0","752","52","44"
"082818","12:49:34","48643450","test","2","intention_check","109","4","45","0","2500","52","44"
"082818","12:49:34","48643450","test","2","prime_obama","110","5","59","1","890","53","44"
"082818","12:49:34","48643450","test","2","intention_check","111","5","59","0","2500","53","44"
"082818","12:49:34","48643450","test","2","prime_trump","112","1","90","1","565","53","46"
"082818","12:49:34","48643450","test","2","intention_check","113","1","90","0","2500","53","46"
"082818","12:49:34","48643450","test","2","prime_trump","114","6","22","0","751","53","45"
"082818","12:49:34","48643450","test","2","intention_check","115","6","22","0","2500","53","45"
"082818","12:49:34","48643450","test","2","prime_obama","116","2","79","1","619","55","45"
"082818","12:49:34","48643450","test","2","intention_check","117","2","79","0","2500","55","45"
"082818","12:49:34","48643450","test","2","prime_obama","118","4","4","1","753","57","45"
"082818","12:49:34","48643450","test","2","intention_check","119","4","4","0","2500","57","45"
"082818","12:49:34","48643450","test","2","prime_trump","120","4","8","1","633","57","46"
"082818","12:49:34","48643450","test","2","intention_check","121","4","8","0","2500","57","46"
"082818","12:49:34","48643450","test","2","prime_obama","122","6","31","0","496","55","46"
"082818","12:49:34","48643450","test","2","intention_check","123","6","31","0","2500","55","46"
"082818","12:49:34","48643450","test","2","prime_trump","124","6","70","1","567","55","48"
"082818","12:49:34","48643450","test","2","intention_check","125","6","70","0","2500","55","48"
"082818","12:49:34","48643450","test","2","prime_obama","126","3","42","1","574","56","48"
"082818","12:49:34","48643450","test","2","intention_check","127","3","42","0","2500","56","48"
"082818","12:49:34","48643450","test","2","prime_trump","128","3","89","1","512","56","50"
"082818","12:49:34","48643450","test","2","intention_check","129","3","89","0","2500","56","50"
"082818","12:49:34","48643450","test","2","prime_obama","130","1","53","0","549","54","50"
"082818","12:49:34","48643450","test","2","intention_check","131","1","53","0","2500","54","50"
"082818","12:49:34","48643450","test","2","prime_trump","132","2","10","1","1198","54","51"
"082818","12:49:34","48643450","test","2","intention_check","133","2","10","0","2500","54","51"
"082818","12:49:34","48643450","test","2","prime_obama","134","1","67","1","680","56","51"
"082818","12:49:34","48643450","test","2","intention_check","135","1","67","0","2500","56","51"
"082818","12:49:34","48643450","test","2","prime_obama","136","2","35","1","541","57","51"
"082818","12:49:34","48643450","test","2","intention_check","137","2","35","0","2500","57","51"
"082818","12:49:34","48643450","test","2","prime_obama","138","3","27","1","463","58","51"
"082818","12:49:34","48643450","test","2","intention_check","139","3","27","0","2500","58","51"
"082818","12:49:34","48643450","test","2","prime_trump","140","1","58","0","433","58","50"
"082818","12:49:34","48643450","test","2","intention_check","141","1","58","0","2500","58","50"
"082818","12:49:34","48643450","test","2","prime_trump","142","5","74","0","672","58","48"
"082818","12:49:34","48643450","test","2","intention_check","143","5","74","0","2500","58","48"
"082818","12:49:34","48643450","test","2","prime_trump","144","3","98","1","563","58","50"
"082818","12:49:34","48643450","test","2","intention_check","145","3","98","0","2500","58","50"
"082818","12:49:34","48643450","test","2","prime_trump","146","1","63","0","557","58","48"
"082818","12:49:34","48643450","test","2","intention_check","147","1","63","0","2500","58","48"
"082818","12:49:34","48643450","test","2","prime_obama","148","6","43","0","564","57","48"
"082818","12:49:34","48643450","test","2","intention_check","149","6","43","0","2500","57","48"
"082818","12:49:34","48643450","test","2","prime_obama","150","5","47","1","534","58","48"
"082818","12:49:34","48643450","test","2","intention_check","151","5","47","0","2500","58","48"
"082818","12:49:34","48643450","test","2","prime_obama","152","4","81","1","439","59","48"
"082818","12:49:34","48643450","test","2","intention_check","153","4","81","0","2500","59","48"
"082818","12:49:34","48643450","test","2","prime_trump","154","6","83","1","394","59","50"
"082818","12:49:34","48643450","test","2","intention_check","155","6","83","0","2500","59","50"
"082818","12:49:34","48643450","test","2","prime_trump","156","4","91","1","940","59","51"
"082818","12:49:34","48643450","test","2","intention_check","157","4","91","0","2500","59","51"
"082818","12:49:34","48643450","test","2","prime_obama","158","3","72","0","3354","57","51"
"082818","12:49:34","48643450","test","2","intention_check","159","3","72","0","2500","57","51"
"082818","12:49:34","48643450","test","2","prime_trump","160","5","100","1","524","57","52"
"082818","12:49:34","48643450","test","2","intention_check","161","5","100","0","2500","57","52"
"082818","12:49:34","48643450","test","2","prime_obama","162","1","38","1","508","58","52"
"082818","12:49:34","48643450","test","2","intention_check","163","1","38","0","2500","58","52"
"082818","12:49:34","48643450","test","2","prime_obama","164","2","28","1","846","60","52"
"082818","12:49:34","48643450","test","2","intention_check","165","2","28","0","2500","60","52"
"082818","12:49:34","48643450","test","2","prime_obama","166","4","6","1","555","60","52"
"082818","12:49:34","48643450","test","2","intention_check","167","4","6","0","2500","60","52"
"082818","12:49:34","48643450","test","2","prime_trump","168","2","17","1","556","60","53"
"082818","12:49:34","48643450","test","2","intention_check","169","2","17","0","2500","60","53"
"082818","12:49:34","48643450","test","2","prime_obama","170","6","65","0","850","59","53"
"082818","12:49:34","48643450","test","2","intention_check","171","6","65","0","2500","59","53"
"082818","12:49:34","48643450","test","2","prime_obama","172","5","60","0","509","58","53"
"082818","12:49:34","48643450","test","2","intention_check","173","5","60","0","2500","58","53"
"082818","12:49:34","48643450","test","2","prime_obama","174","6","68","1","490","59","53"
"082818","12:49:34","48643450","test","2","intention_check","175","6","68","0","2500","59","53"
"082818","12:49:34","48643450","test","2","prime_obama","176","1","84","1","583","60","53"
"082818","12:49:34","48643450","test","2","intention_check","177","1","84","0","2500","60","53"
"082818","12:49:34","48643450","test","2","prime_obama","178","5","9","1","534","60","53"
"082818","12:49:34","48643450","test","2","intention_check","179","5","9","0","2500","60","53"
"082818","12:49:34","48643450","test","2","prime_obama","180","3","20","0","617","59","53"
"082818","12:49:34","48643450","test","2","intention_check","181","3","20","0","2500","59","53"
"082818","12:49:34","48643450","test","2","prime_obama","182","4","24","1","513","60","53"
"082818","12:49:34","48643450","test","2","intention_check","183","4","24","0","2500","60","53"
"082818","12:49:34","48643450","test","2","prime_trump","184","4","14","1","679","60","54"
"082818","12:49:34","48643450","test","2","intention_check","185","4","14","0","2500","60","54"
"082818","12:49:34","48643450","test","2","prime_obama","186","2","58","0","877","59","54"
"082818","12:49:34","48643450","test","2","intention_check","187","2","58","0","2500","59","54"
"082818","12:49:34","48643450","test","2","prime_obama","188","1","16","0","846","58","54"
"082818","12:49:34","48643450","test","2","intention_check","189","1","16","0","2500","58","54"
"082818","12:49:34","48643450","test","2","prime_obama","190","5","53","0","637","56","54"
"082818","12:49:34","48643450","test","2","intention_check","191","5","53","0","2500","56","54"
"082818","12:49:34","48643450","test","2","prime_trump","192","3","99","1","486","56","55"
"082818","12:49:34","48643450","test","2","intention_check","193","3","99","0","2500","56","55"
"082818","12:49:34","48643450","test","2","prime_trump","194","5","54","0","636","56","54"
"082818","12:49:34","48643450","test","2","intention_check","195","5","54","0","2500","56","54"
"082818","12:49:34","48643450","test","2","prime_trump","196","2","20","0","625","56","53"
"082818","12:49:34","48643450","test","2","intention_check","197","2","20","0","2500","56","53"
"082818","12:49:34","48643450","test","2","prime_obama","198","3","31","0","719","55","53"
"082818","12:49:34","48643450","test","2","intention_check","199","3","31","0","2500","55","53"
"082818","12:49:34","48643450","test","2","prime_obama","200","4","84","1","656","56","53"
"082818","12:49:34","48643450","test","2","intention_check","201","4","84","0","2500","56","53"
"082818","12:49:34","48643450","test","2","prime_obama","202","6","11","1","1041","57","53"
"082818","12:49:34","48643450","test","2","intention_check","203","6","11","0","2500","57","53"
"082818","12:49:34","48643450","test","2","prime_trump","204","1","4","1","504","57","54"
"082818","12:49:34","48643450","test","2","intention_check","205","1","4","0","2500","57","54"
"082818","12:49:34","48643450","test","2","prime_obama","206","2","64","0","612","56","54"
"082818","12:49:34","48643450","test","2","intention_check","207","2","64","0","2500","56","54"
"082818","12:49:34","48643450","test","2","prime_trump","208","6","85","0","1067","56","53"
"082818","12:49:34","48643450","test","2","intention_check","209","6","85","0","2500","56","53"
"082818","12:49:34","48643450","test","2","prime_obama","210","4","55","0","560","55","53"
"082818","12:49:34","48643450","test","2","intention_check","211","4","55","0","2500","55","53"
"082818","12:49:34","48643450","test","2","prime_obama","212","2","41","1","593","56","53"
"082818","12:49:34","48643450","test","2","intention_check","213","2","41","0","2500","56","53"
"082818","12:49:34","48643450","test","2","prime_trump","214","3","38","1","530","56","54"
"082818","12:49:34","48643450","test","2","intention_check","215","3","38","0","2500","56","54"
"082818","12:49:34","48643450","test","2","prime_trump","216","6","89","0","577","56","52"
"082818","12:49:34","48643450","test","2","intention_check","217","6","89","0","2500","56","52"
"082818","12:49:34","48643450","test","2","prime_trump","218","4","43","0","548","56","51"
"082818","12:49:34","48643450","test","2","intention_check","219","4","43","0","2500","56","51"
"082818","12:49:34","48643450","test","2","prime_trump","220","5","68","1","601","56","52"
"082818","12:49:34","48643450","test","2","intention_check","221","5","68","0","2500","56","52"
"082818","12:49:34","48643450","test","2","prime_trump","222","1","29","1","480","56","53"
"082818","12:49:34","48643450","test","2","intention_check","223","1","29","0","2500","56","53"
"082818","12:49:34","48643450","test","2","prime_obama","224","3","72","0","479","55","53"
"082818","12:49:34","48643450","test","2","intention_check","225","3","72","0","2500","55","53"
"082818","12:49:34","48643450","test","2","prime_obama","226","6","9","1","500","55","53"
"082818","12:49:34","48643450","test","2","intention_check","227","6","9","0","2500","55","53"
"082818","12:49:34","48643450","test","2","prime_trump","228","2","77","1","546","55","54"
"082818","12:49:34","48643450","test","2","intention_check","229","2","77","0","2500","55","54"
"082818","12:49:34","48643450","test","2","prime_obama","230","5","39","1","447","56","54"
"082818","12:49:34","48643450","test","2","intention_check","231","5","39","0","2500","56","54"
"082818","12:49:34","48643450","test","2","prime_trump","232","4","94","1","417","56","55"
"082818","12:49:34","48643450","test","2","intention_check","233","4","94","0","2500","56","55"
"082818","12:49:34","48643450","test","2","prime_trump","234","6","76","0","409","56","54"
"082818","12:49:34","48643450","test","2","intention_check","235","6","76","0","2500","56","54"
"082818","12:49:34","48643450","test","2","prime_trump","236","2","28","0","416","56","53"
"082818","12:49:34","48643450","test","2","intention_check","237","2","28","0","2500","56","53"
"082818","12:49:34","48643450","test","2","prime_trump","238","3","51","1","677","56","54"
"082818","12:49:34","48643450","test","2","intention_check","239","3","51","0","2500","56","54"
"082818","12:49:34","48643450","test","2","prime_trump","240","5","49","1","527","56","55"
"082818","12:49:34","48643450","test","2","intention_check","241","5","49","0","2500","56","55"
"date","time","subject","blockcode","blocknum","trialcode","trialnum","values.primestim","values.targetstim","correct","latency","trial.prime_positive.totalpercentcorrect","trial.prime_negative.totalpercentcorrect"
