"date","time","group","subject","build","blocknum","trialnum","blockcode","trialcode","pretrialpause","posttrialpause","windowcenter","trialduration","trialtimeout","blocktimeout","response","correct","latency","inwindow"
"082818","18:11:16","729275041","863380132","4.0.10.0","1","1","end_of_study_questions_ifirst","politics","0","0","0","0","0","0","neither/moderate","1","4315","0"
"082818","18:11:16","729275041","863380132","4.0.10.0","1","2","end_of_study_questions_ifirst","awareness","0","0","0","0","0","0","all","1","8531","0"
"082818","18:11:16","729275041","863380132","4.0.10.0","1","3","end_of_study_questions_ifirst","demand_to","0","0","0","0","0","0","I'm not sure or don't know why I responded the way I did","1","10840","0"
"082818","18:11:16","729275041","863380132","4.0.10.0","1","3","end_of_study_questions_ifirst","demand_pn","0","0","0","0","0","0","I'm not sure or don't know why I responded the way I did","1","10840","0"
"082818","18:11:16","729275041","863380132","4.0.10.0","1","4","end_of_study_questions_ifirst","influence_general_to","0","0","0","0","0","0","less than half","1","5286","0"
"082818","18:11:16","729275041","863380132","4.0.10.0","1","4","end_of_study_questions_ifirst","influence_general_pn","0","0","0","0","0","0","about half","1","5286","0"
"082818","18:11:16","729275041","863380132","4.0.10.0","1","5","end_of_study_questions_ifirst","intentionality_to","0","0","0","0","0","0","about half","1","3267","0"
"082818","18:11:16","729275041","863380132","4.0.10.0","1","5","end_of_study_questions_ifirst","intentionality_pn","0","0","0","0","0","0","about half","1","3267","0"
"082818","18:11:16","729275041","863380132","4.0.10.0","1","6","end_of_study_questions_ifirst","unintentionality_to","0","0","0","0","0","0","less than half","1","5165","0"
"082818","18:11:16","729275041","863380132","4.0.10.0","1","6","end_of_study_questions_ifirst","unintentionality_pn","0","0","0","0","0","0","less than half","1","5165","0"
"082818","18:11:16","729275041","863380132","4.0.10.0","1","7","end_of_study_questions_ifirst","self_exclusion_1","0","0","0","0","0","0","Yes, use my data","1","2710","0"
"082818","18:11:16","729275041","863380132","4.0.10.0","1","7","end_of_study_questions_ifirst","self_exclusion_1other","0","0","0","0","0","0","","1","2710","0"
"082818","12:59:11","63971932","58961423","4.0.10.0","1","1","end_of_study_questions_ufirst","politics","0","0","0","0","0","0","somewhat republican","1","10272","0"
"082818","12:59:11","63971932","58961423","4.0.10.0","1","2","end_of_study_questions_ufirst","awareness","0","0","0","0","0","0","all","1","14556","0"
"082818","12:59:11","63971932","58961423","4.0.10.0","1","3","end_of_study_questions_ufirst","demand_to","0","0","0","0","0","0","My responses were genuinely based on whether I was influenced or not","1","14581","0"
"082818","12:59:11","63971932","58961423","4.0.10.0","1","3","end_of_study_questions_ufirst","demand_pn","0","0","0","0","0","0","My responses were genuinely based on whether I was influenced or not","1","14581","0"
"082818","12:59:11","63971932","58961423","4.0.10.0","1","4","end_of_study_questions_ufirst","influence_general_to","0","0","0","0","0","0","all","1","14235","0"
"082818","12:59:11","63971932","58961423","4.0.10.0","1","4","end_of_study_questions_ufirst","influence_general_pn","0","0","0","0","0","0","all","1","14235","0"
"082818","12:59:11","63971932","58961423","4.0.10.0","1","5","end_of_study_questions_ufirst","unintentionality_to","0","0","0","0","0","0","all","1","13113","0"
"082818","12:59:11","63971932","58961423","4.0.10.0","1","5","end_of_study_questions_ufirst","unintentionality_pn","0","0","0","0","0","0","all","1","13113","0"
"082818","12:59:11","63971932","58961423","4.0.10.0","1","6","end_of_study_questions_ufirst","intentionality_to","0","0","0","0","0","0","none","1","9432","0"
"082818","12:59:11","63971932","58961423","4.0.10.0","1","6","end_of_study_questions_ufirst","intentionality_pn","0","0","0","0","0","0","none","1","9432","0"
"082818","12:59:11","63971932","58961423","4.0.10.0","1","7","end_of_study_questions_ufirst","self_exclusion_1","0","0","0","0","0","0","Yes, use my data","1","4048","0"
"082818","12:59:11","63971932","58961423","4.0.10.0","1","7","end_of_study_questions_ufirst","self_exclusion_1other","0","0","0","0","0","0","","1","4048","0"
"082818","10:02:36","333883636","803829398","4.0.10.0","1","1","end_of_study_questions_ifirst","politics","0","0","0","0","0","0","very republican","1","4067","0"
"082818","10:02:36","333883636","803829398","4.0.10.0","1","2","end_of_study_questions_ifirst","awareness","0","0","0","0","0","0","most","1","11285","0"
"082818","10:02:36","333883636","803829398","4.0.10.0","1","3","end_of_study_questions_ifirst","demand_to","0","0","0","0","0","0","My responses were based on what I thought the researcher wanted me to say","1","10985","0"
"082818","10:02:36","333883636","803829398","4.0.10.0","1","3","end_of_study_questions_ifirst","demand_pn","0","0","0","0","0","0","My responses were based on what I thought the researcher wanted me to say","1","10985","0"
"082818","10:02:36","333883636","803829398","4.0.10.0","1","4","end_of_study_questions_ifirst","influence_general_to","0","0","0","0","0","0","more than half","1","6586","0"
"082818","10:02:36","333883636","803829398","4.0.10.0","1","4","end_of_study_questions_ifirst","influence_general_pn","0","0","0","0","0","0","most","1","6586","0"
"082818","10:02:36","333883636","803829398","4.0.10.0","1","5","end_of_study_questions_ifirst","intentionality_to","0","0","0","0","0","0","more than half","1","3861","0"
"082818","10:02:36","333883636","803829398","4.0.10.0","1","5","end_of_study_questions_ifirst","intentionality_pn","0","0","0","0","0","0","more than half","1","3861","0"
"082818","10:02:36","333883636","803829398","4.0.10.0","1","6","end_of_study_questions_ifirst","unintentionality_to","0","0","0","0","0","0","more than half","1","3588","0"
"082818","10:02:36","333883636","803829398","4.0.10.0","1","6","end_of_study_questions_ifirst","unintentionality_pn","0","0","0","0","0","0","most","1","3588","0"
"082818","10:02:36","333883636","803829398","4.0.10.0","1","7","end_of_study_questions_ifirst","self_exclusion_1","0","0","0","0","0","0","Yes, use my data","1","3238","0"
"082818","10:02:36","333883636","803829398","4.0.10.0","1","7","end_of_study_questions_ifirst","self_exclusion_1other","0","0","0","0","0","0","","1","3238","0"
"082818","13:10:11","141653524","48643450","4.0.10.0","1","1","end_of_study_questions_ifirst","politics","0","0","0","0","0","0","somewhat republican","1","10042","0"
"082818","13:10:11","141653524","48643450","4.0.10.0","1","2","end_of_study_questions_ifirst","awareness","0","0","0","0","0","0","about half","1","24386","0"
"082818","13:10:11","141653524","48643450","4.0.10.0","1","3","end_of_study_questions_ifirst","demand_to","0","0","0","0","0","0","My responses were genuinely based on whether I was influenced or not","1","26927","0"
"082818","13:10:11","141653524","48643450","4.0.10.0","1","3","end_of_study_questions_ifirst","demand_pn","0","0","0","0","0","0","My responses were genuinely based on whether I was influenced or not","1","26927","0"
"082818","13:10:11","141653524","48643450","4.0.10.0","1","4","end_of_study_questions_ifirst","influence_general_to","0","0","0","0","0","0","none","1","21564","0"
"082818","13:10:11","141653524","48643450","4.0.10.0","1","4","end_of_study_questions_ifirst","influence_general_pn","0","0","0","0","0","0","none","1","21564","0"
"082818","13:10:11","141653524","48643450","4.0.10.0","1","5","end_of_study_questions_ifirst","intentionality_to","0","0","0","0","0","0","none","1","6862","0"
"082818","13:10:11","141653524","48643450","4.0.10.0","1","5","end_of_study_questions_ifirst","intentionality_pn","0","0","0","0","0","0","none","1","6862","0"
"082818","13:10:11","141653524","48643450","4.0.10.0","1","6","end_of_study_questions_ifirst","unintentionality_to","0","0","0","0","0","0","I don't know","1","12644","0"
"082818","13:10:11","141653524","48643450","4.0.10.0","1","6","end_of_study_questions_ifirst","unintentionality_pn","0","0","0","0","0","0","I don't know","1","12644","0"
"082818","13:10:11","141653524","48643450","4.0.10.0","1","7","end_of_study_questions_ifirst","self_exclusion_1","0","0","0","0","0","0","Yes, use my data","1","11639","0"
"082818","13:10:11","141653524","48643450","4.0.10.0","1","7","end_of_study_questions_ifirst","self_exclusion_1other","0","0","0","0","0","0","","1","11639","0"
"082818","12:20:46","347295783","122476071","4.0.10.0","1","1","end_of_study_questions_ufirst","politics","0","0","0","0","0","0","somewhat republican","1","8395","0"
"082818","12:20:46","347295783","122476071","4.0.10.0","1","2","end_of_study_questions_ufirst","awareness","0","0","0","0","0","0","all","1","19044","0"
"082818","12:20:46","347295783","122476071","4.0.10.0","1","3","end_of_study_questions_ufirst","demand_to","0","0","0","0","0","0","My responses were genuinely based on whether I was influenced or not","1","15788","0"
"082818","12:20:46","347295783","122476071","4.0.10.0","1","3","end_of_study_questions_ufirst","demand_pn","0","0","0","0","0","0","My responses were genuinely based on whether I was influenced or not","1","15788","0"
"082818","12:20:46","347295783","122476071","4.0.10.0","1","4","end_of_study_questions_ufirst","influence_general_to","0","0","0","0","0","0","about half","1","31444","0"
"082818","12:20:46","347295783","122476071","4.0.10.0","1","4","end_of_study_questions_ufirst","influence_general_pn","0","0","0","0","0","0","most","1","31444","0"
"082818","12:20:46","347295783","122476071","4.0.10.0","1","5","end_of_study_questions_ufirst","unintentionality_to","0","0","0","0","0","0","a few","1","18863","0"
"082818","12:20:46","347295783","122476071","4.0.10.0","1","5","end_of_study_questions_ufirst","unintentionality_pn","0","0","0","0","0","0","most","1","18863","0"
"082818","12:20:46","347295783","122476071","4.0.10.0","1","6","end_of_study_questions_ufirst","intentionality_to","0","0","0","0","0","0","a few","1","26778","0"
"082818","12:20:46","347295783","122476071","4.0.10.0","1","6","end_of_study_questions_ufirst","intentionality_pn","0","0","0","0","0","0","most","1","26778","0"
"082818","12:20:46","347295783","122476071","4.0.10.0","1","7","end_of_study_questions_ufirst","self_exclusion_1","0","0","0","0","0","0","Yes, use my data","1","6377","0"
"082818","12:20:46","347295783","122476071","4.0.10.0","1","7","end_of_study_questions_ufirst","self_exclusion_1other","0","0","0","0","0","0","","1","6377","0"
"082818","13:31:44","10572801","468621741","4.0.10.0","1","1","end_of_study_questions_ufirst","politics","0","0","0","0","0","0","a little republican","1","4178","0"
"082818","13:31:44","10572801","468621741","4.0.10.0","1","2","end_of_study_questions_ufirst","awareness","0","0","0","0","0","0","all","1","14921","0"
"082818","13:31:44","10572801","468621741","4.0.10.0","1","3","end_of_study_questions_ufirst","demand_to","0","0","0","0","0","0","My responses were genuinely based on whether I was influenced or not","1","11908","0"
"082818","13:31:44","10572801","468621741","4.0.10.0","1","3","end_of_study_questions_ufirst","demand_pn","0","0","0","0","0","0","My responses were genuinely based on whether I was influenced or not","1","11908","0"
"082818","13:31:44","10572801","468621741","4.0.10.0","1","4","end_of_study_questions_ufirst","influence_general_to","0","0","0","0","0","0","all","1","13682","0"
"082818","13:31:44","10572801","468621741","4.0.10.0","1","4","end_of_study_questions_ufirst","influence_general_pn","0","0","0","0","0","0","all","1","13682","0"
"082818","13:31:44","10572801","468621741","4.0.10.0","1","5","end_of_study_questions_ufirst","unintentionality_to","0","0","0","0","0","0","a few","1","13158","0"
"082818","13:31:44","10572801","468621741","4.0.10.0","1","5","end_of_study_questions_ufirst","unintentionality_pn","0","0","0","0","0","0","a few","1","13158","0"
"082818","13:31:44","10572801","468621741","4.0.10.0","1","6","end_of_study_questions_ufirst","intentionality_to","0","0","0","0","0","0","most","1","7947","0"
"082818","13:31:44","10572801","468621741","4.0.10.0","1","6","end_of_study_questions_ufirst","intentionality_pn","0","0","0","0","0","0","most","1","7947","0"
"082818","13:31:44","10572801","468621741","4.0.10.0","1","7","end_of_study_questions_ufirst","self_exclusion_1","0","0","0","0","0","0","Yes, use my data","1","4463","0"
"082818","13:31:44","10572801","468621741","4.0.10.0","1","7","end_of_study_questions_ufirst","self_exclusion_1other","0","0","0","0","0","0","","1","4463","0"
"082818","12:32:39","814898530","141407692","4.0.10.0","1","1","end_of_study_questions_ifirst","politics","0","0","0","0","0","0","somewhat republican","1","4408","0"
"082818","12:32:39","814898530","141407692","4.0.10.0","1","2","end_of_study_questions_ifirst","awareness","0","0","0","0","0","0","all","1","12854","0"
"082818","12:32:39","814898530","141407692","4.0.10.0","1","3","end_of_study_questions_ifirst","demand_to","0","0","0","0","0","0","My responses were genuinely based on whether I was influenced or not","1","13866","0"
"082818","12:32:39","814898530","141407692","4.0.10.0","1","3","end_of_study_questions_ifirst","demand_pn","0","0","0","0","0","0","My responses were genuinely based on whether I was influenced or not","1","13866","0"
"082818","12:32:39","814898530","141407692","4.0.10.0","1","4","end_of_study_questions_ifirst","influence_general_to","0","0","0","0","0","0","none","1","12116","0"
"082818","12:32:39","814898530","141407692","4.0.10.0","1","4","end_of_study_questions_ifirst","influence_general_pn","0","0","0","0","0","0","none","1","12116","0"
"082818","12:32:39","814898530","141407692","4.0.10.0","1","5","end_of_study_questions_ifirst","intentionality_to","0","0","0","0","0","0","none","1","12742","0"
"082818","12:32:39","814898530","141407692","4.0.10.0","1","5","end_of_study_questions_ifirst","intentionality_pn","0","0","0","0","0","0","none","1","12742","0"
"082818","12:32:39","814898530","141407692","4.0.10.0","1","6","end_of_study_questions_ifirst","unintentionality_to","0","0","0","0","0","0","none","1","6326","0"
"082818","12:32:39","814898530","141407692","4.0.10.0","1","6","end_of_study_questions_ifirst","unintentionality_pn","0","0","0","0","0","0","none","1","6326","0"
"082818","12:32:39","814898530","141407692","4.0.10.0","1","7","end_of_study_questions_ifirst","self_exclusion_1","0","0","0","0","0","0","Yes, use my data","1","6455","0"
"082818","12:32:39","814898530","141407692","4.0.10.0","1","7","end_of_study_questions_ifirst","self_exclusion_1other","0","0","0","0","0","0","","1","6455","0"
"082818","12:36:18","561803470","136503812","4.0.10.0","1","1","end_of_study_questions_ifirst","politics","0","0","0","0","0","0","very republican","1","6727","0"
"082818","12:36:18","561803470","136503812","4.0.10.0","1","2","end_of_study_questions_ifirst","awareness","0","0","0","0","0","0","all","1","14779","0"
"082818","12:36:18","561803470","136503812","4.0.10.0","1","3","end_of_study_questions_ifirst","demand_to","0","0","0","0","0","0","My responses were genuinely based on whether I was influenced or not","1","12388","0"
"082818","12:36:18","561803470","136503812","4.0.10.0","1","3","end_of_study_questions_ifirst","demand_pn","0","0","0","0","0","0","My responses were genuinely based on whether I was influenced or not","1","12388","0"
"082818","12:36:18","561803470","136503812","4.0.10.0","1","4","end_of_study_questions_ifirst","influence_general_to","0","0","0","0","0","0","more than half","1","11665","0"
"082818","12:36:18","561803470","136503812","4.0.10.0","1","4","end_of_study_questions_ifirst","influence_general_pn","0","0","0","0","0","0","more than half","1","11665","0"
"082818","12:36:18","561803470","136503812","4.0.10.0","1","5","end_of_study_questions_ifirst","intentionality_to","0","0","0","0","0","0","less than half","1","17175","0"
"082818","12:36:18","561803470","136503812","4.0.10.0","1","5","end_of_study_questions_ifirst","intentionality_pn","0","0","0","0","0","0","less than half","1","17175","0"
"082818","12:36:18","561803470","136503812","4.0.10.0","1","6","end_of_study_questions_ifirst","unintentionality_to","0","0","0","0","0","0","more than half","1","10703","0"
"082818","12:36:18","561803470","136503812","4.0.10.0","1","6","end_of_study_questions_ifirst","unintentionality_pn","0","0","0","0","0","0","more than half","1","10703","0"
"082818","12:36:18","561803470","136503812","4.0.10.0","1","7","end_of_study_questions_ifirst","self_exclusion_1","0","0","0","0","0","0","Yes, use my data","1","7986","0"
"082818","12:36:18","561803470","136503812","4.0.10.0","1","7","end_of_study_questions_ifirst","self_exclusion_1other","0","0","0","0","0","0","","1","7986","0"
"082818","13:33:46","46326420","58631734","4.0.10.0","1","1","end_of_study_questions_ifirst","politics","0","0","0","0","0","0","very republican","1","6656","0"
"082818","13:33:46","46326420","58631734","4.0.10.0","1","2","end_of_study_questions_ifirst","awareness","0","0","0","0","0","0","all","1","21010","0"
"082818","13:33:46","46326420","58631734","4.0.10.0","1","3","end_of_study_questions_ifirst","demand_to","0","0","0","0","0","0","My responses were genuinely based on whether I was influenced or not","1","21746","0"
"082818","13:33:46","46326420","58631734","4.0.10.0","1","3","end_of_study_questions_ifirst","demand_pn","0","0","0","0","0","0","My responses were genuinely based on whether I was influenced or not","1","21746","0"
"082818","13:33:46","46326420","58631734","4.0.10.0","1","4","end_of_study_questions_ifirst","influence_general_to","0","0","0","0","0","0","all","1","11471","0"
"082818","13:33:46","46326420","58631734","4.0.10.0","1","4","end_of_study_questions_ifirst","influence_general_pn","0","0","0","0","0","0","all","1","11471","0"
"082818","13:33:46","46326420","58631734","4.0.10.0","1","5","end_of_study_questions_ifirst","intentionality_to","0","0","0","0","0","0","all","1","10396","0"
"082818","13:33:46","46326420","58631734","4.0.10.0","1","5","end_of_study_questions_ifirst","intentionality_pn","0","0","0","0","0","0","all","1","10396","0"
"082818","13:33:46","46326420","58631734","4.0.10.0","1","6","end_of_study_questions_ifirst","unintentionality_to","0","0","0","0","0","0","none","1","18594","0"
"082818","13:33:46","46326420","58631734","4.0.10.0","1","6","end_of_study_questions_ifirst","unintentionality_pn","0","0","0","0","0","0","none","1","18594","0"
"082818","13:33:46","46326420","58631734","4.0.10.0","1","7","end_of_study_questions_ifirst","self_exclusion_1","0","0","0","0","0","0","Yes, use my data","1","4549","0"
"082818","13:33:46","46326420","58631734","4.0.10.0","1","7","end_of_study_questions_ifirst","self_exclusion_1other","0","0","0","0","0","0","","1","4549","0"
"082818","12:38:16","3515127","199705276","4.0.10.0","1","1","end_of_study_questions_ifirst","politics","0","0","0","0","0","0","neither/moderate","1","4283","0"
"082818","12:38:16","3515127","199705276","4.0.10.0","1","2","end_of_study_questions_ifirst","awareness","0","0","0","0","0","0","all","1","16702","0"
"082818","12:38:16","3515127","199705276","4.0.10.0","1","3","end_of_study_questions_ifirst","demand_to","0","0","0","0","0","0","My responses were genuinely based on whether I was influenced or not","1","14245","0"
"082818","12:38:16","3515127","199705276","4.0.10.0","1","3","end_of_study_questions_ifirst","demand_pn","0","0","0","0","0","0","My responses were genuinely based on whether I was influenced or not","1","14245","0"
"082818","12:38:16","3515127","199705276","4.0.10.0","1","4","end_of_study_questions_ifirst","influence_general_to","0","0","0","0","0","0","none","1","16301","0"
"082818","12:38:16","3515127","199705276","4.0.10.0","1","4","end_of_study_questions_ifirst","influence_general_pn","0","0","0","0","0","0","none","1","16301","0"
"082818","12:38:16","3515127","199705276","4.0.10.0","1","5","end_of_study_questions_ifirst","intentionality_to","0","0","0","0","0","0","none","1","13507","0"
"082818","12:38:16","3515127","199705276","4.0.10.0","1","5","end_of_study_questions_ifirst","intentionality_pn","0","0","0","0","0","0","none","1","13507","0"
"082818","12:38:16","3515127","199705276","4.0.10.0","1","6","end_of_study_questions_ifirst","unintentionality_to","0","0","0","0","0","0","I don't know","1","16145","0"
"082818","12:38:16","3515127","199705276","4.0.10.0","1","6","end_of_study_questions_ifirst","unintentionality_pn","0","0","0","0","0","0","I don't know","1","16145","0"
"082818","12:38:16","3515127","199705276","4.0.10.0","1","7","end_of_study_questions_ifirst","self_exclusion_1","0","0","0","0","0","0","Yes, use my data","1","5037","0"
"082818","12:38:16","3515127","199705276","4.0.10.0","1","7","end_of_study_questions_ifirst","self_exclusion_1other","0","0","0","0","0","0","","1","5037","0"
"082818","12:41:38","364942892","960847539","4.0.10.0","1","1","end_of_study_questions_ufirst","politics","0","0","0","0","0","0","neither/moderate","1","4160","0"
"082818","12:41:38","364942892","960847539","4.0.10.0","1","2","end_of_study_questions_ufirst","awareness","0","0","0","0","0","0","all","1","14240","0"
"082818","12:41:38","364942892","960847539","4.0.10.0","1","3","end_of_study_questions_ufirst","demand_to","0","0","0","0","0","0","My responses were genuinely based on whether I was influenced or not","1","13400","0"
"082818","12:41:38","364942892","960847539","4.0.10.0","1","3","end_of_study_questions_ufirst","demand_pn","0","0","0","0","0","0","My responses were genuinely based on whether I was influenced or not","1","13400","0"
"082818","12:41:38","364942892","960847539","4.0.10.0","1","4","end_of_study_questions_ufirst","influence_general_to","0","0","0","0","0","0","more than half","1","12458","0"
"082818","12:41:38","364942892","960847539","4.0.10.0","1","4","end_of_study_questions_ufirst","influence_general_pn","0","0","0","0","0","0","less than half","1","12458","0"
"082818","12:41:38","364942892","960847539","4.0.10.0","1","5","end_of_study_questions_ufirst","unintentionality_to","0","0","0","0","0","0","a few","1","13780","0"
"082818","12:41:38","364942892","960847539","4.0.10.0","1","5","end_of_study_questions_ufirst","unintentionality_pn","0","0","0","0","0","0","about half","1","13780","0"
"082818","12:41:38","364942892","960847539","4.0.10.0","1","6","end_of_study_questions_ufirst","intentionality_to","0","0","0","0","0","0","about half","1","16579","0"
"082818","12:41:38","364942892","960847539","4.0.10.0","1","6","end_of_study_questions_ufirst","intentionality_pn","0","0","0","0","0","0","more than half","1","16579","0"
"082818","12:41:38","364942892","960847539","4.0.10.0","1","7","end_of_study_questions_ufirst","self_exclusion_1","0","0","0","0","0","0","Yes, use my data","1","7429","0"
"082818","12:41:38","364942892","960847539","4.0.10.0","1","7","end_of_study_questions_ufirst","self_exclusion_1other","0","0","0","0","0","0","","1","7429","0"
"082818","12:43:06","230426663","678594275","4.0.10.0","1","1","end_of_study_questions_ufirst","politics","0","0","0","0","0","0","a little republican","1","4803","0"
"082818","12:43:06","230426663","678594275","4.0.10.0","1","2","end_of_study_questions_ufirst","awareness","0","0","0","0","0","0","all","1","13024","0"
"082818","12:43:06","230426663","678594275","4.0.10.0","1","3","end_of_study_questions_ufirst","demand_to","0","0","0","0","0","0","My responses were genuinely based on whether I was influenced or not","1","11922","0"
"082818","12:43:06","230426663","678594275","4.0.10.0","1","3","end_of_study_questions_ufirst","demand_pn","0","0","0","0","0","0","My responses were genuinely based on whether I was influenced or not","1","11922","0"
"082818","12:43:06","230426663","678594275","4.0.10.0","1","4","end_of_study_questions_ufirst","influence_general_to","0","0","0","0","0","0","all","1","8798","0"
"082818","12:43:06","230426663","678594275","4.0.10.0","1","4","end_of_study_questions_ufirst","influence_general_pn","0","0","0","0","0","0","all","1","8798","0"
"082818","12:43:06","230426663","678594275","4.0.10.0","1","5","end_of_study_questions_ufirst","unintentionality_to","0","0","0","0","0","0","all","1","9466","0"
"082818","12:43:06","230426663","678594275","4.0.10.0","1","5","end_of_study_questions_ufirst","unintentionality_pn","0","0","0","0","0","0","all","1","9466","0"
"082818","12:43:06","230426663","678594275","4.0.10.0","1","6","end_of_study_questions_ufirst","intentionality_to","0","0","0","0","0","0","all","1","6397","0"
"082818","12:43:06","230426663","678594275","4.0.10.0","1","6","end_of_study_questions_ufirst","intentionality_pn","0","0","0","0","0","0","all","1","6397","0"
"082818","12:43:06","230426663","678594275","4.0.10.0","1","7","end_of_study_questions_ufirst","self_exclusion_1","0","0","0","0","0","0","Yes, use my data","1","7536","0"
"082818","12:43:06","230426663","678594275","4.0.10.0","1","7","end_of_study_questions_ufirst","self_exclusion_1other","0","0","0","0","0","0","","1","7536","0"
"082818","12:42:36","411008671","829080241","4.0.10.0","1","1","end_of_study_questions_ufirst","politics","0","0","0","0","0","0","very republican","1","5395","0"
"082818","12:42:36","411008671","829080241","4.0.10.0","1","2","end_of_study_questions_ufirst","awareness","0","0","0","0","0","0","all","1","16188","0"
"082818","12:42:36","411008671","829080241","4.0.10.0","1","3","end_of_study_questions_ufirst","demand_to","0","0","0","0","0","0","My responses were genuinely based on whether I was influenced or not","1","23861","0"
"082818","12:42:36","411008671","829080241","4.0.10.0","1","3","end_of_study_questions_ufirst","demand_pn","0","0","0","0","0","0","My responses were genuinely based on whether I was influenced or not","1","23861","0"
"082818","12:42:36","411008671","829080241","4.0.10.0","1","4","end_of_study_questions_ufirst","influence_general_to","0","0","0","0","0","0","a few","1","21689","0"
"082818","12:42:36","411008671","829080241","4.0.10.0","1","4","end_of_study_questions_ufirst","influence_general_pn","0","0","0","0","0","0","less than half","1","21689","0"
"082818","12:42:36","411008671","829080241","4.0.10.0","1","5","end_of_study_questions_ufirst","unintentionality_to","0","0","0","0","0","0","less than half","1","14889","0"
"082818","12:42:36","411008671","829080241","4.0.10.0","1","5","end_of_study_questions_ufirst","unintentionality_pn","0","0","0","0","0","0","less than half","1","14889","0"
"082818","12:42:36","411008671","829080241","4.0.10.0","1","6","end_of_study_questions_ufirst","intentionality_to","0","0","0","0","0","0","none","1","17510","0"
"082818","12:42:36","411008671","829080241","4.0.10.0","1","6","end_of_study_questions_ufirst","intentionality_pn","0","0","0","0","0","0","none","1","17510","0"
"082818","12:42:36","411008671","829080241","4.0.10.0","1","7","end_of_study_questions_ufirst","self_exclusion_1","0","0","0","0","0","0","Yes, use my data","1","11634","0"
"082818","12:42:36","411008671","829080241","4.0.10.0","1","7","end_of_study_questions_ufirst","self_exclusion_1other","0","0","0","0","0","0","","1","11634","0"
"082818","12:43:50","709755324","840563115","4.0.10.0","1","1","end_of_study_questions_ufirst","politics","0","0","0","0","0","0","somewhat republican","1","4170","0"
"082818","12:43:50","709755324","840563115","4.0.10.0","1","2","end_of_study_questions_ufirst","awareness","0","0","0","0","0","0","all","1","7270","0"
"082818","12:43:50","709755324","840563115","4.0.10.0","1","3","end_of_study_questions_ufirst","demand_to","0","0","0","0","0","0","My responses were genuinely based on whether I was influenced or not","1","10336","0"
"082818","12:43:50","709755324","840563115","4.0.10.0","1","3","end_of_study_questions_ufirst","demand_pn","0","0","0","0","0","0","My responses were genuinely based on whether I was influenced or not","1","10336","0"
"082818","12:43:50","709755324","840563115","4.0.10.0","1","4","end_of_study_questions_ufirst","influence_general_to","0","0","0","0","0","0","more than half","1","11385","0"
"082818","12:43:50","709755324","840563115","4.0.10.0","1","4","end_of_study_questions_ufirst","influence_general_pn","0","0","0","0","0","0","about half","1","11385","0"
"082818","12:43:50","709755324","840563115","4.0.10.0","1","5","end_of_study_questions_ufirst","unintentionality_to","0","0","0","0","0","0","a few","1","10737","0"
"082818","12:43:50","709755324","840563115","4.0.10.0","1","5","end_of_study_questions_ufirst","unintentionality_pn","0","0","0","0","0","0","a few","1","10737","0"
"082818","12:43:50","709755324","840563115","4.0.10.0","1","6","end_of_study_questions_ufirst","intentionality_to","0","0","0","0","0","0","less than half","1","7969","0"
"082818","12:43:50","709755324","840563115","4.0.10.0","1","6","end_of_study_questions_ufirst","intentionality_pn","0","0","0","0","0","0","more than half","1","7969","0"
"082818","12:43:50","709755324","840563115","4.0.10.0","1","7","end_of_study_questions_ufirst","self_exclusion_1","0","0","0","0","0","0","Yes, use my data","1","3019","0"
"082818","12:43:50","709755324","840563115","4.0.10.0","1","7","end_of_study_questions_ufirst","self_exclusion_1other","0","0","0","0","0","0","","1","3019","0"
"082818","13:51:11","516045379","290995517","4.0.10.0","1","1","end_of_study_questions_ufirst","politics","0","0","0","0","0","0","somewhat republican","1","6231","0"
"082818","13:51:11","516045379","290995517","4.0.10.0","1","2","end_of_study_questions_ufirst","awareness","0","0","0","0","0","0","most","1","14745","0"
"082818","13:51:11","516045379","290995517","4.0.10.0","1","3","end_of_study_questions_ufirst","demand_to","0","0","0","0","0","0","My responses were based on what I thought the researcher wanted me to say","1","10115","0"
"082818","13:51:11","516045379","290995517","4.0.10.0","1","3","end_of_study_questions_ufirst","demand_pn","0","0","0","0","0","0","My responses were based on what I thought the researcher wanted me to say","1","10115","0"
"082818","13:51:11","516045379","290995517","4.0.10.0","1","4","end_of_study_questions_ufirst","influence_general_to","0","0","0","0","0","0","none","1","23508","0"
"082818","13:51:11","516045379","290995517","4.0.10.0","1","4","end_of_study_questions_ufirst","influence_general_pn","0","0","0","0","0","0","a few","1","23508","0"
"082818","13:51:11","516045379","290995517","4.0.10.0","1","5","end_of_study_questions_ufirst","unintentionality_to","0","0","0","0","0","0","a few","1","11304","0"
"082818","13:51:11","516045379","290995517","4.0.10.0","1","5","end_of_study_questions_ufirst","unintentionality_pn","0","0","0","0","0","0","a few","1","11304","0"
"082818","13:51:11","516045379","290995517","4.0.10.0","1","6","end_of_study_questions_ufirst","intentionality_to","0","0","0","0","0","0","none","1","7673","0"
"082818","13:51:11","516045379","290995517","4.0.10.0","1","6","end_of_study_questions_ufirst","intentionality_pn","0","0","0","0","0","0","none","1","7673","0"
"082818","13:51:11","516045379","290995517","4.0.10.0","1","7","end_of_study_questions_ufirst","self_exclusion_1","0","0","0","0","0","0","Yes, use my data","1","3960","0"
"082818","13:51:11","516045379","290995517","4.0.10.0","1","7","end_of_study_questions_ufirst","self_exclusion_1other","0","0","0","0","0","0","","1","3960","0"
"082818","12:51:26","631060507","345009448","4.0.10.0","1","1","end_of_study_questions_ifirst","politics","0","0","0","0","0","0","very republican","1","8407","0"
"082818","12:51:26","631060507","345009448","4.0.10.0","1","2","end_of_study_questions_ifirst","awareness","0","0","0","0","0","0","most","1","20063","0"
"082818","12:51:26","631060507","345009448","4.0.10.0","1","3","end_of_study_questions_ifirst","demand_to","0","0","0","0","0","0","I'm not sure or don't know why I responded the way I did","1","26198","0"
"082818","12:51:26","631060507","345009448","4.0.10.0","1","3","end_of_study_questions_ifirst","demand_pn","0","0","0","0","0","0","I'm not sure or don't know why I responded the way I did","1","26198","0"
"082818","12:51:26","631060507","345009448","4.0.10.0","1","4","end_of_study_questions_ifirst","influence_general_to","0","0","0","0","0","0","most","1","13568","0"
"082818","12:51:26","631060507","345009448","4.0.10.0","1","4","end_of_study_questions_ifirst","influence_general_pn","0","0","0","0","0","0","most","1","13568","0"
"082818","12:51:26","631060507","345009448","4.0.10.0","1","5","end_of_study_questions_ifirst","intentionality_to","0","0","0","0","0","0","most","1","7673","0"
"082818","12:51:26","631060507","345009448","4.0.10.0","1","5","end_of_study_questions_ifirst","intentionality_pn","0","0","0","0","0","0","most","1","7673","0"
"082818","12:51:26","631060507","345009448","4.0.10.0","1","6","end_of_study_questions_ifirst","unintentionality_to","0","0","0","0","0","0","I don't know","1","11390","0"
"082818","12:51:26","631060507","345009448","4.0.10.0","1","6","end_of_study_questions_ifirst","unintentionality_pn","0","0","0","0","0","0","I don't know","1","11390","0"
"082818","12:51:26","631060507","345009448","4.0.10.0","1","7","end_of_study_questions_ifirst","self_exclusion_1","0","0","0","0","0","0","Yes, use my data","1","4603","0"
"082818","12:51:26","631060507","345009448","4.0.10.0","1","7","end_of_study_questions_ifirst","self_exclusion_1other","0","0","0","0","0","0","","1","4603","0"
"082818","12:51:05","713664394","719571174","4.0.10.0","1","1","end_of_study_questions_ifirst","politics","0","0","0","0","0","0","a little republican","1","4723","0"
"082818","12:51:05","713664394","719571174","4.0.10.0","1","2","end_of_study_questions_ifirst","awareness","0","0","0","0","0","0","more than half","1","12992","0"
"082818","12:51:05","713664394","719571174","4.0.10.0","1","3","end_of_study_questions_ifirst","demand_to","0","0","0","0","0","0","My responses were genuinely based on whether I was influenced or not","1","15270","0"
"082818","12:51:05","713664394","719571174","4.0.10.0","1","3","end_of_study_questions_ifirst","demand_pn","0","0","0","0","0","0","My responses were genuinely based on whether I was influenced or not","1","15270","0"
"082818","12:51:05","713664394","719571174","4.0.10.0","1","4","end_of_study_questions_ifirst","influence_general_to","0","0","0","0","0","0","more than half","1","8761","0"
"082818","12:51:05","713664394","719571174","4.0.10.0","1","4","end_of_study_questions_ifirst","influence_general_pn","0","0","0","0","0","0","less than half","1","8761","0"
"082818","12:51:05","713664394","719571174","4.0.10.0","1","5","end_of_study_questions_ifirst","intentionality_to","0","0","0","0","0","0","about half","1","8076","0"
"082818","12:51:05","713664394","719571174","4.0.10.0","1","5","end_of_study_questions_ifirst","intentionality_pn","0","0","0","0","0","0","more than half","1","8076","0"
"082818","12:51:05","713664394","719571174","4.0.10.0","1","6","end_of_study_questions_ifirst","unintentionality_to","0","0","0","0","0","0","more than half","1","64892","0"
"082818","12:51:05","713664394","719571174","4.0.10.0","1","6","end_of_study_questions_ifirst","unintentionality_pn","0","0","0","0","0","0","more than half","1","64892","0"
"082818","12:51:05","713664394","719571174","4.0.10.0","1","7","end_of_study_questions_ifirst","self_exclusion_1","0","0","0","0","0","0","Yes, use my data","1","10010","0"
"082818","12:51:05","713664394","719571174","4.0.10.0","1","7","end_of_study_questions_ifirst","self_exclusion_1other","0","0","0","0","0","0","","1","10010","0"
"082818","13:52:54","949276054","291388048","4.0.10.0","1","1","end_of_study_questions_ifirst","politics","0","0","0","0","0","0","somewhat republican","1","7198","0"
"082818","13:52:54","949276054","291388048","4.0.10.0","1","2","end_of_study_questions_ifirst","awareness","0","0","0","0","0","0","all","1","17297","0"
"082818","13:52:54","949276054","291388048","4.0.10.0","1","3","end_of_study_questions_ifirst","demand_to","0","0","0","0","0","0","My responses were genuinely based on whether I was influenced or not","1","23348","0"
"082818","13:52:54","949276054","291388048","4.0.10.0","1","3","end_of_study_questions_ifirst","demand_pn","0","0","0","0","0","0","My responses were genuinely based on whether I was influenced or not","1","23348","0"
"082818","13:52:54","949276054","291388048","4.0.10.0","1","4","end_of_study_questions_ifirst","influence_general_to","0","0","0","0","0","0","most","1","10722","0"
"082818","13:52:54","949276054","291388048","4.0.10.0","1","4","end_of_study_questions_ifirst","influence_general_pn","0","0","0","0","0","0","more than half","1","10722","0"
"082818","13:52:54","949276054","291388048","4.0.10.0","1","5","end_of_study_questions_ifirst","intentionality_to","0","0","0","0","0","0","a few","1","16511","0"
"082818","13:52:54","949276054","291388048","4.0.10.0","1","5","end_of_study_questions_ifirst","intentionality_pn","0","0","0","0","0","0","less than half","1","16511","0"
"082818","13:52:54","949276054","291388048","4.0.10.0","1","6","end_of_study_questions_ifirst","unintentionality_to","0","0","0","0","0","0","a few","1","16530","0"
"082818","13:52:54","949276054","291388048","4.0.10.0","1","6","end_of_study_questions_ifirst","unintentionality_pn","0","0","0","0","0","0","a few","1","16530","0"
"082818","13:52:54","949276054","291388048","4.0.10.0","1","7","end_of_study_questions_ifirst","self_exclusion_1","0","0","0","0","0","0","Yes, use my data","1","6948","0"
"082818","13:52:54","949276054","291388048","4.0.10.0","1","7","end_of_study_questions_ifirst","self_exclusion_1other","0","0","0","0","0","0","","1","6948","0"
"082818","13:54:04","454706905","883222069","4.0.10.0","1","1","end_of_study_questions_ufirst","politics","0","0","0","0","0","0","very republican","1","9199","0"
"082818","13:54:04","454706905","883222069","4.0.10.0","1","2","end_of_study_questions_ufirst","awareness","0","0","0","0","0","0","all","1","10762","0"
"082818","13:54:04","454706905","883222069","4.0.10.0","1","3","end_of_study_questions_ufirst","demand_to","0","0","0","0","0","0","My responses were genuinely based on whether I was influenced or not","1","16834","0"
"082818","13:54:04","454706905","883222069","4.0.10.0","1","3","end_of_study_questions_ufirst","demand_pn","0","0","0","0","0","0","My responses were genuinely based on whether I was influenced or not","1","16834","0"
"082818","13:54:04","454706905","883222069","4.0.10.0","1","4","end_of_study_questions_ufirst","influence_general_to","0","0","0","0","0","0","all","1","10678","0"
"082818","13:54:04","454706905","883222069","4.0.10.0","1","4","end_of_study_questions_ufirst","influence_general_pn","0","0","0","0","0","0","all","1","10678","0"
"082818","13:54:04","454706905","883222069","4.0.10.0","1","5","end_of_study_questions_ufirst","unintentionality_to","0","0","0","0","0","0","more than half","1","9698","0"
"082818","13:54:04","454706905","883222069","4.0.10.0","1","5","end_of_study_questions_ufirst","unintentionality_pn","0","0","0","0","0","0","all","1","9698","0"
"082818","13:54:04","454706905","883222069","4.0.10.0","1","6","end_of_study_questions_ufirst","intentionality_to","0","0","0","0","0","0","about half","1","9280","0"
"082818","13:54:04","454706905","883222069","4.0.10.0","1","6","end_of_study_questions_ufirst","intentionality_pn","0","0","0","0","0","0","all","1","9280","0"
"082818","13:54:04","454706905","883222069","4.0.10.0","1","7","end_of_study_questions_ufirst","self_exclusion_1","0","0","0","0","0","0","Yes, use my data","1","3439","0"
"082818","13:54:04","454706905","883222069","4.0.10.0","1","7","end_of_study_questions_ufirst","self_exclusion_1other","0","0","0","0","0","0","","1","3439","0"
"082818","10:53:52","10660170","237293830","4.0.10.0","1","1","end_of_study_questions_ifirst","politics","0","0","0","0","0","0","a little republican","1","4181","0"
"082818","10:53:52","10660170","237293830","4.0.10.0","1","2","end_of_study_questions_ifirst","awareness","0","0","0","0","0","0","all","1","13648","0"
"082818","10:53:52","10660170","237293830","4.0.10.0","1","3","end_of_study_questions_ifirst","demand_to","0","0","0","0","0","0","My responses were genuinely based on whether I was influenced or not","1","14065","0"
"082818","10:53:52","10660170","237293830","4.0.10.0","1","3","end_of_study_questions_ifirst","demand_pn","0","0","0","0","0","0","My responses were genuinely based on whether I was influenced or not","1","14065","0"
"082818","10:53:52","10660170","237293830","4.0.10.0","1","4","end_of_study_questions_ifirst","influence_general_to","0","0","0","0","0","0","a few","1","25296","0"
"082818","10:53:52","10660170","237293830","4.0.10.0","1","4","end_of_study_questions_ifirst","influence_general_pn","0","0","0","0","0","0","a few","1","25296","0"
"082818","10:53:52","10660170","237293830","4.0.10.0","1","5","end_of_study_questions_ifirst","intentionality_to","0","0","0","0","0","0","a few","1","13358","0"
"082818","10:53:52","10660170","237293830","4.0.10.0","1","5","end_of_study_questions_ifirst","intentionality_pn","0","0","0","0","0","0","a few","1","13358","0"
"082818","10:53:52","10660170","237293830","4.0.10.0","1","6","end_of_study_questions_ifirst","unintentionality_to","0","0","0","0","0","0","I don't know","1","8545","0"
"082818","10:53:52","10660170","237293830","4.0.10.0","1","6","end_of_study_questions_ifirst","unintentionality_pn","0","0","0","0","0","0","I don't know","1","8545","0"
"082818","10:53:52","10660170","237293830","4.0.10.0","1","7","end_of_study_questions_ifirst","self_exclusion_1","0","0","0","0","0","0","Yes, use my data","1","3328","0"
"082818","10:53:52","10660170","237293830","4.0.10.0","1","7","end_of_study_questions_ifirst","self_exclusion_1other","0","0","0","0","0","0","","1","3328","0"
"082818","11:54:37","833212061","502106566","4.0.10.0","1","1","end_of_study_questions_ifirst","politics","0","0","0","0","0","0","somewhat republican","1","5991","0"
"082818","11:54:37","833212061","502106566","4.0.10.0","1","2","end_of_study_questions_ifirst","awareness","0","0","0","0","0","0","all","1","16116","0"
"082818","11:54:37","833212061","502106566","4.0.10.0","1","3","end_of_study_questions_ifirst","demand_to","0","0","0","0","0","0","My responses were genuinely based on whether I was influenced or not","1","15597","0"
"082818","11:54:37","833212061","502106566","4.0.10.0","1","3","end_of_study_questions_ifirst","demand_pn","0","0","0","0","0","0","My responses were genuinely based on whether I was influenced or not","1","15597","0"
"082818","11:54:37","833212061","502106566","4.0.10.0","1","4","end_of_study_questions_ifirst","influence_general_to","0","0","0","0","0","0","none","1","9475","0"
"082818","11:54:37","833212061","502106566","4.0.10.0","1","4","end_of_study_questions_ifirst","influence_general_pn","0","0","0","0","0","0","none","1","9475","0"
"082818","11:54:37","833212061","502106566","4.0.10.0","1","5","end_of_study_questions_ifirst","intentionality_to","0","0","0","0","0","0","none","1","8186","0"
"082818","11:54:37","833212061","502106566","4.0.10.0","1","5","end_of_study_questions_ifirst","intentionality_pn","0","0","0","0","0","0","none","1","8186","0"
"082818","11:54:37","833212061","502106566","4.0.10.0","1","6","end_of_study_questions_ifirst","unintentionality_to","0","0","0","0","0","0","a few","1","7521","0"
"082818","11:54:37","833212061","502106566","4.0.10.0","1","6","end_of_study_questions_ifirst","unintentionality_pn","0","0","0","0","0","0","a few","1","7521","0"
"082818","11:54:37","833212061","502106566","4.0.10.0","1","7","end_of_study_questions_ifirst","self_exclusion_1","0","0","0","0","0","0","Yes, use my data","1","6229","0"
"082818","11:54:37","833212061","502106566","4.0.10.0","1","7","end_of_study_questions_ifirst","self_exclusion_1other","0","0","0","0","0","0","","1","6229","0"
"082818","10:54:07","203355878","334163667","4.0.10.0","1","1","end_of_study_questions_ufirst","politics","0","0","0","0","0","0","very republican","1","9855","0"
"082818","10:54:07","203355878","334163667","4.0.10.0","1","2","end_of_study_questions_ufirst","awareness","0","0","0","0","0","0","I don't know","1","13071","0"
"082818","10:54:07","203355878","334163667","4.0.10.0","1","3","end_of_study_questions_ufirst","demand_to","0","0","0","0","0","0","My responses were genuinely based on whether I was influenced or not","1","13069","0"
"082818","10:54:07","203355878","334163667","4.0.10.0","1","3","end_of_study_questions_ufirst","demand_pn","0","0","0","0","0","0","My responses were genuinely based on whether I was influenced or not","1","13069","0"
"082818","10:54:07","203355878","334163667","4.0.10.0","1","4","end_of_study_questions_ufirst","influence_general_to","0","0","0","0","0","0","a few","1","22226","0"
"082818","10:54:07","203355878","334163667","4.0.10.0","1","4","end_of_study_questions_ufirst","influence_general_pn","0","0","0","0","0","0","a few","1","22226","0"
"082818","10:54:07","203355878","334163667","4.0.10.0","1","5","end_of_study_questions_ufirst","unintentionality_to","0","0","0","0","0","0","a few","1","12650","0"
"082818","10:54:07","203355878","334163667","4.0.10.0","1","5","end_of_study_questions_ufirst","unintentionality_pn","0","0","0","0","0","0","a few","1","12650","0"
"082818","10:54:07","203355878","334163667","4.0.10.0","1","6","end_of_study_questions_ufirst","intentionality_to","0","0","0","0","0","0","a few","1","28504","0"
"082818","10:54:07","203355878","334163667","4.0.10.0","1","6","end_of_study_questions_ufirst","intentionality_pn","0","0","0","0","0","0","none","1","28504","0"
"082818","10:54:07","203355878","334163667","4.0.10.0","1","7","end_of_study_questions_ufirst","self_exclusion_1","0","0","0","0","0","0","Yes, use my data","1","2734","0"
"082818","10:54:07","203355878","334163667","4.0.10.0","1","7","end_of_study_questions_ufirst","self_exclusion_1other","0","0","0","0","0","0","","1","2734","0"
"082818","13:55:36","750534063","967745033","4.0.10.0","1","1","end_of_study_questions_ufirst","politics","0","0","0","0","0","0","somewhat republican","1","8921","0"
"082818","13:55:36","750534063","967745033","4.0.10.0","1","2","end_of_study_questions_ufirst","awareness","0","0","0","0","0","0","all","1","23979","0"
"082818","13:55:36","750534063","967745033","4.0.10.0","1","3","end_of_study_questions_ufirst","demand_to","0","0","0","0","0","0","My responses were genuinely based on whether I was influenced or not","1","22908","0"
"082818","13:55:36","750534063","967745033","4.0.10.0","1","3","end_of_study_questions_ufirst","demand_pn","0","0","0","0","0","0","My responses were genuinely based on whether I was influenced or not","1","22908","0"
"082818","13:55:36","750534063","967745033","4.0.10.0","1","4","end_of_study_questions_ufirst","influence_general_to","0","0","0","0","0","0","none","1","16615","0"
"082818","13:55:36","750534063","967745033","4.0.10.0","1","4","end_of_study_questions_ufirst","influence_general_pn","0","0","0","0","0","0","none","1","16615","0"
"082818","13:55:36","750534063","967745033","4.0.10.0","1","5","end_of_study_questions_ufirst","unintentionality_to","0","0","0","0","0","0","none","1","17803","0"
"082818","13:55:36","750534063","967745033","4.0.10.0","1","5","end_of_study_questions_ufirst","unintentionality_pn","0","0","0","0","0","0","a few","1","17803","0"
"082818","13:55:36","750534063","967745033","4.0.10.0","1","6","end_of_study_questions_ufirst","intentionality_to","0","0","0","0","0","0","none","1","8052","0"
"082818","13:55:36","750534063","967745033","4.0.10.0","1","6","end_of_study_questions_ufirst","intentionality_pn","0","0","0","0","0","0","none","1","8052","0"
"082818","13:55:36","750534063","967745033","4.0.10.0","1","7","end_of_study_questions_ufirst","self_exclusion_1","0","0","0","0","0","0","Yes, use my data","1","9066","0"
"082818","13:55:36","750534063","967745033","4.0.10.0","1","7","end_of_study_questions_ufirst","self_exclusion_1other","0","0","0","0","0","0","","1","9066","0"
"082818","12:56:54","558455898","122101849","4.0.10.0","1","1","end_of_study_questions_ufirst","politics","0","0","0","0","0","0","somewhat republican","1","7603","0"
"082818","12:56:54","558455898","122101849","4.0.10.0","1","2","end_of_study_questions_ufirst","awareness","0","0","0","0","0","0","most","1","11970","0"
"082818","12:56:54","558455898","122101849","4.0.10.0","1","3","end_of_study_questions_ufirst","demand_to","0","0","0","0","0","0","I'm not sure or don't know why I responded the way I did","1","21422","0"
"082818","12:56:54","558455898","122101849","4.0.10.0","1","3","end_of_study_questions_ufirst","demand_pn","0","0","0","0","0","0","I'm not sure or don't know why I responded the way I did","1","21422","0"
"082818","12:56:54","558455898","122101849","4.0.10.0","1","4","end_of_study_questions_ufirst","influence_general_to","0","0","0","0","0","0","most","1","5738","0"
"082818","12:56:54","558455898","122101849","4.0.10.0","1","4","end_of_study_questions_ufirst","influence_general_pn","0","0","0","0","0","0","most","1","5738","0"
"082818","12:56:54","558455898","122101849","4.0.10.0","1","5","end_of_study_questions_ufirst","unintentionality_to","0","0","0","0","0","0","more than half","1","6941","0"
"082818","12:56:54","558455898","122101849","4.0.10.0","1","5","end_of_study_questions_ufirst","unintentionality_pn","0","0","0","0","0","0","more than half","1","6941","0"
"082818","12:56:54","558455898","122101849","4.0.10.0","1","6","end_of_study_questions_ufirst","intentionality_to","0","0","0","0","0","0","a few","1","12273","0"
"082818","12:56:54","558455898","122101849","4.0.10.0","1","6","end_of_study_questions_ufirst","intentionality_pn","0","0","0","0","0","0","a few","1","12273","0"
"082818","12:56:54","558455898","122101849","4.0.10.0","1","7","end_of_study_questions_ufirst","self_exclusion_1","0","0","0","0","0","0","Yes, use my data","1","9751","0"
"082818","12:56:54","558455898","122101849","4.0.10.0","1","7","end_of_study_questions_ufirst","self_exclusion_1other","0","0","0","0","0","0","","1","9751","0"
"082818","12:55:37","312761680","558749664","4.0.10.0","1","1","end_of_study_questions_ifirst","politics","0","0","0","0","0","0","very republican","1","8661","0"
"082818","12:55:37","312761680","558749664","4.0.10.0","1","2","end_of_study_questions_ifirst","awareness","0","0","0","0","0","0","all","1","20230","0"
"082818","12:55:37","312761680","558749664","4.0.10.0","1","3","end_of_study_questions_ifirst","demand_to","0","0","0","0","0","0","I'm not sure or don't know why I responded the way I did","1","50896","0"
"082818","12:55:37","312761680","558749664","4.0.10.0","1","3","end_of_study_questions_ifirst","demand_pn","0","0","0","0","0","0","I'm not sure or don't know why I responded the way I did","1","50896","0"
"082818","12:55:37","312761680","558749664","4.0.10.0","1","4","end_of_study_questions_ifirst","influence_general_to","0","0","0","0","0","0","none","1","20172","0"
"082818","12:55:37","312761680","558749664","4.0.10.0","1","4","end_of_study_questions_ifirst","influence_general_pn","0","0","0","0","0","0","none","1","20172","0"
"082818","12:55:37","312761680","558749664","4.0.10.0","1","5","end_of_study_questions_ifirst","intentionality_to","0","0","0","0","0","0","none","1","12893","0"
"082818","12:55:37","312761680","558749664","4.0.10.0","1","5","end_of_study_questions_ifirst","intentionality_pn","0","0","0","0","0","0","none","1","12893","0"
"082818","12:55:37","312761680","558749664","4.0.10.0","1","6","end_of_study_questions_ifirst","unintentionality_to","0","0","0","0","0","0","none","1","12084","0"
"082818","12:55:37","312761680","558749664","4.0.10.0","1","6","end_of_study_questions_ifirst","unintentionality_pn","0","0","0","0","0","0","none","1","12084","0"
"082818","12:55:37","312761680","558749664","4.0.10.0","1","7","end_of_study_questions_ifirst","self_exclusion_1","0","0","0","0","0","0","Yes, use my data","1","29786","0"
"082818","12:55:37","312761680","558749664","4.0.10.0","1","7","end_of_study_questions_ifirst","self_exclusion_1other","0","0","0","0","0","0","","1","29786","0"
"082818","13:07:46","649235875","895521986","4.0.10.0","1","1","end_of_study_questions_ifirst","politics","0","0","0","0","0","0","very republican","1","5079","0"
"082818","13:07:46","649235875","895521986","4.0.10.0","1","2","end_of_study_questions_ifirst","awareness","0","0","0","0","0","0","all","1","14191","0"
"082818","13:07:46","649235875","895521986","4.0.10.0","1","3","end_of_study_questions_ifirst","demand_to","0","0","0","0","0","0","My responses were genuinely based on whether I was influenced or not","1","12721","0"
"082818","13:07:46","649235875","895521986","4.0.10.0","1","3","end_of_study_questions_ifirst","demand_pn","0","0","0","0","0","0","My responses were genuinely based on whether I was influenced or not","1","12721","0"
"082818","13:07:46","649235875","895521986","4.0.10.0","1","4","end_of_study_questions_ifirst","influence_general_to","0","0","0","0","0","0","a few","1","14723","0"
"082818","13:07:46","649235875","895521986","4.0.10.0","1","4","end_of_study_questions_ifirst","influence_general_pn","0","0","0","0","0","0","less than half","1","14723","0"
"082818","13:07:46","649235875","895521986","4.0.10.0","1","5","end_of_study_questions_ifirst","intentionality_to","0","0","0","0","0","0","most","1","8343","0"
"082818","13:07:46","649235875","895521986","4.0.10.0","1","5","end_of_study_questions_ifirst","intentionality_pn","0","0","0","0","0","0","most","1","8343","0"
"082818","13:07:46","649235875","895521986","4.0.10.0","1","6","end_of_study_questions_ifirst","unintentionality_to","0","0","0","0","0","0","less than half","1","7709","0"
"082818","13:07:46","649235875","895521986","4.0.10.0","1","6","end_of_study_questions_ifirst","unintentionality_pn","0","0","0","0","0","0","less than half","1","7709","0"
"082818","13:07:46","649235875","895521986","4.0.10.0","1","7","end_of_study_questions_ifirst","self_exclusion_1","0","0","0","0","0","0","Yes, use my data","1","4921","0"
"082818","13:07:46","649235875","895521986","4.0.10.0","1","7","end_of_study_questions_ifirst","self_exclusion_1other","0","0","0","0","0","0","","1","4921","0"
"082818","14:13:57","563585950","533533528","4.0.10.0","1","1","end_of_study_questions_ifirst","politics","0","0","0","0","0","0","neither/moderate","1","3052","0"
"082818","14:13:57","563585950","533533528","4.0.10.0","1","2","end_of_study_questions_ifirst","awareness","0","0","0","0","0","0","all","1","8867","0"
"082818","14:13:57","563585950","533533528","4.0.10.0","1","3","end_of_study_questions_ifirst","demand_to","0","0","0","0","0","0","My responses were genuinely based on whether I was influenced or not","1","11636","0"
"082818","14:13:57","563585950","533533528","4.0.10.0","1","3","end_of_study_questions_ifirst","demand_pn","0","0","0","0","0","0","My responses were genuinely based on whether I was influenced or not","1","11636","0"
"082818","14:13:57","563585950","533533528","4.0.10.0","1","4","end_of_study_questions_ifirst","influence_general_to","0","0","0","0","0","0","a few","1","8024","0"
"082818","14:13:57","563585950","533533528","4.0.10.0","1","4","end_of_study_questions_ifirst","influence_general_pn","0","0","0","0","0","0","a few","1","8024","0"
"082818","14:13:57","563585950","533533528","4.0.10.0","1","5","end_of_study_questions_ifirst","intentionality_to","0","0","0","0","0","0","a few","1","16383","0"
"082818","14:13:57","563585950","533533528","4.0.10.0","1","5","end_of_study_questions_ifirst","intentionality_pn","0","0","0","0","0","0","a few","1","16383","0"
"082818","14:13:57","563585950","533533528","4.0.10.0","1","6","end_of_study_questions_ifirst","unintentionality_to","0","0","0","0","0","0","less than half","1","5884","0"
"082818","14:13:57","563585950","533533528","4.0.10.0","1","6","end_of_study_questions_ifirst","unintentionality_pn","0","0","0","0","0","0","less than half","1","5884","0"
"082818","14:13:57","563585950","533533528","4.0.10.0","1","7","end_of_study_questions_ifirst","self_exclusion_1","0","0","0","0","0","0","Yes, use my data","1","2692","0"
"082818","14:13:57","563585950","533533528","4.0.10.0","1","7","end_of_study_questions_ifirst","self_exclusion_1other","0","0","0","0","0","0","","1","2692","0"
"082818","14:21:04","93802083","626200154","4.0.10.0","1","1","end_of_study_questions_ifirst","politics","0","0","0","0","0","0","somewhat republican","1","8953","0"
"082818","14:21:04","93802083","626200154","4.0.10.0","1","2","end_of_study_questions_ifirst","awareness","0","0","0","0","0","0","I don't know","1","6785","0"
"082818","14:21:04","93802083","626200154","4.0.10.0","1","3","end_of_study_questions_ifirst","demand_to","0","0","0","0","0","0","My responses were genuinely based on whether I was influenced or not","1","39678","0"
"082818","14:21:04","93802083","626200154","4.0.10.0","1","3","end_of_study_questions_ifirst","demand_pn","0","0","0","0","0","0","My responses were genuinely based on whether I was influenced or not","1","39678","0"
"082818","14:21:04","93802083","626200154","4.0.10.0","1","4","end_of_study_questions_ifirst","influence_general_to","0","0","0","0","0","0","all","1","18684","0"
"082818","14:21:04","93802083","626200154","4.0.10.0","1","4","end_of_study_questions_ifirst","influence_general_pn","0","0","0","0","0","0","most","1","18684","0"
"082818","14:21:04","93802083","626200154","4.0.10.0","1","5","end_of_study_questions_ifirst","intentionality_to","0","0","0","0","0","0","a few","1","34339","0"
"082818","14:21:04","93802083","626200154","4.0.10.0","1","5","end_of_study_questions_ifirst","intentionality_pn","0","0","0","0","0","0","a few","1","34339","0"
"082818","14:21:04","93802083","626200154","4.0.10.0","1","6","end_of_study_questions_ifirst","unintentionality_to","0","0","0","0","0","0","less than half","1","24688","0"
"082818","14:21:04","93802083","626200154","4.0.10.0","1","6","end_of_study_questions_ifirst","unintentionality_pn","0","0","0","0","0","0","less than half","1","24688","0"
"082818","14:21:04","93802083","626200154","4.0.10.0","1","7","end_of_study_questions_ifirst","self_exclusion_1","0","0","0","0","0","0","Yes, use my data","1","3385","0"
"082818","14:21:04","93802083","626200154","4.0.10.0","1","7","end_of_study_questions_ifirst","self_exclusion_1other","0","0","0","0","0","0","","1","3385","0"
"082818","14:01:00","852417329","823316872","4.0.10.0","1","1","end_of_study_questions_ifirst","politics","0","0","0","0","0","0","very democratic","1","7337","0"
"082818","14:01:00","852417329","823316872","4.0.10.0","1","2","end_of_study_questions_ifirst","awareness","0","0","0","0","0","0","all","1","16755","0"
"082818","14:01:00","852417329","823316872","4.0.10.0","1","3","end_of_study_questions_ifirst","demand_to","0","0","0","0","0","0","I'm not sure or don't know why I responded the way I did","1","22367","0"
"082818","14:01:00","852417329","823316872","4.0.10.0","1","3","end_of_study_questions_ifirst","demand_pn","0","0","0","0","0","0","My responses were genuinely based on whether I was influenced or not","1","22367","0"
"082818","14:01:00","852417329","823316872","4.0.10.0","1","4","end_of_study_questions_ifirst","influence_general_to","0","0","0","0","0","0","I don't know","1","9000","0"
"082818","14:01:00","852417329","823316872","4.0.10.0","1","4","end_of_study_questions_ifirst","influence_general_pn","0","0","0","0","0","0","less than half","1","9000","0"
"082818","14:01:00","852417329","823316872","4.0.10.0","1","5","end_of_study_questions_ifirst","intentionality_to","0","0","0","0","0","0","less than half","1","14558","0"
"082818","14:01:00","852417329","823316872","4.0.10.0","1","5","end_of_study_questions_ifirst","intentionality_pn","0","0","0","0","0","0","none","1","14558","0"
"082818","14:01:00","852417329","823316872","4.0.10.0","1","6","end_of_study_questions_ifirst","unintentionality_to","0","0","0","0","0","0","I don't know","1","10364","0"
"082818","14:01:00","852417329","823316872","4.0.10.0","1","6","end_of_study_questions_ifirst","unintentionality_pn","0","0","0","0","0","0","I don't know","1","10364","0"
"082818","14:01:00","852417329","823316872","4.0.10.0","1","7","end_of_study_questions_ifirst","self_exclusion_1","0","0","0","0","0","0","Yes, use my data","1","13131","0"
"082818","14:01:00","852417329","823316872","4.0.10.0","1","7","end_of_study_questions_ifirst","self_exclusion_1other","0","0","0","0","0","0","","1","13131","0"
"082818","12:13:44","914724751","447834957","4.0.10.0","1","1","end_of_study_questions_ufirst","politics","0","0","0","0","0","0","somewhat democratic","1","7532","0"
"082818","12:13:44","914724751","447834957","4.0.10.0","1","2","end_of_study_questions_ufirst","awareness","0","0","0","0","0","0","all","1","30856","0"
"082818","12:13:44","914724751","447834957","4.0.10.0","1","3","end_of_study_questions_ufirst","demand_to","0","0","0","0","0","0","My responses were genuinely based on whether I was influenced or not","1","22009","0"
"082818","12:13:44","914724751","447834957","4.0.10.0","1","3","end_of_study_questions_ufirst","demand_pn","0","0","0","0","0","0","My responses were genuinely based on whether I was influenced or not","1","22009","0"
"082818","12:13:44","914724751","447834957","4.0.10.0","1","4","end_of_study_questions_ufirst","influence_general_to","0","0","0","0","0","0","all","1","10505","0"
"082818","12:13:44","914724751","447834957","4.0.10.0","1","4","end_of_study_questions_ufirst","influence_general_pn","0","0","0","0","0","0","all","1","10505","0"
"082818","12:13:44","914724751","447834957","4.0.10.0","1","5","end_of_study_questions_ufirst","unintentionality_to","0","0","0","0","0","0","most","1","24271","0"
"082818","12:13:44","914724751","447834957","4.0.10.0","1","5","end_of_study_questions_ufirst","unintentionality_pn","0","0","0","0","0","0","all","1","24271","0"
"082818","12:13:44","914724751","447834957","4.0.10.0","1","6","end_of_study_questions_ufirst","intentionality_to","0","0","0","0","0","0","more than half","1","18187","0"
"082818","12:13:44","914724751","447834957","4.0.10.0","1","6","end_of_study_questions_ufirst","intentionality_pn","0","0","0","0","0","0","more than half","1","18187","0"
"082818","12:13:44","914724751","447834957","4.0.10.0","1","7","end_of_study_questions_ufirst","self_exclusion_1","0","0","0","0","0","0","Yes, use my data","1","11561","0"
"082818","12:13:44","914724751","447834957","4.0.10.0","1","7","end_of_study_questions_ufirst","self_exclusion_1other","0","0","0","0","0","0","","1","11561","0"
"082818","13:20:46","716043882","853301389","4.0.10.0","1","1","end_of_study_questions_ufirst","politics","0","0","0","0","0","0","very democratic","1","4447","0"
"082818","13:20:46","716043882","853301389","4.0.10.0","1","2","end_of_study_questions_ufirst","awareness","0","0","0","0","0","0","all","1","9605","0"
"082818","13:20:46","716043882","853301389","4.0.10.0","1","3","end_of_study_questions_ufirst","demand_to","0","0","0","0","0","0","My responses were genuinely based on whether I was influenced or not","1","11937","0"
"082818","13:20:46","716043882","853301389","4.0.10.0","1","3","end_of_study_questions_ufirst","demand_pn","0","0","0","0","0","0","My responses were genuinely based on whether I was influenced or not","1","11937","0"
"082818","13:20:46","716043882","853301389","4.0.10.0","1","4","end_of_study_questions_ufirst","influence_general_to","0","0","0","0","0","0","about half","1","7575","0"
"082818","13:20:46","716043882","853301389","4.0.10.0","1","4","end_of_study_questions_ufirst","influence_general_pn","0","0","0","0","0","0","more than half","1","7575","0"
"082818","13:20:46","716043882","853301389","4.0.10.0","1","5","end_of_study_questions_ufirst","unintentionality_to","0","0","0","0","0","0","more than half","1","9011","0"
"082818","13:20:46","716043882","853301389","4.0.10.0","1","5","end_of_study_questions_ufirst","unintentionality_pn","0","0","0","0","0","0","more than half","1","9011","0"
"082818","13:20:46","716043882","853301389","4.0.10.0","1","6","end_of_study_questions_ufirst","intentionality_to","0","0","0","0","0","0","a few","1","7593","0"
"082818","13:20:46","716043882","853301389","4.0.10.0","1","6","end_of_study_questions_ufirst","intentionality_pn","0","0","0","0","0","0","a few","1","7593","0"
"082818","13:20:46","716043882","853301389","4.0.10.0","1","7","end_of_study_questions_ufirst","self_exclusion_1","0","0","0","0","0","0","Yes, use my data","1","8341","0"
"082818","13:20:46","716043882","853301389","4.0.10.0","1","7","end_of_study_questions_ufirst","self_exclusion_1other","0","0","0","0","0","0","","1","8341","0"
"082818","15:22:46","676187834","493071455","4.0.10.0","1","1","end_of_study_questions_ufirst","politics","0","0","0","0","0","0","very democratic","1","11021","0"
"082818","15:22:46","676187834","493071455","4.0.10.0","1","2","end_of_study_questions_ufirst","awareness","0","0","0","0","0","0","all","1","14363","0"
"082818","15:22:46","676187834","493071455","4.0.10.0","1","3","end_of_study_questions_ufirst","demand_to","0","0","0","0","0","0","My responses were genuinely based on whether I was influenced or not","1","24201","0"
"082818","15:22:46","676187834","493071455","4.0.10.0","1","3","end_of_study_questions_ufirst","demand_pn","0","0","0","0","0","0","My responses were genuinely based on whether I was influenced or not","1","24201","0"
"082818","15:22:46","676187834","493071455","4.0.10.0","1","4","end_of_study_questions_ufirst","influence_general_to","0","0","0","0","0","0","none","1","17986","0"
"082818","15:22:46","676187834","493071455","4.0.10.0","1","4","end_of_study_questions_ufirst","influence_general_pn","0","0","0","0","0","0","none","1","17986","0"
"082818","15:22:46","676187834","493071455","4.0.10.0","1","5","end_of_study_questions_ufirst","unintentionality_to","0","0","0","0","0","0","none","1","27861","0"
"082818","15:22:46","676187834","493071455","4.0.10.0","1","5","end_of_study_questions_ufirst","unintentionality_pn","0","0","0","0","0","0","none","1","27861","0"
"082818","15:22:46","676187834","493071455","4.0.10.0","1","6","end_of_study_questions_ufirst","intentionality_to","0","0","0","0","0","0","none","1","34337","0"
"082818","15:22:46","676187834","493071455","4.0.10.0","1","6","end_of_study_questions_ufirst","intentionality_pn","0","0","0","0","0","0","none","1","34337","0"
"082818","15:22:46","676187834","493071455","4.0.10.0","1","7","end_of_study_questions_ufirst","self_exclusion_1","0","0","0","0","0","0","Yes, use my data","1","6757","0"
"082818","15:22:46","676187834","493071455","4.0.10.0","1","7","end_of_study_questions_ufirst","self_exclusion_1other","0","0","0","0","0","0","","1","6757","0"
"082818","15:33:41","928997955","560092389","4.0.10.0","1","1","end_of_study_questions_ufirst","politics","0","0","0","0","0","0","a little democratic","1","4547","0"
"082818","15:33:41","928997955","560092389","4.0.10.0","1","2","end_of_study_questions_ufirst","awareness","0","0","0","0","0","0","all","1","16827","0"
"082818","15:33:41","928997955","560092389","4.0.10.0","1","3","end_of_study_questions_ufirst","demand_to","0","0","0","0","0","0","My responses were genuinely based on whether I was influenced or not","1","14114","0"
"082818","15:33:41","928997955","560092389","4.0.10.0","1","3","end_of_study_questions_ufirst","demand_pn","0","0","0","0","0","0","My responses were genuinely based on whether I was influenced or not","1","14114","0"
"082818","15:33:41","928997955","560092389","4.0.10.0","1","4","end_of_study_questions_ufirst","influence_general_to","0","0","0","0","0","0","none","1","8445","0"
"082818","15:33:41","928997955","560092389","4.0.10.0","1","4","end_of_study_questions_ufirst","influence_general_pn","0","0","0","0","0","0","none","1","8445","0"
"082818","15:33:41","928997955","560092389","4.0.10.0","1","5","end_of_study_questions_ufirst","unintentionality_to","0","0","0","0","0","0","a few","1","9606","0"
"082818","15:33:41","928997955","560092389","4.0.10.0","1","5","end_of_study_questions_ufirst","unintentionality_pn","0","0","0","0","0","0","a few","1","9606","0"
"082818","15:33:41","928997955","560092389","4.0.10.0","1","6","end_of_study_questions_ufirst","intentionality_to","0","0","0","0","0","0","none","1","17701","0"
"082818","15:33:41","928997955","560092389","4.0.10.0","1","6","end_of_study_questions_ufirst","intentionality_pn","0","0","0","0","0","0","none","1","17701","0"
"082818","15:33:41","928997955","560092389","4.0.10.0","1","7","end_of_study_questions_ufirst","self_exclusion_1","0","0","0","0","0","0","Yes, use my data","1","5466","0"
"082818","15:33:41","928997955","560092389","4.0.10.0","1","7","end_of_study_questions_ufirst","self_exclusion_1other","0","0","0","0","0","0","","1","5466","0"
"082818","14:35:08","311962796","314992497","4.0.10.0","1","1","end_of_study_questions_ufirst","politics","0","0","0","0","0","0","very democratic","1","4600","0"
"082818","14:35:08","311962796","314992497","4.0.10.0","1","2","end_of_study_questions_ufirst","awareness","0","0","0","0","0","0","all","1","12090","0"
"082818","14:35:08","311962796","314992497","4.0.10.0","1","3","end_of_study_questions_ufirst","demand_to","0","0","0","0","0","0","My responses were genuinely based on whether I was influenced or not","1","18555","0"
"082818","14:35:08","311962796","314992497","4.0.10.0","1","3","end_of_study_questions_ufirst","demand_pn","0","0","0","0","0","0","My responses were genuinely based on whether I was influenced or not","1","18555","0"
"082818","14:35:08","311962796","314992497","4.0.10.0","1","4","end_of_study_questions_ufirst","influence_general_to","0","0","0","0","0","0","none","1","8895","0"
"082818","14:35:08","311962796","314992497","4.0.10.0","1","4","end_of_study_questions_ufirst","influence_general_pn","0","0","0","0","0","0","none","1","8895","0"
"082818","14:35:08","311962796","314992497","4.0.10.0","1","5","end_of_study_questions_ufirst","unintentionality_to","0","0","0","0","0","0","a few","1","5882","0"
"082818","14:35:08","311962796","314992497","4.0.10.0","1","5","end_of_study_questions_ufirst","unintentionality_pn","0","0","0","0","0","0","a few","1","5882","0"
"082818","14:35:08","311962796","314992497","4.0.10.0","1","6","end_of_study_questions_ufirst","intentionality_to","0","0","0","0","0","0","none","1","11736","0"
"082818","14:35:08","311962796","314992497","4.0.10.0","1","6","end_of_study_questions_ufirst","intentionality_pn","0","0","0","0","0","0","none","1","11736","0"
"082818","14:35:08","311962796","314992497","4.0.10.0","1","7","end_of_study_questions_ufirst","self_exclusion_1","0","0","0","0","0","0","Yes, use my data","1","3842","0"
"082818","14:35:08","311962796","314992497","4.0.10.0","1","7","end_of_study_questions_ufirst","self_exclusion_1other","0","0","0","0","0","0","","1","3842","0"
"082818","15:45:02","274264812","595347927","4.0.10.0","1","1","end_of_study_questions_ufirst","politics","0","0","0","0","0","0","a little democratic","1","6599","0"
"082818","15:45:02","274264812","595347927","4.0.10.0","1","2","end_of_study_questions_ufirst","awareness","0","0","0","0","0","0","all","1","20070","0"
"082818","15:45:02","274264812","595347927","4.0.10.0","1","3","end_of_study_questions_ufirst","demand_to","0","0","0","0","0","0","My responses were genuinely based on whether I was influenced or not","1","19180","0"
"082818","15:45:02","274264812","595347927","4.0.10.0","1","3","end_of_study_questions_ufirst","demand_pn","0","0","0","0","0","0","My responses were genuinely based on whether I was influenced or not","1","19180","0"
"082818","15:45:02","274264812","595347927","4.0.10.0","1","4","end_of_study_questions_ufirst","influence_general_to","0","0","0","0","0","0","none","1","11600","0"
"082818","15:45:02","274264812","595347927","4.0.10.0","1","4","end_of_study_questions_ufirst","influence_general_pn","0","0","0","0","0","0","none","1","11600","0"
"082818","15:45:02","274264812","595347927","4.0.10.0","1","5","end_of_study_questions_ufirst","unintentionality_to","0","0","0","0","0","0","none","1","11738","0"
"082818","15:45:02","274264812","595347927","4.0.10.0","1","5","end_of_study_questions_ufirst","unintentionality_pn","0","0","0","0","0","0","none","1","11738","0"
"082818","15:45:02","274264812","595347927","4.0.10.0","1","6","end_of_study_questions_ufirst","intentionality_to","0","0","0","0","0","0","none","1","14530","0"
"082818","15:45:02","274264812","595347927","4.0.10.0","1","6","end_of_study_questions_ufirst","intentionality_pn","0","0","0","0","0","0","none","1","14530","0"
"082818","15:45:02","274264812","595347927","4.0.10.0","1","7","end_of_study_questions_ufirst","self_exclusion_1","0","0","0","0","0","0","Yes, use my data","1","5138","0"
"082818","15:45:02","274264812","595347927","4.0.10.0","1","7","end_of_study_questions_ufirst","self_exclusion_1other","0","0","0","0","0","0","","1","5138","0"
"082818","15:47:13","107524786","652408014","4.0.10.0","1","1","end_of_study_questions_ifirst","politics","0","0","0","0","0","0","somewhat democratic","1","6573","0"
"082818","15:47:13","107524786","652408014","4.0.10.0","1","2","end_of_study_questions_ifirst","awareness","0","0","0","0","0","0","all","1","35978","0"
"082818","15:47:13","107524786","652408014","4.0.10.0","1","3","end_of_study_questions_ifirst","demand_to","0","0","0","0","0","0","My responses were genuinely based on whether I was influenced or not","1","19897","0"
"082818","15:47:13","107524786","652408014","4.0.10.0","1","3","end_of_study_questions_ifirst","demand_pn","0","0","0","0","0","0","My responses were genuinely based on whether I was influenced or not","1","19897","0"
"082818","15:47:13","107524786","652408014","4.0.10.0","1","4","end_of_study_questions_ifirst","influence_general_to","0","0","0","0","0","0","I don't know","1","22239","0"
"082818","15:47:13","107524786","652408014","4.0.10.0","1","4","end_of_study_questions_ifirst","influence_general_pn","0","0","0","0","0","0","I don't know","1","22239","0"
"082818","15:47:13","107524786","652408014","4.0.10.0","1","5","end_of_study_questions_ifirst","intentionality_to","0","0","0","0","0","0","none","1","20084","0"
"082818","15:47:13","107524786","652408014","4.0.10.0","1","5","end_of_study_questions_ifirst","intentionality_pn","0","0","0","0","0","0","none","1","20084","0"
"082818","15:47:13","107524786","652408014","4.0.10.0","1","6","end_of_study_questions_ifirst","unintentionality_to","0","0","0","0","0","0","I don't know","1","12819","0"
"082818","15:47:13","107524786","652408014","4.0.10.0","1","6","end_of_study_questions_ifirst","unintentionality_pn","0","0","0","0","0","0","I don't know","1","12819","0"
"082818","15:47:13","107524786","652408014","4.0.10.0","1","7","end_of_study_questions_ifirst","self_exclusion_1","0","0","0","0","0","0","Yes, use my data","1","20412","0"
"082818","15:47:13","107524786","652408014","4.0.10.0","1","7","end_of_study_questions_ifirst","self_exclusion_1other","0","0","0","0","0","0","","1","20412","0"
"082818","12:51:36","324938557","777101923","4.0.10.0","1","1","end_of_study_questions_ufirst","politics","0","0","0","0","0","0","a little democratic","1","4299","0"
"082818","12:51:36","324938557","777101923","4.0.10.0","1","2","end_of_study_questions_ufirst","awareness","0","0","0","0","0","0","none","1","18792","0"
"082818","12:51:36","324938557","777101923","4.0.10.0","1","3","end_of_study_questions_ufirst","demand_to","0","0","0","0","0","0","My responses were genuinely based on whether I was influenced or not","1","44971","0"
"082818","12:51:36","324938557","777101923","4.0.10.0","1","3","end_of_study_questions_ufirst","demand_pn","0","0","0","0","0","0","My responses were genuinely based on whether I was influenced or not","1","44971","0"
"082818","12:51:36","324938557","777101923","4.0.10.0","1","4","end_of_study_questions_ufirst","influence_general_to","0","0","0","0","0","0","a few","1","14162","0"
"082818","12:51:36","324938557","777101923","4.0.10.0","1","4","end_of_study_questions_ufirst","influence_general_pn","0","0","0","0","0","0","none","1","14162","0"
"082818","12:51:36","324938557","777101923","4.0.10.0","1","5","end_of_study_questions_ufirst","unintentionality_to","0","0","0","0","0","0","a few","1","10096","0"
"082818","12:51:36","324938557","777101923","4.0.10.0","1","5","end_of_study_questions_ufirst","unintentionality_pn","0","0","0","0","0","0","a few","1","10096","0"
"082818","12:51:36","324938557","777101923","4.0.10.0","1","6","end_of_study_questions_ufirst","intentionality_to","0","0","0","0","0","0","I don't know","1","7513","0"
"082818","12:51:36","324938557","777101923","4.0.10.0","1","6","end_of_study_questions_ufirst","intentionality_pn","0","0","0","0","0","0","a few","1","7513","0"
"082818","12:51:36","324938557","777101923","4.0.10.0","1","7","end_of_study_questions_ufirst","self_exclusion_1","0","0","0","0","0","0","Yes, use my data","1","10394","0"
"082818","12:51:36","324938557","777101923","4.0.10.0","1","7","end_of_study_questions_ufirst","self_exclusion_1other","0","0","0","0","0","0","","1","10394","0"
"082818","12:59:23","996386378","788111884","4.0.10.0","1","1","end_of_study_questions_ifirst","politics","0","0","0","0","0","0","","1","7201","0"
"082818","13:03:19","66750960","469630582","4.0.10.0","1","1","end_of_study_questions_ifirst","politics","0","0","0","0","0","0","very democratic","1","7884","0"
"082818","13:03:19","66750960","469630582","4.0.10.0","1","2","end_of_study_questions_ifirst","awareness","0","0","0","0","0","0","all","1","22689","0"
"082818","13:03:19","66750960","469630582","4.0.10.0","1","3","end_of_study_questions_ifirst","demand_to","0","0","0","0","0","0","My responses were genuinely based on whether I was influenced or not","1","11677","0"
"082818","13:03:19","66750960","469630582","4.0.10.0","1","3","end_of_study_questions_ifirst","demand_pn","0","0","0","0","0","0","My responses were genuinely based on whether I was influenced or not","1","11677","0"
"082818","13:03:19","66750960","469630582","4.0.10.0","1","4","end_of_study_questions_ifirst","influence_general_to","0","0","0","0","0","0","more than half","1","16852","0"
"082818","13:03:19","66750960","469630582","4.0.10.0","1","4","end_of_study_questions_ifirst","influence_general_pn","0","0","0","0","0","0","more than half","1","16852","0"
"082818","13:03:19","66750960","469630582","4.0.10.0","1","5","end_of_study_questions_ifirst","intentionality_to","0","0","0","0","0","0","none","1","13061","0"
"082818","13:03:19","66750960","469630582","4.0.10.0","1","5","end_of_study_questions_ifirst","intentionality_pn","0","0","0","0","0","0","none","1","13061","0"
"082818","13:03:19","66750960","469630582","4.0.10.0","1","6","end_of_study_questions_ifirst","unintentionality_to","0","0","0","0","0","0","I don't know","1","14881","0"
"082818","13:03:19","66750960","469630582","4.0.10.0","1","6","end_of_study_questions_ifirst","unintentionality_pn","0","0","0","0","0","0","I don't know","1","14881","0"
"082818","13:03:19","66750960","469630582","4.0.10.0","1","7","end_of_study_questions_ifirst","self_exclusion_1","0","0","0","0","0","0","Yes, use my data","1","6144","0"
"082818","13:03:19","66750960","469630582","4.0.10.0","1","7","end_of_study_questions_ifirst","self_exclusion_1other","0","0","0","0","0","0","","1","6144","0"
"082818","15:03:46","964961316","985796001","4.0.10.0","1","1","end_of_study_questions_ufirst","politics","0","0","0","0","0","0","a little democratic","1","4121","0"
"082818","15:03:46","964961316","985796001","4.0.10.0","1","2","end_of_study_questions_ufirst","awareness","0","0","0","0","0","0","all","1","11759","0"
"082818","15:03:46","964961316","985796001","4.0.10.0","1","3","end_of_study_questions_ufirst","demand_to","0","0","0","0","0","0","My responses were genuinely based on whether I was influenced or not","1","14545","0"
"082818","15:03:46","964961316","985796001","4.0.10.0","1","3","end_of_study_questions_ufirst","demand_pn","0","0","0","0","0","0","My responses were genuinely based on whether I was influenced or not","1","14545","0"
"082818","15:03:46","964961316","985796001","4.0.10.0","1","4","end_of_study_questions_ufirst","influence_general_to","0","0","0","0","0","0","a few","1","13239","0"
"082818","15:03:46","964961316","985796001","4.0.10.0","1","4","end_of_study_questions_ufirst","influence_general_pn","0","0","0","0","0","0","a few","1","13239","0"
"082818","15:03:46","964961316","985796001","4.0.10.0","1","5","end_of_study_questions_ufirst","unintentionality_to","0","0","0","0","0","0","less than half","1","12155","0"
"082818","15:03:46","964961316","985796001","4.0.10.0","1","5","end_of_study_questions_ufirst","unintentionality_pn","0","0","0","0","0","0","less than half","1","12155","0"
"082818","15:03:46","964961316","985796001","4.0.10.0","1","6","end_of_study_questions_ufirst","intentionality_to","0","0","0","0","0","0","none","1","9260","0"
"082818","15:03:46","964961316","985796001","4.0.10.0","1","6","end_of_study_questions_ufirst","intentionality_pn","0","0","0","0","0","0","a few","1","9260","0"
"082818","15:03:46","964961316","985796001","4.0.10.0","1","7","end_of_study_questions_ufirst","self_exclusion_1","0","0","0","0","0","0","Yes, use my data","1","9003","0"
"082818","15:03:46","964961316","985796001","4.0.10.0","1","7","end_of_study_questions_ufirst","self_exclusion_1other","0","0","0","0","0","0","","1","9003","0"
"082818","15:04:06","243235197","424984409","4.0.10.0","1","1","end_of_study_questions_ufirst","politics","0","0","0","0","0","0","very democratic","1","6741","0"
"082818","15:04:06","243235197","424984409","4.0.10.0","1","2","end_of_study_questions_ufirst","awareness","0","0","0","0","0","0","all","1","16006","0"
"082818","15:04:06","243235197","424984409","4.0.10.0","1","3","end_of_study_questions_ufirst","demand_to","0","0","0","0","0","0","My responses were genuinely based on whether I was influenced or not","1","24935","0"
"082818","15:04:06","243235197","424984409","4.0.10.0","1","3","end_of_study_questions_ufirst","demand_pn","0","0","0","0","0","0","My responses were genuinely based on whether I was influenced or not","1","24935","0"
"082818","15:04:06","243235197","424984409","4.0.10.0","1","4","end_of_study_questions_ufirst","influence_general_to","0","0","0","0","0","0","a few","1","18550","0"
"082818","15:04:06","243235197","424984409","4.0.10.0","1","4","end_of_study_questions_ufirst","influence_general_pn","0","0","0","0","0","0","none","1","18550","0"
"082818","15:04:06","243235197","424984409","4.0.10.0","1","5","end_of_study_questions_ufirst","unintentionality_to","0","0","0","0","0","0","less than half","1","16494","0"
"082818","15:04:06","243235197","424984409","4.0.10.0","1","5","end_of_study_questions_ufirst","unintentionality_pn","0","0","0","0","0","0","none","1","16494","0"
"082818","15:04:06","243235197","424984409","4.0.10.0","1","6","end_of_study_questions_ufirst","intentionality_to","0","0","0","0","0","0","a few","1","11286","0"
"082818","15:04:06","243235197","424984409","4.0.10.0","1","6","end_of_study_questions_ufirst","intentionality_pn","0","0","0","0","0","0","none","1","11286","0"
"082818","15:04:06","243235197","424984409","4.0.10.0","1","7","end_of_study_questions_ufirst","self_exclusion_1","0","0","0","0","0","0","Yes, use my data","1","6045","0"
"082818","15:04:06","243235197","424984409","4.0.10.0","1","7","end_of_study_questions_ufirst","self_exclusion_1other","0","0","0","0","0","0","","1","6045","0"
"082818","16:06:29","320971035","673105396","4.0.10.0","1","1","end_of_study_questions_ifirst","politics","0","0","0","0","0","0","very democratic","1","4906","0"
"082818","16:06:29","320971035","673105396","4.0.10.0","1","2","end_of_study_questions_ifirst","awareness","0","0","0","0","0","0","","1","4682","0"
"082818","14:12:38","719602012","995837842","4.0.10.0","1","1","end_of_study_questions_ifirst","politics","0","0","0","0","0","0","neither/moderate","1","3995","0"
"082818","14:12:38","719602012","995837842","4.0.10.0","1","2","end_of_study_questions_ifirst","awareness","0","0","0","0","0","0","I don't know","1","12085","0"
"082818","14:12:38","719602012","995837842","4.0.10.0","1","3","end_of_study_questions_ifirst","demand_to","0","0","0","0","0","0","My responses were genuinely based on whether I was influenced or not","1","8516","0"
"082818","14:12:38","719602012","995837842","4.0.10.0","1","3","end_of_study_questions_ifirst","demand_pn","0","0","0","0","0","0","My responses were genuinely based on whether I was influenced or not","1","8516","0"
"082818","14:12:38","719602012","995837842","4.0.10.0","1","4","end_of_study_questions_ifirst","influence_general_to","0","0","0","0","0","0","I don't know","1","7324","0"
"082818","14:12:38","719602012","995837842","4.0.10.0","1","4","end_of_study_questions_ifirst","influence_general_pn","0","0","0","0","0","0","I don't know","1","7324","0"
"082818","14:12:38","719602012","995837842","4.0.10.0","1","5","end_of_study_questions_ifirst","intentionality_to","0","0","0","0","0","0","all","1","13701","0"
"082818","14:12:38","719602012","995837842","4.0.10.0","1","5","end_of_study_questions_ifirst","intentionality_pn","0","0","0","0","0","0","all","1","13701","0"
"082818","14:12:38","719602012","995837842","4.0.10.0","1","6","end_of_study_questions_ifirst","unintentionality_to","0","0","0","0","0","0","I don't know","1","6697","0"
"082818","14:12:38","719602012","995837842","4.0.10.0","1","6","end_of_study_questions_ifirst","unintentionality_pn","0","0","0","0","0","0","I don't know","1","6697","0"
"082818","14:12:38","719602012","995837842","4.0.10.0","1","7","end_of_study_questions_ifirst","self_exclusion_1","0","0","0","0","0","0","Yes, use my data","1","4709","0"
"082818","14:12:38","719602012","995837842","4.0.10.0","1","7","end_of_study_questions_ifirst","self_exclusion_1other","0","0","0","0","0","0","","1","4709","0"
"082818","13:13:43","537335525","161345581","4.0.10.0","1","1","end_of_study_questions_ufirst","politics","0","0","0","0","0","0","somewhat democratic","1","33355","0"
"082818","13:13:43","537335525","161345581","4.0.10.0","1","2","end_of_study_questions_ufirst","awareness","0","0","0","0","0","0","all","1","11646","0"
"082818","13:13:43","537335525","161345581","4.0.10.0","1","3","end_of_study_questions_ufirst","demand_to","0","0","0","0","0","0","My responses were genuinely based on whether I was influenced or not","1","11292","0"
"082818","13:13:43","537335525","161345581","4.0.10.0","1","3","end_of_study_questions_ufirst","demand_pn","0","0","0","0","0","0","My responses were genuinely based on whether I was influenced or not","1","11292","0"
"082818","13:13:43","537335525","161345581","4.0.10.0","1","4","end_of_study_questions_ufirst","influence_general_to","0","0","0","0","0","0","a few","1","25806","0"
"082818","13:13:43","537335525","161345581","4.0.10.0","1","4","end_of_study_questions_ufirst","influence_general_pn","0","0","0","0","0","0","about half","1","25806","0"
"082818","13:13:43","537335525","161345581","4.0.10.0","1","5","end_of_study_questions_ufirst","unintentionality_to","0","0","0","0","0","0","a few","1","16287","0"
"082818","13:13:43","537335525","161345581","4.0.10.0","1","5","end_of_study_questions_ufirst","unintentionality_pn","0","0","0","0","0","0","about half","1","16287","0"
"082818","13:13:43","537335525","161345581","4.0.10.0","1","6","end_of_study_questions_ufirst","intentionality_to","0","0","0","0","0","0","none","1","18431","0"
"082818","13:13:43","537335525","161345581","4.0.10.0","1","6","end_of_study_questions_ufirst","intentionality_pn","0","0","0","0","0","0","none","1","18431","0"
"082818","13:13:43","537335525","161345581","4.0.10.0","1","7","end_of_study_questions_ufirst","self_exclusion_1","0","0","0","0","0","0","Yes, use my data","1","6682","0"
"082818","13:13:43","537335525","161345581","4.0.10.0","1","7","end_of_study_questions_ufirst","self_exclusion_1other","0","0","0","0","0","0","","1","6682","0"
"082818","16:16:53","575204556","207193375","4.0.10.0","1","1","end_of_study_questions_ufirst","politics","0","0","0","0","0","0","very democratic","1","10587","0"
"082818","16:16:53","575204556","207193375","4.0.10.0","1","2","end_of_study_questions_ufirst","awareness","0","0","0","0","0","0","all","1","12313","0"
"082818","16:16:53","575204556","207193375","4.0.10.0","1","3","end_of_study_questions_ufirst","demand_to","0","0","0","0","0","0","My responses were genuinely based on whether I was influenced or not","1","14358","0"
"082818","16:16:53","575204556","207193375","4.0.10.0","1","3","end_of_study_questions_ufirst","demand_pn","0","0","0","0","0","0","My responses were genuinely based on whether I was influenced or not","1","14358","0"
"082818","16:16:53","575204556","207193375","4.0.10.0","1","4","end_of_study_questions_ufirst","influence_general_to","0","0","0","0","0","0","most","1","10174","0"
"082818","16:16:53","575204556","207193375","4.0.10.0","1","4","end_of_study_questions_ufirst","influence_general_pn","0","0","0","0","0","0","most","1","10174","0"
"082818","16:16:53","575204556","207193375","4.0.10.0","1","5","end_of_study_questions_ufirst","unintentionality_to","0","0","0","0","0","0","most","1","10411","0"
"082818","16:16:53","575204556","207193375","4.0.10.0","1","5","end_of_study_questions_ufirst","unintentionality_pn","0","0","0","0","0","0","most","1","10411","0"
"082818","16:16:53","575204556","207193375","4.0.10.0","1","6","end_of_study_questions_ufirst","intentionality_to","0","0","0","0","0","0","most","1","15151","0"
"082818","16:16:53","575204556","207193375","4.0.10.0","1","6","end_of_study_questions_ufirst","intentionality_pn","0","0","0","0","0","0","most","1","15151","0"
"082818","16:16:53","575204556","207193375","4.0.10.0","1","7","end_of_study_questions_ufirst","self_exclusion_1","0","0","0","0","0","0","Yes, use my data","1","5262","0"
"082818","16:16:53","575204556","207193375","4.0.10.0","1","7","end_of_study_questions_ufirst","self_exclusion_1other","0","0","0","0","0","0","","1","5262","0"
"082818","11:04:33","842203646","437557263","4.0.10.0","1","1","end_of_study_questions_ufirst","politics","0","0","0","0","0","0","very democratic","1","4353","0"
"082818","11:04:33","842203646","437557263","4.0.10.0","1","2","end_of_study_questions_ufirst","awareness","0","0","0","0","0","0","all","1","12424","0"
"082818","11:04:33","842203646","437557263","4.0.10.0","1","3","end_of_study_questions_ufirst","demand_to","0","0","0","0","0","0","My responses were genuinely based on whether I was influenced or not","1","12106","0"
"082818","11:04:33","842203646","437557263","4.0.10.0","1","3","end_of_study_questions_ufirst","demand_pn","0","0","0","0","0","0","My responses were genuinely based on whether I was influenced or not","1","12106","0"
"082818","11:04:33","842203646","437557263","4.0.10.0","1","4","end_of_study_questions_ufirst","influence_general_to","0","0","0","0","0","0","a few","1","8257","0"
"082818","11:04:33","842203646","437557263","4.0.10.0","1","4","end_of_study_questions_ufirst","influence_general_pn","0","0","0","0","0","0","a few","1","8257","0"
"082818","11:04:33","842203646","437557263","4.0.10.0","1","5","end_of_study_questions_ufirst","unintentionality_to","0","0","0","0","0","0","less than half","1","9594","0"
"082818","11:04:33","842203646","437557263","4.0.10.0","1","5","end_of_study_questions_ufirst","unintentionality_pn","0","0","0","0","0","0","less than half","1","9594","0"
"082818","11:04:33","842203646","437557263","4.0.10.0","1","6","end_of_study_questions_ufirst","intentionality_to","0","0","0","0","0","0","none","1","12007","0"
"082818","11:04:33","842203646","437557263","4.0.10.0","1","6","end_of_study_questions_ufirst","intentionality_pn","0","0","0","0","0","0","none","1","12007","0"
"082818","11:04:33","842203646","437557263","4.0.10.0","1","7","end_of_study_questions_ufirst","self_exclusion_1","0","0","0","0","0","0","Yes, use my data","1","3466","0"
"082818","11:04:33","842203646","437557263","4.0.10.0","1","7","end_of_study_questions_ufirst","self_exclusion_1other","0","0","0","0","0","0","","1","3466","0"
"082818","16:17:15","232071479","891844112","4.0.10.0","1","1","end_of_study_questions_ifirst","politics","0","0","0","0","0","0","very democratic","1","6026","0"
"082818","16:17:15","232071479","891844112","4.0.10.0","1","2","end_of_study_questions_ifirst","awareness","0","0","0","0","0","0","all","1","16365","0"
"082818","16:17:15","232071479","891844112","4.0.10.0","1","3","end_of_study_questions_ifirst","demand_to","0","0","0","0","0","0","My responses were genuinely based on whether I was influenced or not","1","17687","0"
"082818","16:17:15","232071479","891844112","4.0.10.0","1","3","end_of_study_questions_ifirst","demand_pn","0","0","0","0","0","0","My responses were genuinely based on whether I was influenced or not","1","17687","0"
"082818","16:17:15","232071479","891844112","4.0.10.0","1","4","end_of_study_questions_ifirst","influence_general_to","0","0","0","0","0","0","a few","1","13355","0"
"082818","16:17:15","232071479","891844112","4.0.10.0","1","4","end_of_study_questions_ifirst","influence_general_pn","0","0","0","0","0","0","a few","1","13355","0"
"082818","16:17:15","232071479","891844112","4.0.10.0","1","5","end_of_study_questions_ifirst","intentionality_to","0","0","0","0","0","0","none","1","10004","0"
"082818","16:17:15","232071479","891844112","4.0.10.0","1","5","end_of_study_questions_ifirst","intentionality_pn","0","0","0","0","0","0","none","1","10004","0"
"082818","16:17:15","232071479","891844112","4.0.10.0","1","6","end_of_study_questions_ifirst","unintentionality_to","0","0","0","0","0","0","a few","1","12539","0"
"082818","16:17:15","232071479","891844112","4.0.10.0","1","6","end_of_study_questions_ifirst","unintentionality_pn","0","0","0","0","0","0","a few","1","12539","0"
"082818","16:17:15","232071479","891844112","4.0.10.0","1","7","end_of_study_questions_ifirst","self_exclusion_1","0","0","0","0","0","0","Yes, use my data","1","20486","0"
"082818","16:17:15","232071479","891844112","4.0.10.0","1","7","end_of_study_questions_ifirst","self_exclusion_1other","0","0","0","0","0","0","","1","20486","0"
"082818","15:18:05","59906938","961993137","4.0.10.0","1","1","end_of_study_questions_ufirst","politics","0","0","0","0","0","0","somewhat democratic","1","6469","0"
"082818","15:18:05","59906938","961993137","4.0.10.0","1","2","end_of_study_questions_ufirst","awareness","0","0","0","0","0","0","all","1","22739","0"
"082818","15:18:05","59906938","961993137","4.0.10.0","1","3","end_of_study_questions_ufirst","demand_to","0","0","0","0","0","0","My responses were genuinely based on whether I was influenced or not","1","36113","0"
"082818","15:18:05","59906938","961993137","4.0.10.0","1","3","end_of_study_questions_ufirst","demand_pn","0","0","0","0","0","0","My responses were based on what I thought the researcher wanted me to say","1","36113","0"
"082818","15:18:05","59906938","961993137","4.0.10.0","1","4","end_of_study_questions_ufirst","influence_general_to","0","0","0","0","0","0","more than half","1","16279","0"
"082818","15:18:05","59906938","961993137","4.0.10.0","1","4","end_of_study_questions_ufirst","influence_general_pn","0","0","0","0","0","0","most","1","16279","0"
"082818","15:18:05","59906938","961993137","4.0.10.0","1","5","end_of_study_questions_ufirst","unintentionality_to","0","0","0","0","0","0","most","1","9071","0"
"082818","15:18:05","59906938","961993137","4.0.10.0","1","5","end_of_study_questions_ufirst","unintentionality_pn","0","0","0","0","0","0","most","1","9071","0"
"082818","15:18:05","59906938","961993137","4.0.10.0","1","6","end_of_study_questions_ufirst","intentionality_to","0","0","0","0","0","0","most","1","13421","0"
"082818","15:18:05","59906938","961993137","4.0.10.0","1","6","end_of_study_questions_ufirst","intentionality_pn","0","0","0","0","0","0","most","1","13421","0"
"082818","15:18:05","59906938","961993137","4.0.10.0","1","7","end_of_study_questions_ufirst","self_exclusion_1","0","0","0","0","0","0","Yes, use my data","1","10584","0"
"082818","15:18:05","59906938","961993137","4.0.10.0","1","7","end_of_study_questions_ufirst","self_exclusion_1other","0","0","0","0","0","0","","1","10584","0"
"082818","13:19:13","380214012","977334370","4.0.10.0","1","1","end_of_study_questions_ifirst","politics","0","0","0","0","0","0","very democratic","1","10217","0"
"082818","13:19:13","380214012","977334370","4.0.10.0","1","2","end_of_study_questions_ifirst","awareness","0","0","0","0","0","0","all","1","18305","0"
"082818","13:19:13","380214012","977334370","4.0.10.0","1","3","end_of_study_questions_ifirst","demand_to","0","0","0","0","0","0","My responses were genuinely based on whether I was influenced or not","1","14811","0"
"082818","13:19:13","380214012","977334370","4.0.10.0","1","3","end_of_study_questions_ifirst","demand_pn","0","0","0","0","0","0","My responses were genuinely based on whether I was influenced or not","1","14811","0"
"082818","13:19:13","380214012","977334370","4.0.10.0","1","4","end_of_study_questions_ifirst","influence_general_to","0","0","0","0","0","0","less than half","1","13426","0"
"082818","13:19:13","380214012","977334370","4.0.10.0","1","4","end_of_study_questions_ifirst","influence_general_pn","0","0","0","0","0","0","a few","1","13426","0"
"082818","13:19:13","380214012","977334370","4.0.10.0","1","5","end_of_study_questions_ifirst","intentionality_to","0","0","0","0","0","0","most","1","20982","0"
"082818","13:19:13","380214012","977334370","4.0.10.0","1","5","end_of_study_questions_ifirst","intentionality_pn","0","0","0","0","0","0","most","1","20982","0"
"082818","13:19:13","380214012","977334370","4.0.10.0","1","6","end_of_study_questions_ifirst","unintentionality_to","0","0","0","0","0","0","a few","1","12783","0"
"082818","13:19:13","380214012","977334370","4.0.10.0","1","6","end_of_study_questions_ifirst","unintentionality_pn","0","0","0","0","0","0","a few","1","12783","0"
"082818","13:19:13","380214012","977334370","4.0.10.0","1","7","end_of_study_questions_ifirst","self_exclusion_1","0","0","0","0","0","0","Yes, use my data","1","8864","0"
"082818","13:19:13","380214012","977334370","4.0.10.0","1","7","end_of_study_questions_ifirst","self_exclusion_1other","0","0","0","0","0","0","","1","8864","0"
"082818","14:20:50","192125113","313577721","4.0.10.0","1","1","end_of_study_questions_ufirst","politics","0","0","0","0","0","0","neither/moderate","1","6422","0"
"082818","14:20:50","192125113","313577721","4.0.10.0","1","2","end_of_study_questions_ufirst","awareness","0","0","0","0","0","0","all","1","22853","0"
"082818","14:20:50","192125113","313577721","4.0.10.0","1","3","end_of_study_questions_ufirst","demand_to","0","0","0","0","0","0","My responses were genuinely based on whether I was influenced or not","1","17508","0"
"082818","14:20:50","192125113","313577721","4.0.10.0","1","3","end_of_study_questions_ufirst","demand_pn","0","0","0","0","0","0","My responses were genuinely based on whether I was influenced or not","1","17508","0"
