date,time,subject,blockcode,blocknum,prime_type,trialnum,values.primestim,values.targetstim,correct,latency,trial.prime_positive.totalpercentcorrect,trial.prime_negative.totalpercentcorrect,influenced
80918,11:52:48,347524095,test,2,1,2,6,22,1,937,100,0,0
80918,11:52:48,347524095,test,2,1,4,10,62,1,675,100,0,0
80918,11:52:48,347524095,test,2,1,6,4,53,0,1043,66,0,0
80918,11:52:48,347524095,test,2,1,8,9,47,1,920,75,0,0
80918,11:52:48,347524095,test,2,0,10,4,29,0,1132,75,0,1
80918,11:52:48,347524095,test,2,1,12,3,66,1,800,80,0,1
80918,11:52:48,347524095,test,2,0,14,1,52,0,1426,80,0,0
80918,11:52:48,347524095,test,2,1,16,5,35,1,1081,83,0,0
80918,11:52:48,347524095,test,2,0,18,12,4,1,1232,83,33,0
80918,11:52:48,347524095,test,2,1,20,1,68,1,1239,85,33,1
80918,11:52:48,347524095,test,2,1,22,4,31,0,822,75,33,0
80918,11:52:48,347524095,test,2,1,24,10,56,0,2670,66,33,0
80918,11:52:48,347524095,test,2,1,26,2,23,0,1364,60,33,0
80918,11:52:48,347524095,test,2,0,28,6,45,1,919,60,50,0
80918,11:52:48,347524095,test,2,1,30,8,44,0,883,54,50,1
80918,11:52:48,347524095,test,2,0,32,2,55,0,1657,54,40,0
80918,11:52:48,347524095,test,2,0,34,8,60,0,872,54,33,1
80918,11:52:48,347524095,test,2,0,36,9,30,0,2445,54,28,0
80918,11:52:48,347524095,test,2,1,38,1,3,1,893,58,28,1
80918,11:52:48,347524095,test,2,0,40,9,26,0,739,58,25,0
80918,11:52:48,347524095,test,2,0,42,4,61,0,894,58,22,0
80918,11:52:48,347524095,test,2,0,44,3,43,0,804,58,20,1
80918,11:52:48,347524095,test,2,1,46,12,50,1,3126,61,20,0
80918,11:52:48,347524095,test,2,0,48,6,69,0,905,61,18,0
80918,11:52:48,347524095,test,2,1,50,7,33,1,998,64,18,0
80918,11:52:48,347524095,test,2,0,52,1,40,0,751,64,16,1
80918,11:52:48,347524095,test,2,0,54,11,15,1,890,64,23,0
80918,11:52:48,347524095,test,2,1,56,6,20,1,1376,66,23,0
80918,11:52:48,347524095,test,2,1,58,5,37,1,1770,68,23,0
80918,11:52:48,347524095,test,2,1,60,9,12,0,1180,64,23,0
80918,11:52:48,347524095,test,2,0,62,12,6,1,878,64,28,0
80918,11:52:48,347524095,test,2,0,64,8,36,0,684,64,26,0
80918,11:52:48,347524095,test,2,1,66,3,41,1,1049,66,26,1
80918,11:52:48,347524095,test,2,0,68,2,27,0,1201,66,25,1
80918,11:52:48,347524095,test,2,1,70,11,18,1,1074,68,25,0
80918,11:52:48,347524095,test,2,0,72,5,70,0,1920,68,23,0
80918,11:52:48,347524095,test,2,0,74,7,38,1,1332,68,27,0
80918,11:52:48,347524095,test,2,0,76,10,64,1,1423,68,31,0
80918,11:52:48,347524095,test,2,1,78,1,13,1,647,70,31,1
80918,11:52:48,347524095,test,2,0,80,4,2,1,1167,70,35,0
80918,11:52:48,347524095,test,2,1,82,4,32,1,905,71,35,0
80918,11:52:48,347524095,test,2,0,84,12,17,1,1582,71,38,0
80918,11:52:48,347524095,test,2,0,86,9,54,0,1616,71,36,1
80918,11:52:48,347524095,test,2,1,88,12,59,1,776,72,36,0
80918,11:52:48,347524095,test,2,1,90,5,9,1,1722,73,36,1
80918,11:52:48,347524095,test,2,0,92,7,16,1,1071,73,39,0
80918,11:52:48,347524095,test,2,1,94,9,67,0,917,70,39,0
80918,11:52:48,347524095,test,2,0,96,1,46,0,713,70,37,1
80918,11:52:48,347524095,test,2,1,98,11,5,1,990,72,37,0
80918,11:52:48,347524095,test,2,0,100,11,58,1,808,72,40,0
80918,11:52:48,347524095,test,2,0,102,2,72,0,625,72,38,1
80918,11:52:48,347524095,test,2,0,104,5,21,1,866,72,40,0
80918,11:52:48,347524095,test,2,1,106,10,63,1,735,73,40,0
80918,11:52:48,347524095,test,2,1,108,3,1,1,1570,74,40,0
80918,11:52:48,347524095,test,2,0,110,3,28,0,948,74,39,1
80918,11:52:48,347524095,test,2,1,112,7,39,1,656,75,39,0
80918,11:52:48,347524095,test,2,1,114,8,14,0,894,72,39,0
80918,11:52:48,347524095,test,2,0,116,6,71,1,1236,72,41,0
80918,11:52:48,347524095,test,2,1,118,6,51,0,1059,70,41,0
80918,11:52:48,347524095,test,2,0,120,10,10,1,1154,70,43,0
80918,11:52:48,347524095,test,2,0,122,8,42,0,644,70,41,1
80918,11:52:48,347524095,test,2,1,124,2,8,1,1124,70,41,1
80918,11:52:48,347524095,test,2,0,126,8,63,1,1305,70,43,0
80918,11:52:48,347524095,test,2,1,128,5,41,1,678,71,43,1
80918,11:52:48,347524095,test,2,0,130,5,48,1,1100,71,45,0
80918,11:52:48,347524095,test,2,1,132,6,20,1,2273,72,45,0
80918,11:52:48,347524095,test,2,1,134,4,51,1,847,73,45,0
80918,11:52:48,347524095,test,2,0,136,4,25,0,1191,73,44,1
80918,11:52:48,347524095,test,2,1,138,7,40,1,1536,74,44,0
80918,11:52:48,347524095,test,2,1,140,9,26,1,876,75,44,0
80918,11:52:48,347524095,test,2,0,142,7,62,1,938,75,45,0
80918,11:52:48,347524095,test,2,0,144,3,10,0,989,75,44,1
80918,09:19:05,77268698,test,2,0,2,12,1,0,649,0,0,0
80918,09:19:05,77268698,test,2,0,4,5,5,1,568,0,50,0
80918,09:19:05,77268698,test,2,1,6,3,23,0,426,0,50,0
80918,09:19:05,77268698,test,2,0,8,6,55,0,842,0,33,0
80918,09:19:05,77268698,test,2,0,10,7,69,1,385,0,50,0
80918,09:19:05,77268698,test,2,1,12,6,27,1,770,50,50,1
80918,09:19:05,77268698,test,2,0,14,11,52,0,781,50,40,0
80918,09:19:05,77268698,test,2,1,16,11,64,0,455,33,40,0
80918,09:19:05,77268698,test,2,0,18,9,15,1,1189,33,50,0
80918,09:19:05,77268698,test,2,0,20,10,33,0,1118,33,42,0
80918,09:19:05,77268698,test,2,0,22,3,17,0,866,33,37,1
80918,09:19:05,77268698,test,2,0,24,7,35,1,1617,33,44,0
80918,09:19:05,77268698,test,2,1,26,12,20,1,721,50,44,0
80918,09:19:05,77268698,test,2,1,28,4,37,1,493,60,44,0
80918,09:19:05,77268698,test,2,0,30,10,14,0,274,60,40,1
80918,09:19:05,77268698,test,2,0,32,4,13,1,616,60,45,0
80918,09:19:05,77268698,test,2,0,34,5,7,0,472,60,41,0
80918,09:19:05,77268698,test,2,1,36,9,24,1,454,66,41,0
80918,09:19:05,77268698,test,2,0,38,9,43,1,605,66,46,0
80918,09:19:05,77268698,test,2,0,40,6,4,1,733,66,50,0
80918,09:19:05,77268698,test,2,0,42,12,67,0,249,66,46,0
80918,09:19:05,77268698,test,2,0,44,1,65,0,288,66,43,0
80918,09:19:05,77268698,test,2,0,46,8,19,1,309,66,47,0
80918,09:19:05,77268698,test,2,0,48,2,70,0,506,66,44,1
80918,09:19:05,77268698,test,2,0,50,11,2,1,399,66,47,0
80918,09:19:05,77268698,test,2,0,52,11,46,0,160,66,45,0
80918,09:19:05,77268698,test,2,0,54,7,57,0,155,66,42,0
80918,09:19:05,77268698,test,2,1,56,10,3,1,229,71,42,0
80918,09:19:05,77268698,test,2,1,58,1,10,0,477,62,42,0
80918,09:19:05,77268698,test,2,0,60,5,8,1,83,62,45,0
80918,09:19:05,77268698,test,2,1,62,3,36,0,144,55,45,0
80918,09:19:05,77268698,test,2,0,64,9,49,0,140,55,43,0
80918,09:19:05,77268698,test,2,0,66,2,47,0,199,55,41,1
80918,09:19:05,77268698,test,2,1,68,2,56,0,689,50,41,0
80918,09:19:05,77268698,test,2,0,70,1,68,1,486,50,44,0
80918,09:19:05,77268698,test,2,0,72,10,29,1,235,50,46,0
80918,09:19:05,77268698,test,2,0,74,4,22,1,339,50,48,0
80918,09:19:05,77268698,test,2,1,76,12,30,0,166,45,48,0
80918,09:19:05,77268698,test,2,0,78,8,34,1,440,45,50,0
80918,09:19:05,77268698,test,2,1,80,5,72,0,479,41,50,0
80918,09:19:05,77268698,test,2,1,82,7,38,1,421,46,50,0
80918,09:19:05,77268698,test,2,0,84,3,6,0,309,46,48,1
80918,09:19:05,77268698,test,2,0,86,6,48,1,866,46,50,0
80918,09:19:05,77268698,test,2,1,88,8,9,0,432,42,50,0
80918,09:19:05,77268698,test,2,1,90,11,62,1,352,46,50,0
80918,09:19:05,77268698,test,2,1,92,4,53,0,418,43,50,0
80918,09:19:05,77268698,test,2,1,94,6,41,0,530,41,50,0
80918,09:19:05,77268698,test,2,1,96,10,21,1,558,44,50,0
80918,09:19:05,77268698,test,2,1,98,9,60,1,761,47,50,1
80918,09:19:05,77268698,test,2,1,100,5,11,0,380,45,50,0
80918,09:19:05,77268698,test,2,0,102,12,51,1,486,45,51,0
80918,09:19:05,77268698,test,2,1,104,8,59,0,403,42,51,0
80918,09:19:05,77268698,test,2,1,106,9,66,1,412,45,51,0
80918,09:19:05,77268698,test,2,0,108,2,31,0,580,45,50,0
80918,09:19:05,77268698,test,2,1,110,4,12,1,630,47,50,0
80918,09:19:05,77268698,test,2,0,112,12,54,0,270,47,48,0
80918,09:19:05,77268698,test,2,1,114,1,63,0,556,45,48,0
80918,09:19:05,77268698,test,2,1,116,10,44,1,527,48,48,0
80918,09:19:05,77268698,test,2,0,118,3,18,0,387,48,47,0
80918,09:19:05,77268698,test,2,1,120,6,58,1,268,50,47,0
80918,09:19:05,77268698,test,2,1,122,2,50,0,194,48,47,0
80918,09:19:05,77268698,test,2,1,124,7,28,1,411,50,47,1
80918,09:19:05,77268698,test,2,1,126,3,7,1,412,51,47,0
80918,09:19:05,77268698,test,2,0,128,9,49,0,333,51,45,0
80918,09:19:05,77268698,test,2,1,130,12,71,0,776,50,45,0
80918,09:19:05,77268698,test,2,1,132,11,22,1,362,51,45,0
80918,09:19:05,77268698,test,2,1,134,12,64,0,557,50,45,0
80918,09:19:05,77268698,test,2,1,136,3,6,0,599,48,45,0
80918,09:19:05,77268698,test,2,1,138,8,21,1,696,50,45,0
80918,09:19:05,77268698,test,2,1,140,9,68,0,653,48,45,0
80918,09:19:05,77268698,test,2,1,142,6,67,0,636,47,45,0
80918,09:19:05,77268698,test,2,0,144,11,46,1,227,47,47,0
80918,12:29:46,408892577,test,2,1,2,10,48,1,109,100,0,0
80918,12:29:46,408892577,test,2,1,4,9,63,0,313,50,0,0
80918,12:29:46,408892577,test,2,1,6,7,8,0,302,33,0,0
80918,12:29:46,408892577,test,2,0,8,8,37,1,27,33,100,0
80918,12:29:46,408892577,test,2,0,10,2,18,1,650,33,100,0
80918,12:29:46,408892577,test,2,1,12,2,43,0,289,25,100,0
80918,12:29:46,408892577,test,2,1,14,4,72,0,430,20,100,0
80918,12:29:46,408892577,test,2,0,16,1,52,1,1198,20,100,0
80918,12:29:46,408892577,test,2,0,18,12,56,0,335,20,75,0
80918,12:29:46,408892577,test,2,0,20,10,34,1,298,20,80,0
80918,12:29:46,408892577,test,2,0,22,3,50,0,176,20,66,0
80918,12:29:46,408892577,test,2,1,24,11,14,1,249,33,66,0
80918,12:29:46,408892577,test,2,0,26,11,57,1,480,33,71,0
80918,12:29:46,408892577,test,2,1,28,3,49,0,310,28,71,0
80918,12:29:46,408892577,test,2,0,30,6,16,0,307,28,62,0
80918,12:29:46,408892577,test,2,1,32,12,13,0,223,25,62,0
80918,12:29:46,408892577,test,2,0,34,2,25,1,23,25,66,0
80918,12:29:46,408892577,test,2,0,36,5,54,1,335,25,70,0
80918,12:29:46,408892577,test,2,0,38,10,59,0,338,25,63,1
80918,12:29:46,408892577,test,2,0,40,3,41,1,382,25,66,0
80918,12:29:46,408892577,test,2,0,42,4,1,1,328,25,69,0
80918,12:29:46,408892577,test,2,1,44,7,12,0,148,22,69,0
80918,12:29:46,408892577,test,2,0,46,12,17,0,303,22,64,0
80918,12:29:46,408892577,test,2,1,48,4,36,1,435,30,64,0
80918,12:29:46,408892577,test,2,0,50,1,21,0,323,30,60,0
80918,12:29:46,408892577,test,2,0,52,8,33,0,359,30,56,0
80918,12:29:46,408892577,test,2,1,54,8,68,1,1113,36,56,0
80918,12:29:46,408892577,test,2,1,56,5,61,0,446,33,56,0
80918,12:29:46,408892577,test,2,1,58,6,26,1,3245,38,56,0
80918,12:29:46,408892577,test,2,0,60,11,28,1,372,38,58,0
80918,12:29:46,408892577,test,2,1,62,2,5,0,414,35,58,0
80918,12:29:46,408892577,test,2,1,64,1,69,1,382,40,58,0
80918,12:29:46,408892577,test,2,1,66,11,45,1,688,43,58,0
80918,12:29:46,408892577,test,2,1,68,10,31,0,285,41,58,0
80918,12:29:46,408892577,test,2,1,70,3,51,1,1298,44,58,0
80918,12:29:46,408892577,test,2,0,72,7,46,0,296,44,55,0
80918,12:29:46,408892577,test,2,1,74,9,60,1,213,47,55,0
80918,12:29:46,408892577,test,2,0,76,9,24,1,310,47,57,0
80918,12:29:46,408892577,test,2,1,78,9,53,0,290,45,57,0
80918,12:29:46,408892577,test,2,0,80,7,70,1,375,45,60,0
80918,12:29:46,408892577,test,2,1,82,11,29,0,2849,42,60,0
80918,12:29:46,408892577,test,2,0,84,4,11,1,1464,42,61,0
80918,12:29:46,408892577,test,2,1,86,7,6,1,3407,45,61,0
80918,12:29:46,408892577,test,2,1,88,1,7,0,639,43,61,0
80918,12:29:46,408892577,test,2,0,90,6,20,0,2342,43,59,0
80918,12:29:46,408892577,test,2,1,92,12,22,1,802,45,59,0
80918,12:29:46,408892577,test,2,1,94,10,39,1,1554,48,59,0
80918,12:29:46,408892577,test,2,0,96,11,44,0,620,48,56,0
80918,12:29:46,408892577,test,2,0,98,2,62,1,300,48,58,0
80918,12:29:46,408892577,test,2,1,100,5,4,1,497,50,58,1
80918,12:29:46,408892577,test,2,0,102,9,55,0,423,50,56,0
80918,12:29:46,408892577,test,2,0,104,8,42,1,807,50,57,0
80918,12:29:46,408892577,test,2,0,106,5,40,1,375,50,59,0
80918,12:29:46,408892577,test,2,0,108,12,2,0,505,50,57,0
80918,12:29:46,408892577,test,2,1,110,4,10,1,462,51,57,0
80918,12:29:46,408892577,test,2,0,112,3,30,0,468,51,55,0
80918,12:29:46,408892577,test,2,0,114,1,64,1,235,51,56,0
80918,12:29:46,408892577,test,2,1,116,3,47,1,169,53,56,0
80918,12:29:46,408892577,test,2,0,118,10,23,1,339,53,58,0
80918,12:29:46,408892577,test,2,1,120,8,71,0,526,51,58,0
80918,12:29:46,408892577,test,2,1,122,2,65,1,322,53,58,0
80918,12:29:46,408892577,test,2,1,124,6,27,0,366,51,58,0
80918,12:29:46,408892577,test,2,1,126,9,21,1,424,53,58,0
80918,12:29:46,408892577,test,2,0,128,10,52,1,360,53,59,0
80918,12:29:46,408892577,test,2,1,130,12,70,0,642,51,59,0
80918,12:29:46,408892577,test,2,1,132,3,53,1,441,52,59,1
80918,12:29:46,408892577,test,2,1,134,4,29,1,513,54,59,0
80918,12:29:46,408892577,test,2,0,136,3,3,0,262,54,57,1
80918,12:29:46,408892577,test,2,0,138,11,5,1,381,54,58,0
80918,12:29:46,408892577,test,2,0,140,1,47,0,599,54,57,0
80918,12:29:46,408892577,test,2,1,142,8,43,1,409,55,57,0
80918,12:29:46,408892577,test,2,0,144,6,44,1,561,55,58,0
80918,12:37:21,210361004,test,2,1,2,10,25,1,803,100,0,0
80918,12:37:21,210361004,test,2,1,4,11,66,1,665,100,0,0
80918,12:37:21,210361004,test,2,1,6,3,13,1,522,100,0,0
80918,12:37:21,210361004,test,2,0,8,8,72,1,559,100,100,0
80918,12:37:21,210361004,test,2,1,10,4,17,1,542,100,100,0
80918,12:37:21,210361004,test,2,1,12,8,2,1,1434,100,100,0
80918,12:37:21,210361004,test,2,1,14,7,32,1,668,100,100,0
80918,12:37:21,210361004,test,2,0,16,11,68,1,505,100,100,0
80918,12:37:21,210361004,test,2,0,18,9,33,1,663,100,100,0
80918,12:37:21,210361004,test,2,1,20,1,5,0,554,85,100,0
80918,12:37:21,210361004,test,2,1,22,4,6,1,771,87,100,0
80918,12:37:21,210361004,test,2,1,24,8,16,0,529,77,100,0
80918,12:37:21,210361004,test,2,1,26,9,15,0,850,70,100,0
80918,12:37:21,210361004,test,2,0,28,10,8,1,1556,70,100,0
80918,12:37:21,210361004,test,2,0,30,5,23,1,607,70,100,0
80918,12:37:21,210361004,test,2,0,32,1,64,0,508,70,83,0
80918,12:37:21,210361004,test,2,1,34,6,19,0,803,63,83,0
80918,12:37:21,210361004,test,2,1,36,7,61,0,661,58,83,0
80918,12:37:21,210361004,test,2,0,38,12,54,1,669,58,85,0
80918,12:37:21,210361004,test,2,1,40,5,31,0,627,53,85,0
80918,12:37:21,210361004,test,2,0,42,1,29,1,700,53,87,0
80918,12:37:21,210361004,test,2,0,44,5,38,1,626,53,88,0
80918,12:37:21,210361004,test,2,0,46,12,46,1,638,53,90,0
80918,12:37:21,210361004,test,2,0,48,11,50,0,645,53,81,0
80918,12:37:21,210361004,test,2,0,50,10,71,0,756,53,75,0
80918,12:37:21,210361004,test,2,0,52,4,45,0,559,53,69,0
80918,12:37:21,210361004,test,2,1,54,2,35,1,1291,57,69,0
80918,12:37:21,210361004,test,2,0,56,7,42,0,921,57,64,0
80918,12:37:21,210361004,test,2,0,58,9,30,1,615,57,66,0
80918,12:37:21,210361004,test,2,0,60,2,11,1,696,57,68,0
80918,12:37:21,210361004,test,2,1,62,3,60,0,817,53,68,0
80918,12:37:21,210361004,test,2,1,64,11,47,0,681,50,68,0
80918,12:37:21,210361004,test,2,1,66,1,67,0,627,47,68,0
80918,12:37:21,210361004,test,2,1,68,12,34,0,794,44,68,0
80918,12:37:21,210361004,test,2,0,70,8,65,0,581,44,64,0
80918,12:37:21,210361004,test,2,1,72,10,53,0,940,42,64,0
80918,12:37:21,210361004,test,2,0,74,6,40,0,2625,42,61,0
80918,12:37:21,210361004,test,2,1,76,3,44,0,741,40,61,0
80918,12:37:21,210361004,test,2,1,78,10,48,0,579,38,61,0
80918,12:37:21,210361004,test,2,0,80,3,52,0,862,38,57,0
80918,12:37:21,210361004,test,2,1,82,12,21,1,621,40,57,0
80918,12:37:21,210361004,test,2,1,84,9,63,0,733,39,57,0
80918,12:37:21,210361004,test,2,0,86,11,39,1,566,39,60,0
80918,12:37:21,210361004,test,2,1,88,1,3,1,658,41,60,0
80918,12:37:21,210361004,test,2,0,90,4,1,0,622,41,57,0
80918,12:37:21,210361004,test,2,1,92,5,51,0,1155,40,57,0
80918,12:37:21,210361004,test,2,0,94,12,58,1,1248,40,59,0
80918,12:37:21,210361004,test,2,0,96,5,4,0,1335,40,56,0
80918,12:37:21,210361004,test,2,1,98,7,22,1,808,42,56,0
80918,12:37:21,210361004,test,2,1,100,11,27,1,527,44,56,0
80918,12:37:21,210361004,test,2,1,102,4,24,1,522,46,56,0
80918,12:37:21,210361004,test,2,1,104,8,18,1,1937,48,56,0
80918,12:37:21,210361004,test,2,0,106,2,56,0,943,48,54,0
80918,12:37:21,210361004,test,2,0,108,3,55,0,711,48,52,0
80918,12:37:21,210361004,test,2,0,110,1,7,0,1235,48,50,0
80918,12:37:21,210361004,test,2,1,112,2,36,1,566,50,50,0
80918,12:37:21,210361004,test,2,0,114,6,28,1,1885,50,51,0
80918,12:37:21,210361004,test,2,0,116,7,12,1,1419,50,53,0
80918,12:37:21,210361004,test,2,1,118,6,9,1,463,51,53,0
80918,12:37:21,210361004,test,2,0,120,9,26,0,538,51,51,0
80918,12:37:21,210361004,test,2,0,122,10,59,1,676,51,53,0
80918,12:37:21,210361004,test,2,0,124,8,10,0,701,51,51,0
80918,12:37:21,210361004,test,2,1,126,5,48,0,501,50,51,0
80918,12:37:21,210361004,test,2,1,128,9,1,0,642,48,51,0
80918,12:37:21,210361004,test,2,0,130,12,56,0,454,48,50,0
80918,12:37:21,210361004,test,2,1,132,3,13,1,786,50,50,0
80918,12:37:21,210361004,test,2,0,134,6,62,0,598,50,48,0
80918,12:37:21,210361004,test,2,0,136,2,7,0,1436,50,47,0
80918,12:37:21,210361004,test,2,1,138,4,37,1,865,51,47,0
80918,12:37:21,210361004,test,2,1,140,6,6,1,1055,52,47,0
80918,12:37:21,210361004,test,2,0,142,3,42,0,645,52,45,0
80918,12:37:21,210361004,test,2,0,144,9,49,1,739,52,47,0
80918,12:39:37,24223154,test,2,0,2,12,5,0,1892,0,0,1
80918,12:39:37,24223154,test,2,1,4,1,22,1,936,100,0,1
80918,12:39:37,24223154,test,2,1,6,10,10,1,959,100,0,0
80918,12:39:37,24223154,test,2,0,8,8,40,0,1315,100,0,1
80918,12:39:37,24223154,test,2,0,10,11,9,1,1259,100,33,0
80918,12:39:37,24223154,test,2,1,12,5,38,1,854,100,33,1
80918,12:39:37,24223154,test,2,1,14,2,13,1,741,100,33,1
80918,12:39:37,24223154,test,2,0,16,1,57,0,1162,100,25,0
80918,12:39:37,24223154,test,2,1,18,9,28,1,587,100,25,1
80918,12:39:37,24223154,test,2,1,20,8,65,0,1110,83,25,0
80918,12:39:37,24223154,test,2,0,22,6,18,0,1022,83,20,0
80918,12:39:37,24223154,test,2,0,24,9,11,1,723,83,33,1
80918,12:39:37,24223154,test,2,1,26,12,12,1,714,85,33,0
80918,12:39:37,24223154,test,2,0,28,2,53,0,1293,85,28,1
80918,12:39:37,24223154,test,2,0,30,11,30,1,1209,85,37,0
80918,12:39:37,24223154,test,2,0,32,3,54,0,1049,85,33,1
80918,12:39:37,24223154,test,2,1,34,8,71,0,1115,75,33,0
80918,12:39:37,24223154,test,2,0,36,10,69,1,1647,75,40,0
80918,12:39:37,24223154,test,2,1,38,9,42,1,659,77,40,0
80918,12:39:37,24223154,test,2,0,40,9,64,1,1659,77,45,0
80918,12:39:37,24223154,test,2,0,42,5,6,1,896,77,50,0
80918,12:39:37,24223154,test,2,1,44,7,33,1,733,80,50,0
80918,12:39:37,24223154,test,2,1,46,3,66,1,856,81,50,1
80918,12:39:37,24223154,test,2,0,48,7,8,1,1017,81,53,0
80918,12:39:37,24223154,test,2,0,50,4,50,1,1098,81,57,0
80918,12:39:37,24223154,test,2,0,52,12,68,1,944,81,60,0
80918,12:39:37,24223154,test,2,0,54,8,63,1,1308,81,62,0
80918,12:39:37,24223154,test,2,0,56,6,52,1,1371,81,64,0
80918,12:39:37,24223154,test,2,0,58,2,23,0,991,81,61,0
80918,12:39:37,24223154,test,2,0,60,1,48,1,845,81,63,0
80918,12:39:37,24223154,test,2,0,62,4,49,1,856,81,65,0
80918,12:39:37,24223154,test,2,1,64,10,72,0,972,75,65,0
80918,12:39:37,24223154,test,2,0,66,1,17,1,1480,75,66,0
80918,12:39:37,24223154,test,2,0,68,7,7,1,661,75,68,0
80918,12:39:37,24223154,test,2,1,70,12,47,1,939,76,68,0
80918,12:39:37,24223154,test,2,1,72,5,44,1,738,78,68,0
80918,12:39:37,24223154,test,2,0,74,11,56,1,665,78,69,0
80918,12:39:37,24223154,test,2,1,76,1,45,1,589,80,69,0
80918,12:39:37,24223154,test,2,1,78,6,67,0,809,75,69,0
80918,12:39:37,24223154,test,2,1,80,4,20,1,580,76,69,0
80918,12:39:37,24223154,test,2,0,82,10,51,1,673,76,70,0
80918,12:39:37,24223154,test,2,1,84,2,37,1,580,77,70,0
80918,12:39:37,24223154,test,2,1,86,11,61,1,527,78,70,0
80918,12:39:37,24223154,test,2,1,88,2,24,1,506,80,70,0
80918,12:39:37,24223154,test,2,1,90,7,19,1,497,80,70,0
80918,12:39:37,24223154,test,2,1,92,12,46,1,515,81,70,0
80918,12:39:37,24223154,test,2,0,94,6,2,1,880,81,72,0
80918,12:39:37,24223154,test,2,0,96,2,41,1,684,81,73,0
80918,12:39:37,24223154,test,2,1,98,3,36,1,499,82,73,0
80918,12:39:37,24223154,test,2,1,100,9,4,0,1645,79,73,0
80918,12:39:37,24223154,test,2,1,102,4,62,1,656,80,73,0
80918,12:39:37,24223154,test,2,1,104,1,58,1,996,80,73,0
80918,12:39:37,24223154,test,2,0,106,8,55,0,677,80,70,0
80918,12:39:37,24223154,test,2,1,108,10,21,1,466,81,70,0
80918,12:39:37,24223154,test,2,0,110,12,39,1,682,81,71,0
80918,12:39:37,24223154,test,2,0,112,9,35,1,700,81,72,0
80918,12:39:37,24223154,test,2,0,114,5,3,0,824,81,70,1
80918,12:39:37,24223154,test,2,1,116,6,70,1,707,82,70,0
80918,12:39:37,24223154,test,2,1,118,5,34,1,539,82,70,0
80918,12:39:37,24223154,test,2,1,120,8,29,1,519,83,70,0
80918,12:39:37,24223154,test,2,1,122,11,60,1,614,83,70,0
80918,12:39:37,24223154,test,2,1,124,10,16,1,693,84,70,0
80918,12:39:37,24223154,test,2,1,126,8,31,1,500,84,70,0
80918,12:39:37,24223154,test,2,1,128,1,37,1,631,85,70,0
80918,12:39:37,24223154,test,2,0,130,3,4,1,1396,85,70,0
80918,12:39:37,24223154,test,2,0,132,12,15,1,393,85,71,0
80918,12:39:37,24223154,test,2,0,134,3,64,0,769,85,69,0
80918,12:39:37,24223154,test,2,1,136,6,62,1,414,85,69,0
80918,12:39:37,24223154,test,2,0,138,8,54,1,695,85,70,0
80918,12:39:37,24223154,test,2,0,140,1,17,1,968,85,71,0
80918,12:39:37,24223154,test,2,0,142,4,50,1,470,85,72,0
80918,12:39:37,24223154,test,2,1,144,4,68,1,626,86,72,0
80918,12:39:42,833954947,test,2,1,2,5,60,1,1697,100,0,1
80918,12:39:42,833954947,test,2,1,4,11,4,0,1315,50,0,0
80918,12:39:42,833954947,test,2,0,6,8,69,0,1693,50,0,1
80918,12:39:42,833954947,test,2,0,8,12,67,0,1327,50,0,1
80918,12:39:42,833954947,test,2,1,10,3,63,1,996,66,0,1
80918,12:39:42,833954947,test,2,0,12,11,55,0,1981,66,0,1
80918,12:39:42,833954947,test,2,0,14,9,41,0,972,66,0,1
80918,12:39:42,833954947,test,2,1,16,10,32,1,778,75,0,0
80918,12:39:42,833954947,test,2,0,18,10,27,1,1249,75,20,0
80918,12:39:42,833954947,test,2,0,20,4,10,0,1844,75,16,1
80918,12:39:42,833954947,test,2,1,22,1,43,0,1606,60,16,0
80918,12:39:42,833954947,test,2,1,24,9,53,0,1303,50,16,0
80918,12:39:42,833954947,test,2,1,26,2,21,1,871,57,16,1
80918,12:39:42,833954947,test,2,0,28,6,68,1,936,57,28,0
80918,12:39:42,833954947,test,2,0,30,9,33,1,982,57,37,0
80918,12:39:42,833954947,test,2,0,32,4,28,1,1759,57,44,0
80918,12:39:42,833954947,test,2,0,34,10,51,1,1147,57,50,0
80918,12:39:42,833954947,test,2,0,36,11,35,1,1108,57,54,0
80918,12:39:42,833954947,test,2,1,38,10,47,1,1307,62,54,0
80918,12:39:42,833954947,test,2,0,40,8,6,1,1013,62,58,0
80918,12:39:42,833954947,test,2,1,42,7,9,1,732,66,58,1
80918,12:39:42,833954947,test,2,0,44,7,66,1,874,66,61,0
80918,12:39:42,833954947,test,2,1,46,9,26,0,1722,60,61,0
80918,12:39:42,833954947,test,2,1,48,2,16,1,1314,63,61,1
80918,12:39:42,833954947,test,2,1,50,4,39,1,786,66,61,0
80918,12:39:42,833954947,test,2,0,52,3,14,0,1025,66,57,1
80918,12:39:42,833954947,test,2,0,54,1,40,1,956,66,60,0
80918,12:39:42,833954947,test,2,0,56,12,50,0,962,66,56,0
80918,12:39:42,833954947,test,2,0,58,6,42,0,1202,66,52,0
80918,12:39:42,833954947,test,2,1,60,5,54,1,710,69,52,1
80918,12:39:42,833954947,test,2,1,62,12,11,1,3430,71,52,1
80918,12:39:42,833954947,test,2,0,64,5,59,0,1634,71,50,1
80918,12:39:42,833954947,test,2,1,66,11,24,1,678,73,50,1
80918,12:39:42,833954947,test,2,0,68,2,57,1,1444,73,52,0
80918,12:39:42,833954947,test,2,0,70,5,46,1,835,73,55,0
80918,12:39:42,833954947,test,2,0,72,10,72,1,751,73,57,0
80918,12:39:42,833954947,test,2,1,74,1,13,1,763,75,57,0
80918,12:39:42,833954947,test,2,0,76,7,64,0,863,75,54,1
80918,12:39:42,833954947,test,2,0,78,9,3,1,2960,75,56,0
80918,12:39:42,833954947,test,2,0,80,1,30,1,727,75,58,0
80918,12:39:42,833954947,test,2,1,82,6,49,1,685,76,58,1
80918,12:39:42,833954947,test,2,0,84,2,29,1,574,76,60,0
80918,12:39:42,833954947,test,2,1,86,8,15,0,1310,72,60,0
80918,12:39:42,833954947,test,2,0,88,11,22,1,775,72,61,0
80918,12:39:42,833954947,test,2,1,90,3,61,1,592,73,61,1
80918,12:39:42,833954947,test,2,0,92,12,37,1,795,73,62,0
80918,12:39:42,833954947,test,2,1,94,3,2,1,1225,75,62,0
80918,12:39:42,833954947,test,2,1,96,7,44,0,877,71,62,0
80918,12:39:42,833954947,test,2,1,98,9,62,0,917,68,62,0
80918,12:39:42,833954947,test,2,0,100,4,8,1,850,68,64,0
80918,12:39:42,833954947,test,2,0,102,3,1,1,803,68,65,0
80918,12:39:42,833954947,test,2,1,104,11,5,0,1615,65,65,0
80918,12:39:42,833954947,test,2,1,106,10,71,1,1339,66,65,1
80918,12:39:42,833954947,test,2,0,108,6,20,0,1115,66,63,1
80918,12:39:42,833954947,test,2,0,110,8,7,1,843,66,64,0
80918,12:39:42,833954947,test,2,1,112,6,70,1,733,68,64,1
80918,12:39:42,833954947,test,2,1,114,2,52,1,683,69,64,1
80918,12:39:42,833954947,test,2,1,116,5,18,1,1100,70,64,1
80918,12:39:42,833954947,test,2,1,118,8,34,0,1369,67,64,0
80918,12:39:42,833954947,test,2,1,120,1,12,0,1247,65,64,0
80918,12:39:42,833954947,test,2,1,122,4,36,1,753,66,64,0
80918,12:39:42,833954947,test,2,1,124,12,19,0,897,64,64,0
80918,12:39:42,833954947,test,2,0,126,12,54,1,801,64,65,0
80918,12:39:42,833954947,test,2,1,128,12,1,0,2898,62,65,0
80918,12:39:42,833954947,test,2,1,130,3,50,1,849,63,65,0
80918,12:39:42,833954947,test,2,1,132,2,5,1,1605,64,65,0
80918,12:39:42,833954947,test,2,1,134,7,67,0,959,62,65,0
80918,12:39:42,833954947,test,2,0,136,7,39,1,684,62,66,0
80918,12:39:42,833954947,test,2,1,138,1,40,0,853,61,66,0
80918,12:39:42,833954947,test,2,0,140,6,8,0,1105,61,64,0
80918,12:39:42,833954947,test,2,0,142,9,17,1,688,61,65,0
80918,12:39:42,833954947,test,2,0,144,1,34,0,1094,61,63,0
80918,12:40:22,359728694,test,2,0,2,8,61,0,981,0,0,0
80918,12:40:22,359728694,test,2,0,4,5,60,1,727,0,50,0
80918,12:40:22,359728694,test,2,0,6,10,67,1,1340,0,66,0
80918,12:40:22,359728694,test,2,1,8,9,28,0,703,0,66,0
80918,12:40:22,359728694,test,2,1,10,11,46,0,708,0,66,0
80918,12:40:22,359728694,test,2,1,12,10,31,1,857,33,66,0
80918,12:40:22,359728694,test,2,1,14,12,71,0,1320,25,66,0
80918,12:40:22,359728694,test,2,0,16,7,42,0,763,25,50,0
80918,12:40:22,359728694,test,2,1,18,1,69,0,654,20,50,0
80918,12:40:22,359728694,test,2,0,20,9,34,0,973,20,40,1
80918,12:40:22,359728694,test,2,1,22,5,33,0,872,16,40,0
80918,12:40:22,359728694,test,2,1,24,7,44,0,1110,14,40,0
80918,12:40:22,359728694,test,2,1,26,11,27,0,619,12,40,0
80918,12:40:22,359728694,test,2,0,28,11,50,0,1275,12,33,0
80918,12:40:22,359728694,test,2,1,30,3,6,1,977,22,33,0
80918,12:40:22,359728694,test,2,0,32,3,70,0,1371,22,28,0
80918,12:40:22,359728694,test,2,1,34,7,58,0,1765,20,28,0
80918,12:40:22,359728694,test,2,1,36,2,3,1,1079,27,28,0
80918,12:40:22,359728694,test,2,0,38,1,53,1,1709,27,37,0
80918,12:40:22,359728694,test,2,0,40,8,18,0,819,27,33,0
80918,12:40:22,359728694,test,2,0,42,12,37,0,715,27,30,0
80918,12:40:22,359728694,test,2,0,44,2,35,1,1719,27,36,0
80918,12:40:22,359728694,test,2,1,46,10,47,0,996,25,36,0
80918,12:40:22,359728694,test,2,0,48,7,51,0,901,25,33,1
80918,12:40:22,359728694,test,2,1,50,5,41,0,698,23,33,0
80918,12:40:22,359728694,test,2,0,52,10,15,0,728,23,30,0
80918,12:40:22,359728694,test,2,0,54,5,57,1,868,23,35,0
80918,12:40:22,359728694,test,2,1,56,1,52,1,730,28,35,0
80918,12:40:22,359728694,test,2,0,58,11,56,1,1414,28,40,0
80918,12:40:22,359728694,test,2,0,60,3,32,0,631,28,37,0
80918,12:40:22,359728694,test,2,1,62,6,24,0,655,26,37,0
80918,12:40:22,359728694,test,2,0,64,9,11,0,862,26,35,0
80918,12:40:22,359728694,test,2,0,66,6,36,0,613,26,33,0
80918,12:40:22,359728694,test,2,0,68,4,21,0,821,26,31,0
80918,12:40:22,359728694,test,2,0,70,7,5,0,805,26,30,0
80918,12:40:22,359728694,test,2,1,72,8,63,0,799,25,30,0
80918,12:40:22,359728694,test,2,1,74,12,66,0,488,23,30,0
80918,12:40:22,359728694,test,2,1,76,4,40,0,533,22,30,0
80918,12:40:22,359728694,test,2,0,78,1,54,0,513,22,28,0
80918,12:40:22,359728694,test,2,1,80,9,12,0,677,21,28,0
80918,12:40:22,359728694,test,2,0,82,2,22,0,628,21,27,0
80918,12:40:22,359728694,test,2,1,84,1,30,0,676,20,27,0
80918,12:40:22,359728694,test,2,0,86,8,29,1,1210,20,30,0
80918,12:40:22,359728694,test,2,0,88,6,55,0,730,20,29,0
80918,12:40:22,359728694,test,2,1,90,5,19,0,1167,19,29,0
80918,12:40:22,359728694,test,2,0,92,3,8,1,817,19,32,0
80918,12:40:22,359728694,test,2,1,94,3,14,0,769,18,32,0
80918,12:40:22,359728694,test,2,0,96,5,10,1,1075,18,34,0
80918,12:40:22,359728694,test,2,1,98,11,64,0,617,17,34,0
80918,12:40:22,359728694,test,2,1,100,4,9,0,593,16,34,0
80918,12:40:22,359728694,test,2,1,102,2,38,1,955,20,34,0
80918,12:40:22,359728694,test,2,0,104,12,39,0,517,20,33,0
80918,12:40:22,359728694,test,2,0,106,11,49,1,1346,20,35,0
80918,12:40:22,359728694,test,2,1,108,8,48,0,653,19,35,0
80918,12:40:22,359728694,test,2,1,110,6,17,0,428,18,35,0
80918,12:40:22,359728694,test,2,1,112,12,65,0,1068,17,35,0
80918,12:40:22,359728694,test,2,0,114,4,43,0,1138,17,34,0
80918,12:40:22,359728694,test,2,0,116,10,25,0,574,17,33,0
80918,12:40:22,359728694,test,2,1,118,9,16,0,896,17,33,0
80918,12:40:22,359728694,test,2,0,120,9,13,0,1565,17,32,1
80918,12:40:22,359728694,test,2,1,122,10,45,0,1425,16,32,0
80918,12:40:22,359728694,test,2,0,124,6,4,0,625,16,31,0
80918,12:40:22,359728694,test,2,1,126,7,58,0,777,16,31,0
80918,12:40:22,359728694,test,2,1,128,7,48,0,595,15,31,0
80918,12:40:22,359728694,test,2,1,130,8,41,0,516,15,31,0
80918,12:40:22,359728694,test,2,0,132,10,15,0,457,15,30,0
80918,12:40:22,359728694,test,2,0,134,7,38,1,1143,15,32,0
80918,12:40:22,359728694,test,2,0,136,4,7,0,955,15,31,0
80918,12:40:22,359728694,test,2,0,138,3,63,0,533,15,30,0
80918,12:40:22,359728694,test,2,1,140,9,35,0,601,14,30,0
80918,12:40:22,359728694,test,2,1,142,2,30,0,1298,14,30,0
80918,12:40:22,359728694,test,2,1,144,5,13,1,1119,16,30,0
80918,11:42:12,880653715,test,2,1,2,3,45,1,800,100,0,0
80918,11:42:12,880653715,test,2,1,4,6,12,1,1537,100,0,1
80918,11:42:12,880653715,test,2,1,6,12,71,1,879,100,0,1
80918,11:42:12,880653715,test,2,1,8,4,31,0,2741,75,0,1
80918,11:42:12,880653715,test,2,0,10,7,2,0,1262,75,0,1
80918,11:42:12,880653715,test,2,0,12,9,60,1,807,75,50,0
80918,11:42:12,880653715,test,2,1,14,8,65,1,1109,80,50,0
80918,11:42:12,880653715,test,2,0,16,8,57,1,962,80,66,0
80918,11:42:12,880653715,test,2,1,18,5,37,1,712,83,66,0
80918,11:42:12,880653715,test,2,1,20,11,47,1,968,85,66,0
80918,11:42:12,880653715,test,2,0,22,11,19,1,712,85,75,0
80918,11:42:12,880653715,test,2,0,24,5,10,1,1092,85,80,0
80918,11:42:12,880653715,test,2,0,26,6,43,0,628,85,66,1
80918,11:42:12,880653715,test,2,1,28,2,34,1,509,87,66,0
80918,11:42:12,880653715,test,2,0,30,10,25,0,608,87,57,0
80918,11:42:12,880653715,test,2,1,32,10,32,1,827,88,57,1
80918,11:42:12,880653715,test,2,0,34,3,53,0,1238,88,50,1
80918,11:42:12,880653715,test,2,1,36,8,15,1,799,90,50,0
80918,11:42:12,880653715,test,2,0,38,5,29,1,828,90,55,0
80918,11:42:12,880653715,test,2,0,40,10,11,0,1697,90,50,0
80918,11:42:12,880653715,test,2,1,42,3,50,1,805,90,50,0
80918,11:42:12,880653715,test,2,1,44,11,72,0,938,83,50,0
80918,11:42:12,880653715,test,2,1,46,5,26,1,550,84,50,0
80918,11:42:12,880653715,test,2,1,48,6,41,1,520,85,50,0
80918,11:42:12,880653715,test,2,0,50,12,16,1,530,85,54,0
80918,11:42:12,880653715,test,2,0,52,9,67,0,846,85,50,0
80918,11:42:12,880653715,test,2,0,54,6,49,1,898,85,53,0
80918,11:42:12,880653715,test,2,0,56,11,7,0,609,85,50,0
80918,11:42:12,880653715,test,2,0,58,2,14,0,2000,85,46,0
80918,11:42:12,880653715,test,2,0,60,8,1,1,731,85,50,0
80918,11:42:12,880653715,test,2,0,62,1,69,1,992,85,52,0
80918,11:42:12,880653715,test,2,1,64,12,21,1,495,86,52,0
80918,11:42:12,880653715,test,2,0,66,4,70,1,672,86,55,0
80918,11:42:12,880653715,test,2,1,68,7,59,1,544,87,55,0
80918,11:42:12,880653715,test,2,1,70,9,3,1,651,88,55,0
80918,11:42:12,880653715,test,2,1,72,4,66,1,649,88,55,0
80918,11:42:12,880653715,test,2,1,74,1,5,1,531,89,55,1
80918,11:42:12,880653715,test,2,0,76,7,48,1,1460,89,57,0
80918,11:42:12,880653715,test,2,1,78,3,27,1,547,90,57,0
80918,11:42:12,880653715,test,2,1,80,8,58,1,760,90,57,0
80918,11:42:12,880653715,test,2,1,82,12,33,0,1226,86,57,0
80918,11:42:12,880653715,test,2,1,84,6,38,0,882,82,57,0
80918,11:42:12,880653715,test,2,0,86,6,28,1,739,82,60,0
80918,11:42:12,880653715,test,2,0,88,2,40,1,1417,82,61,0
80918,11:42:12,880653715,test,2,0,90,5,35,1,873,82,63,0
80918,11:42:12,880653715,test,2,1,92,11,63,1,462,83,63,0
80918,11:42:12,880653715,test,2,0,94,11,52,1,429,83,65,0
80918,11:42:12,880653715,test,2,1,96,4,39,1,1236,84,65,0
80918,11:42:12,880653715,test,2,0,98,3,54,1,1056,84,66,1
80918,11:42:12,880653715,test,2,0,100,1,55,0,744,84,64,1
80918,11:42:12,880653715,test,2,1,102,1,68,1,460,84,64,1
80918,11:42:12,880653715,test,2,1,104,9,9,1,535,85,64,1
80918,11:42:12,880653715,test,2,1,106,10,23,0,1072,82,64,0
80918,11:42:12,880653715,test,2,0,108,8,30,1,1009,82,65,0
80918,11:42:12,880653715,test,2,1,110,5,20,1,472,82,65,0
80918,11:42:12,880653715,test,2,0,112,4,62,1,457,82,66,0
80918,11:42:12,880653715,test,2,1,114,7,64,1,477,83,66,0
80918,11:42:12,880653715,test,2,0,116,12,36,1,417,83,67,0
80918,11:42:12,880653715,test,2,1,118,2,61,1,1290,83,67,1
80918,11:42:12,880653715,test,2,0,120,10,24,1,544,83,68,0
80918,11:42:12,880653715,test,2,1,122,6,22,0,657,81,68,0
80918,11:42:12,880653715,test,2,0,124,9,8,0,843,81,66,1
80918,11:42:12,880653715,test,2,0,126,7,49,1,1076,81,67,0
80918,11:42:12,880653715,test,2,1,128,12,51,1,591,81,67,1
80918,11:42:12,880653715,test,2,0,130,5,27,1,515,81,68,0
80918,11:42:12,880653715,test,2,0,132,10,61,0,849,81,66,1
80918,11:42:12,880653715,test,2,1,134,11,30,1,1164,82,66,0
80918,11:42:12,880653715,test,2,0,136,2,18,1,1233,82,67,0
80918,11:42:12,880653715,test,2,0,138,3,7,1,1084,82,68,0
80918,11:42:12,880653715,test,2,1,140,8,67,0,1584,80,68,0
80918,11:42:12,880653715,test,2,1,142,5,9,1,470,80,68,1
80918,11:42:12,880653715,test,2,0,144,1,41,1,2160,80,69,0
80918,12:49:28,418702875,test,2,0,2,8,3,1,642,0,100,0
80918,12:49:28,418702875,test,2,0,4,11,50,1,466,0,100,0
80918,12:49:28,418702875,test,2,0,6,2,66,1,385,0,100,0
80918,12:49:28,418702875,test,2,0,8,3,51,1,511,0,100,0
80918,12:49:28,418702875,test,2,0,10,12,72,0,431,0,80,0
80918,12:49:28,418702875,test,2,1,12,12,53,1,629,100,80,0
80918,12:49:28,418702875,test,2,0,14,1,22,0,611,100,66,0
80918,12:49:28,418702875,test,2,1,16,3,63,1,617,100,66,0
80918,12:49:28,418702875,test,2,1,18,1,15,1,530,100,66,0
80918,12:49:28,418702875,test,2,0,20,9,65,1,411,100,71,0
80918,12:49:28,418702875,test,2,0,22,1,17,0,770,100,62,0
80918,12:49:28,418702875,test,2,1,24,6,38,1,1499,100,62,0
80918,12:49:28,418702875,test,2,1,26,11,55,1,546,100,62,0
80918,12:49:28,418702875,test,2,0,28,7,24,1,893,100,66,0
80918,12:49:28,418702875,test,2,1,30,5,48,1,478,100,66,0
80918,12:49:28,418702875,test,2,0,32,3,49,1,478,100,70,0
80918,12:49:28,418702875,test,2,1,34,2,45,1,409,100,70,0
80918,12:49:28,418702875,test,2,0,36,4,62,1,458,100,72,0
80918,12:49:28,418702875,test,2,0,38,6,39,1,586,100,75,0
80918,12:49:28,418702875,test,2,1,40,9,21,1,708,100,75,0
80918,12:49:28,418702875,test,2,1,42,10,44,1,471,100,75,0
80918,12:49:28,418702875,test,2,1,44,5,43,0,617,90,75,0
80918,12:49:28,418702875,test,2,1,46,12,70,0,976,81,75,0
80918,12:49:28,418702875,test,2,0,48,8,34,1,456,81,76,0
80918,12:49:28,418702875,test,2,0,50,11,28,1,644,81,78,0
80918,12:49:28,418702875,test,2,0,52,9,18,1,489,81,80,0
80918,12:49:28,418702875,test,2,1,54,4,58,1,541,83,80,0
80918,12:49:28,418702875,test,2,1,56,11,12,1,600,84,80,0
80918,12:49:28,418702875,test,2,0,58,12,59,1,501,84,81,0
80918,12:49:28,418702875,test,2,1,60,3,32,1,1058,85,81,0
80918,12:49:28,418702875,test,2,0,62,2,23,0,1064,85,76,0
80918,12:49:28,418702875,test,2,1,64,7,68,0,808,80,76,0
80918,12:49:28,418702875,test,2,1,66,2,8,1,442,81,76,0
80918,12:49:28,418702875,test,2,1,68,1,16,0,1078,76,76,0
80918,12:49:28,418702875,test,2,0,70,10,35,1,806,76,77,0
80918,12:49:28,418702875,test,2,0,72,5,36,1,777,76,78,0
80918,12:49:28,418702875,test,2,0,74,1,5,0,570,76,75,0
80918,12:49:28,418702875,test,2,1,76,8,10,1,632,77,75,0
80918,12:49:28,418702875,test,2,0,78,8,37,1,501,77,76,0
80918,12:49:28,418702875,test,2,1,80,6,47,1,508,78,76,0
80918,12:49:28,418702875,test,2,0,82,4,2,1,564,78,77,0
80918,12:49:28,418702875,test,2,0,84,5,67,1,602,78,78,0
80918,12:49:28,418702875,test,2,1,86,3,7,0,771,75,78,0
80918,12:49:28,418702875,test,2,0,88,3,33,0,574,75,75,0
80918,12:49:28,418702875,test,2,0,90,12,69,1,451,75,76,0
80918,12:49:28,418702875,test,2,0,92,2,29,1,743,75,76,0
80918,12:49:28,418702875,test,2,0,94,10,1,0,679,75,74,0
80918,12:49:28,418702875,test,2,0,96,11,40,0,812,75,71,0
80918,12:49:28,418702875,test,2,0,98,7,54,1,490,75,72,0
80918,12:49:28,418702875,test,2,1,100,1,42,1,760,76,72,0
80918,12:49:28,418702875,test,2,0,102,9,26,1,461,76,73,0
80918,12:49:28,418702875,test,2,0,104,6,4,1,504,76,74,0
80918,12:49:28,418702875,test,2,1,106,6,25,0,542,72,74,0
80918,12:49:28,418702875,test,2,1,108,10,60,1,744,73,74,0
80918,12:49:28,418702875,test,2,1,110,8,64,0,1329,70,74,0
80918,12:49:28,418702875,test,2,1,112,12,14,1,428,72,74,0
80918,12:49:28,418702875,test,2,1,114,7,56,1,433,73,74,0
80918,12:49:28,418702875,test,2,1,116,5,57,1,445,74,74,0
80918,12:49:28,418702875,test,2,0,118,11,9,1,744,74,75,0
80918,12:49:28,418702875,test,2,0,120,6,31,1,457,74,75,0
80918,12:49:28,418702875,test,2,1,122,11,11,0,583,71,75,0
80918,12:49:28,418702875,test,2,1,124,2,13,1,481,72,75,0
80918,12:49:28,418702875,test,2,1,126,9,24,1,544,73,75,0
80918,12:49:28,418702875,test,2,1,128,4,41,1,390,74,75,0
80918,12:49:28,418702875,test,2,1,130,2,45,1,383,75,75,0
80918,12:49:28,418702875,test,2,0,132,5,19,1,339,75,76,0
80918,12:49:28,418702875,test,2,1,134,5,5,0,562,72,76,0
80918,12:49:28,418702875,test,2,1,136,3,58,1,1178,73,76,0
80918,12:49:28,418702875,test,2,0,138,2,71,0,1319,73,74,0
80918,12:49:28,418702875,test,2,1,140,11,55,0,646,71,74,0
80918,12:49:28,418702875,test,2,1,142,9,16,0,673,69,74,0
80918,12:49:28,418702875,test,2,0,144,10,34,1,534,69,75,0
80918,11:52:45,376635527,test,2,1,2,10,17,0,3982,0,0,0
80918,11:52:45,376635527,test,2,0,4,7,9,1,262,0,100,0
80918,11:52:45,376635527,test,2,1,6,6,71,1,1747,50,100,0
80918,11:52:45,376635527,test,2,0,8,5,57,0,808,50,50,0
80918,11:52:45,376635527,test,2,1,10,9,58,0,705,33,50,0
80918,11:52:45,376635527,test,2,1,12,4,50,1,383,50,50,0
80918,11:52:45,376635527,test,2,0,14,3,63,0,349,50,33,0
80918,11:52:45,376635527,test,2,0,16,6,7,1,54,50,50,0
80918,11:52:45,376635527,test,2,1,18,1,42,0,238,40,50,0
80918,11:52:45,376635527,test,2,0,20,8,25,1,438,40,60,0
80918,11:52:45,376635527,test,2,0,22,9,60,0,341,40,50,0
80918,11:52:45,376635527,test,2,1,24,7,38,0,141,33,50,0
80918,11:52:45,376635527,test,2,1,26,2,62,1,231,42,50,0
80918,11:52:45,376635527,test,2,0,28,12,34,1,47,42,57,0
80918,11:52:45,376635527,test,2,1,30,2,28,0,111,37,57,0
80918,11:52:45,376635527,test,2,1,32,12,59,1,143,44,57,0
80918,11:52:45,376635527,test,2,1,34,3,4,0,210,40,57,0
80918,11:52:45,376635527,test,2,0,36,3,29,1,306,40,62,0
80918,11:52:45,376635527,test,2,0,38,5,37,0,70,40,55,0
80918,11:52:45,376635527,test,2,0,40,1,14,1,181,40,60,0
80918,11:52:45,376635527,test,2,1,42,11,35,0,199,36,60,0
80918,11:52:45,376635527,test,2,1,44,6,13,1,549,41,60,0
80918,11:52:45,376635527,test,2,1,46,7,55,0,194,38,60,0
80918,11:52:45,376635527,test,2,1,48,8,48,1,311,42,60,0
80918,11:52:45,376635527,test,2,1,50,9,2,0,268,40,60,0
80918,11:52:45,376635527,test,2,0,52,9,23,0,697,40,54,0
80918,11:52:45,376635527,test,2,0,54,10,67,1,626,40,58,0
80918,11:52:45,376635527,test,2,1,56,10,64,0,246,37,58,0
80918,11:52:45,376635527,test,2,1,58,5,49,0,252,35,58,0
80918,11:52:45,376635527,test,2,1,60,4,30,1,847,38,58,0
80918,11:52:45,376635527,test,2,0,62,6,68,0,258,38,53,0
80918,11:52:45,376635527,test,2,1,64,1,33,1,521,42,53,0
80918,11:52:45,376635527,test,2,1,66,4,1,0,933,40,53,0
80918,11:52:45,376635527,test,2,1,68,10,70,1,496,42,53,0
80918,11:52:45,376635527,test,2,1,70,8,45,1,594,45,53,0
80918,11:52:45,376635527,test,2,0,72,4,32,0,357,45,50,0
80918,11:52:45,376635527,test,2,1,74,7,22,0,49,43,50,0
80918,11:52:45,376635527,test,2,0,76,8,65,1,152,43,53,0
80918,11:52:45,376635527,test,2,1,78,12,52,1,534,45,53,0
80918,11:52:45,376635527,test,2,0,80,7,69,0,321,45,50,0
80918,11:52:45,376635527,test,2,0,82,11,11,1,450,45,52,0
80918,11:52:45,376635527,test,2,1,84,6,24,0,397,44,52,0
80918,11:52:45,376635527,test,2,0,86,12,20,1,230,44,55,0
80918,11:52:45,376635527,test,2,0,88,2,66,1,252,44,57,0
80918,11:52:45,376635527,test,2,1,90,9,46,0,319,42,57,0
80918,11:52:45,376635527,test,2,1,92,11,27,1,61,44,57,0
80918,11:52:45,376635527,test,2,1,94,3,6,0,120,42,57,0
80918,11:52:45,376635527,test,2,0,96,1,72,1,311,42,60,0
80918,11:52:45,376635527,test,2,1,98,5,44,0,433,41,60,0
80918,11:52:45,376635527,test,2,0,100,6,21,1,7,41,61,0
80918,11:52:45,376635527,test,2,1,102,2,18,1,198,43,61,0
80918,11:52:45,376635527,test,2,1,104,1,40,0,65,41,61,0
80918,11:52:45,376635527,test,2,0,106,11,43,1,1156,41,63,0
80918,11:52:45,376635527,test,2,0,108,4,56,0,332,41,60,0
80918,11:52:45,376635527,test,2,1,110,1,53,1,171,43,60,0
80918,11:52:45,376635527,test,2,0,112,2,15,0,318,43,58,0
80918,11:52:45,376635527,test,2,1,114,7,41,1,53,45,58,0
80918,11:52:45,376635527,test,2,0,116,7,19,0,12,45,56,0
80918,11:52:45,376635527,test,2,1,118,2,39,0,287,44,56,0
80918,11:52:45,376635527,test,2,0,120,3,10,1,162,44,57,0
80918,11:52:45,376635527,test,2,0,122,8,5,0,159,44,55,0
80918,11:52:45,376635527,test,2,0,124,10,54,1,219,44,57,0
80918,11:52:45,376635527,test,2,1,126,11,57,0,299,42,57,0
80918,11:52:45,376635527,test,2,0,128,5,11,1,182,42,58,0
80918,11:52:45,376635527,test,2,0,130,12,50,0,259,42,56,0
80918,11:52:45,376635527,test,2,1,132,4,1,0,353,41,56,0
80918,11:52:45,376635527,test,2,0,134,9,28,1,466,41,58,0
80918,11:52:45,376635527,test,2,0,136,3,47,0,236,41,56,0
80918,11:52:45,376635527,test,2,0,138,4,13,1,509,41,57,0
80918,11:52:45,376635527,test,2,0,140,9,17,1,719,41,58,0
80918,11:52:45,376635527,test,2,0,142,8,6,0,1491,41,57,0
80918,11:52:45,376635527,test,2,0,144,6,62,1,633,41,58,0
80918,09:54:46,675918708,test,2,1,2,12,3,1,646,100,0,1
80918,09:54:46,675918708,test,2,0,4,8,14,0,1270,100,0,0
80918,09:54:46,675918708,test,2,1,6,8,52,0,700,50,0,0
80918,09:54:46,675918708,test,2,0,8,12,44,1,1001,50,50,0
80918,09:54:46,675918708,test,2,1,10,1,11,0,785,33,50,0
80918,09:54:46,675918708,test,2,1,12,11,24,0,538,25,50,0
80918,09:54:46,675918708,test,2,1,14,5,12,0,1030,20,50,0
80918,09:54:46,675918708,test,2,0,16,4,10,1,893,20,66,1
80918,09:54:46,675918708,test,2,1,18,10,25,0,795,16,66,0
80918,09:54:46,675918708,test,2,0,20,5,1,0,836,16,50,0
80918,09:54:46,675918708,test,2,1,22,9,50,1,987,28,50,1
80918,09:54:46,675918708,test,2,0,24,2,5,0,757,28,40,0
80918,09:54:46,675918708,test,2,1,26,10,43,0,1071,25,40,0
80918,09:54:46,675918708,test,2,0,28,6,20,0,581,25,33,0
80918,09:54:46,675918708,test,2,1,30,11,61,1,425,33,33,1
80918,09:54:46,675918708,test,2,1,32,5,40,1,536,40,33,1
80918,09:54:46,675918708,test,2,0,34,9,32,0,739,40,28,0
80918,09:54:46,675918708,test,2,1,36,8,48,0,606,36,28,0
80918,09:54:46,675918708,test,2,0,38,5,19,1,928,36,37,0
80918,09:54:46,675918708,test,2,0,40,2,60,0,530,36,33,1
80918,09:54:46,675918708,test,2,1,42,4,42,0,863,33,33,0
80918,09:54:46,675918708,test,2,0,44,12,51,0,854,33,30,1
80918,09:54:46,675918708,test,2,0,46,7,53,1,572,33,36,0
80918,09:54:46,675918708,test,2,0,48,9,36,0,542,33,33,1
80918,09:54:46,675918708,test,2,1,50,12,68,1,858,38,33,0
80918,09:54:46,675918708,test,2,0,52,4,15,0,704,38,30,0
80918,09:54:46,675918708,test,2,0,54,3,49,0,549,38,28,1
80918,09:54:46,675918708,test,2,0,56,8,17,1,752,38,33,0
80918,09:54:46,675918708,test,2,1,58,7,28,1,699,42,33,1
80918,09:54:46,675918708,test,2,1,60,9,64,0,640,40,33,0
80918,09:54:46,675918708,test,2,1,62,2,71,0,711,37,33,0
80918,09:54:46,675918708,test,2,0,64,1,62,0,396,37,31,0
80918,09:54:46,675918708,test,2,1,66,6,65,0,1069,35,31,0
80918,09:54:46,675918708,test,2,1,68,3,27,0,579,33,31,0
80918,09:54:46,675918708,test,2,1,70,1,34,1,404,36,31,1
80918,09:54:46,675918708,test,2,1,72,10,59,1,750,40,31,1
80918,09:54:46,675918708,test,2,0,74,6,29,0,289,40,29,0
80918,09:54:46,675918708,test,2,1,76,9,66,0,511,38,29,0
80918,09:54:46,675918708,test,2,1,78,3,31,1,1050,40,29,1
80918,09:54:46,675918708,test,2,1,80,1,26,1,450,43,29,1
80918,09:54:46,675918708,test,2,0,82,10,18,0,442,43,27,1
80918,09:54:46,675918708,test,2,1,84,5,9,1,720,45,27,0
80918,09:54:46,675918708,test,2,0,86,11,35,0,436,45,26,0
80918,09:54:46,675918708,test,2,0,88,4,16,1,691,45,30,0
80918,09:54:46,675918708,test,2,1,90,7,55,1,328,48,30,1
80918,09:54:46,675918708,test,2,0,92,10,4,0,589,48,28,1
80918,09:54:46,675918708,test,2,0,94,6,63,0,455,48,27,0
80918,09:54:46,675918708,test,2,1,96,6,6,0,693,46,27,0
80918,09:54:46,675918708,test,2,1,98,2,54,1,978,48,27,1
80918,09:54:46,675918708,test,2,1,100,12,2,0,1685,46,27,0
80918,09:54:46,675918708,test,2,1,102,8,22,0,738,44,27,0
80918,09:54:46,675918708,test,2,1,104,4,67,0,637,43,27,0
80918,09:54:46,675918708,test,2,0,106,2,46,0,876,43,26,1
80918,09:54:46,675918708,test,2,0,108,9,37,0,914,43,25,1
80918,09:54:46,675918708,test,2,0,110,8,72,1,1111,43,28,0
80918,09:54:46,675918708,test,2,0,112,1,38,1,500,43,30,0
80918,09:54:46,675918708,test,2,0,114,11,39,0,496,43,29,0
80918,09:54:46,675918708,test,2,0,116,7,21,1,1254,43,32,0
80918,09:54:46,675918708,test,2,1,118,11,69,1,420,45,32,1
80918,09:54:46,675918708,test,2,0,120,12,8,0,644,45,31,0
80918,09:54:46,675918708,test,2,0,122,5,45,0,483,45,30,0
80918,09:54:46,675918708,test,2,1,124,12,70,1,793,46,30,1
80918,09:54:46,675918708,test,2,1,126,3,37,1,490,48,30,1
80918,09:54:46,675918708,test,2,0,128,3,7,0,720,48,29,0
80918,09:54:46,675918708,test,2,0,130,10,53,0,469,48,28,0
80918,09:54:46,675918708,test,2,0,132,5,68,0,490,48,27,0
80918,09:54:46,675918708,test,2,0,134,4,33,0,607,48,26,0
80918,09:54:46,675918708,test,2,1,136,6,59,0,704,47,26,0
80918,09:54:46,675918708,test,2,0,138,7,39,0,460,47,25,0
80918,09:54:46,675918708,test,2,1,140,10,15,1,418,48,25,1
80918,09:54:46,675918708,test,2,1,142,7,12,1,507,50,25,1
80918,09:54:46,675918708,test,2,0,144,12,38,0,496,50,25,0
80918,12:54:24,956349113,test,2,0,2,6,1,0,2172,0,0,1
80918,12:54:24,956349113,test,2,0,4,10,63,0,541,0,0,1
80918,12:54:24,956349113,test,2,0,6,9,41,0,524,0,0,1
80918,12:54:24,956349113,test,2,0,8,3,66,0,365,0,0,1
80918,12:54:24,956349113,test,2,0,10,2,28,0,397,0,0,1
80918,12:54:24,956349113,test,2,0,12,11,71,0,417,0,0,1
80918,12:54:24,956349113,test,2,0,14,8,35,0,359,0,0,1
80918,12:54:24,956349113,test,2,0,16,10,72,0,221,0,0,1
80918,12:54:24,956349113,test,2,0,18,12,55,0,194,0,0,1
80918,12:54:24,956349113,test,2,0,20,4,62,0,246,0,0,1
80918,12:54:24,956349113,test,2,1,22,7,5,1,304,100,0,1
80918,12:54:24,956349113,test,2,1,24,9,34,1,700,100,0,1
80918,12:54:24,956349113,test,2,1,26,2,13,1,437,100,0,1
80918,12:54:24,956349113,test,2,1,28,4,49,0,441,75,0,1
80918,12:54:24,956349113,test,2,0,30,1,8,0,378,75,0,1
80918,12:54:24,956349113,test,2,1,32,1,51,1,696,80,0,1
80918,12:54:24,956349113,test,2,0,34,7,57,0,416,80,0,1
80918,12:54:24,956349113,test,2,0,36,9,24,0,869,80,0,1
80918,12:54:24,956349113,test,2,1,38,6,43,1,664,83,0,1
80918,12:54:24,956349113,test,2,1,40,3,61,1,350,85,0,1
80918,12:54:24,956349113,test,2,1,42,2,6,1,516,87,0,1
80918,12:54:24,956349113,test,2,0,44,2,42,0,408,87,0,1
80918,12:54:24,956349113,test,2,1,46,12,18,0,603,77,0,1
80918,12:54:24,956349113,test,2,1,48,6,53,1,407,80,0,1
80918,12:54:24,956349113,test,2,1,50,10,15,1,421,81,0,1
80918,12:54:24,956349113,test,2,1,52,11,69,1,251,83,0,1
80918,12:54:24,956349113,test,2,1,54,8,68,1,393,84,0,1
80918,12:54:24,956349113,test,2,0,56,5,3,0,447,84,0,1
80918,12:54:24,956349113,test,2,0,58,8,40,0,440,84,0,1
80918,12:54:24,956349113,test,2,0,60,11,50,0,556,84,0,1
80918,12:54:24,956349113,test,2,1,62,7,48,1,264,85,0,1
80918,12:54:24,956349113,test,2,1,64,4,38,0,417,80,0,1
80918,12:54:24,956349113,test,2,1,66,5,19,1,517,81,0,1
80918,12:54:24,956349113,test,2,0,68,6,11,0,426,81,0,1
80918,12:54:24,956349113,test,2,0,70,3,10,0,334,81,0,1
80918,12:54:24,956349113,test,2,0,72,12,16,0,371,81,0,1
80918,12:54:24,956349113,test,2,0,74,7,56,0,464,81,0,1
80918,12:54:24,956349113,test,2,0,76,2,31,0,327,81,0,1
80918,12:54:24,956349113,test,2,1,78,3,22,1,459,82,0,1
80918,12:54:24,956349113,test,2,0,80,9,27,0,368,82,0,1
80918,12:54:24,956349113,test,2,1,82,9,9,1,967,83,0,1
80918,12:54:24,956349113,test,2,1,84,1,32,1,280,84,0,1
80918,12:54:24,956349113,test,2,1,86,10,52,1,349,85,0,1
80918,12:54:24,956349113,test,2,0,88,11,47,1,577,85,4,1
80918,12:54:24,956349113,test,2,1,90,2,12,1,493,85,4,1
80918,12:54:24,956349113,test,2,1,92,8,23,1,368,86,4,1
80918,12:54:24,956349113,test,2,1,94,5,37,1,304,86,4,1
80918,12:54:24,956349113,test,2,1,96,4,58,0,643,83,4,1
80918,12:54:24,956349113,test,2,0,98,4,30,0,323,83,4,1
80918,12:54:24,956349113,test,2,0,100,6,25,0,377,83,3,1
80918,12:54:24,956349113,test,2,0,102,8,20,0,380,83,3,1
80918,12:54:24,956349113,test,2,1,104,11,4,1,304,84,3,1
80918,12:54:24,956349113,test,2,1,106,7,45,1,228,84,3,1
80918,12:54:24,956349113,test,2,0,108,3,39,0,291,84,3,1
80918,12:54:24,956349113,test,2,1,110,9,14,0,445,81,3,1
80918,12:54:24,956349113,test,2,1,112,3,44,1,304,82,3,1
80918,12:54:24,956349113,test,2,1,114,1,21,1,227,82,3,1
80918,12:54:24,956349113,test,2,1,116,12,54,1,470,83,3,1
80918,12:54:24,956349113,test,2,0,118,5,17,0,373,83,3,1
80918,12:54:24,956349113,test,2,1,120,6,29,1,185,83,3,1
80918,12:54:24,956349113,test,2,0,122,10,36,0,338,83,3,1
80918,12:54:24,956349113,test,2,0,124,1,2,0,386,83,3,1
80918,12:54:24,956349113,test,2,0,126,4,14,0,417,83,3,1
80918,12:54:24,956349113,test,2,1,128,4,57,0,314,81,3,1
80918,12:54:24,956349113,test,2,0,130,10,68,0,294,81,3,1
80918,12:54:24,956349113,test,2,1,132,8,13,1,403,81,3,1
80918,12:54:24,956349113,test,2,0,134,8,51,0,283,81,2,1
80918,12:54:24,956349113,test,2,1,136,12,1,1,595,82,2,1
80918,12:54:24,956349113,test,2,1,138,7,59,1,448,82,2,1
80918,12:54:24,956349113,test,2,0,140,3,24,0,250,82,2,1
80918,12:54:24,956349113,test,2,1,142,1,70,1,291,83,2,1
80918,12:54:24,956349113,test,2,0,144,12,58,0,344,83,2,1
80918,11:57:31,73938476,test,2,0,2,9,43,0,446,0,0,1
80918,11:57:31,73938476,test,2,1,4,7,48,0,58,0,0,1
80918,11:57:31,73938476,test,2,0,6,6,40,1,54,0,50,1
80918,11:57:31,73938476,test,2,1,8,4,30,0,209,0,50,1
80918,11:57:31,73938476,test,2,0,10,5,32,1,176,0,66,1
80918,11:57:31,73938476,test,2,0,12,4,22,0,247,0,50,1
80918,11:57:31,73938476,test,2,1,14,10,4,0,523,0,50,0
80918,11:57:31,73938476,test,2,1,16,8,60,0,467,0,50,1
80918,11:57:31,73938476,test,2,0,18,8,72,0,206,0,40,1
80918,11:57:31,73938476,test,2,1,20,12,34,0,12,0,40,1
80918,11:57:31,73938476,test,2,0,22,11,2,1,186,0,50,1
80918,11:57:31,73938476,test,2,1,24,1,50,1,569,16,50,0
80918,11:57:31,73938476,test,2,0,26,12,20,1,2144,16,57,1
80918,11:57:31,73938476,test,2,0,28,7,38,1,127,16,62,1
80918,11:57:31,73938476,test,2,0,30,5,8,1,256,16,66,1
80918,11:57:31,73938476,test,2,1,32,2,70,1,1332,28,66,1
80918,11:57:31,73938476,test,2,1,34,12,7,1,355,37,66,1
80918,11:57:31,73938476,test,2,0,36,10,59,1,2491,37,70,1
80918,11:57:31,73938476,test,2,0,38,8,33,0,451,37,63,1
80918,11:57:31,73938476,test,2,1,40,2,49,0,263,33,63,1
80918,11:57:31,73938476,test,2,0,42,1,12,1,235,33,66,1
80918,11:57:31,73938476,test,2,1,44,9,21,0,632,30,66,1
80918,11:57:31,73938476,test,2,1,46,5,18,0,4,27,66,1
80918,11:57:31,73938476,test,2,0,48,3,57,1,354,27,69,1
80918,11:57:31,73938476,test,2,1,50,8,39,0,226,25,69,1
80918,11:57:31,73938476,test,2,1,52,7,44,1,103,30,69,1
80918,11:57:31,73938476,test,2,1,54,3,46,1,1048,35,69,1
80918,11:57:31,73938476,test,2,0,56,6,62,0,365,35,64,1
80918,11:57:31,73938476,test,2,0,58,11,55,0,404,35,60,1
80918,11:57:31,73938476,test,2,1,60,4,6,1,129,40,60,1
80918,11:57:31,73938476,test,2,0,62,4,19,0,123,40,56,1
80918,11:57:31,73938476,test,2,1,64,11,54,1,171,43,56,1
80918,11:57:31,73938476,test,2,0,66,2,29,1,114,43,58,1
80918,11:57:31,73938476,test,2,0,68,12,36,0,165,43,55,1
80918,11:57:31,73938476,test,2,1,70,1,10,1,92,47,55,1
80918,11:57:31,73938476,test,2,1,72,10,3,1,46,50,55,1
80918,11:57:31,73938476,test,2,1,74,6,42,1,35,52,55,1
80918,11:57:31,73938476,test,2,1,76,10,26,0,177,50,55,1
80918,11:57:31,73938476,test,2,1,78,2,67,0,200,47,55,1
80918,11:57:31,73938476,test,2,0,80,9,45,0,7134,47,52,1
80918,11:57:31,73938476,test,2,1,82,1,35,1,40,50,52,1
80918,11:57:31,73938476,test,2,1,84,3,15,1,1165,52,52,0
80918,11:57:31,73938476,test,2,0,86,10,13,0,802,52,50,1
80918,11:57:31,73938476,test,2,0,88,5,23,0,640,52,47,1
80918,11:57:31,73938476,test,2,1,90,9,1,0,1116,50,47,1
80918,11:57:31,73938476,test,2,0,92,11,27,0,661,50,45,1
80918,11:57:31,73938476,test,2,1,94,5,47,1,672,52,45,1
80918,11:57:31,73938476,test,2,0,96,4,71,0,1307,52,43,1
80918,11:57:31,73938476,test,2,1,98,6,37,1,531,53,43,1
80918,11:57:31,73938476,test,2,0,100,7,56,0,732,53,41,1
80918,11:57:31,73938476,test,2,0,102,12,25,1,581,53,44,1
80918,11:57:31,73938476,test,2,1,104,4,69,0,1091,51,44,1
80918,11:57:31,73938476,test,2,1,106,12,28,1,861,53,44,0
80918,11:57:31,73938476,test,2,1,108,8,16,1,1183,55,44,1
80918,11:57:31,73938476,test,2,0,110,6,41,1,493,55,46,1
80918,11:57:31,73938476,test,2,1,112,11,53,1,496,56,46,1
80918,11:57:31,73938476,test,2,0,114,2,52,0,561,56,44,1
80918,11:57:31,73938476,test,2,0,116,3,31,0,577,56,42,1
80918,11:57:31,73938476,test,2,0,118,9,14,0,583,56,41,1
80918,11:57:31,73938476,test,2,1,120,7,58,1,1078,58,41,0
80918,11:57:31,73938476,test,2,0,122,1,5,0,959,58,40,0
80918,11:57:31,73938476,test,2,1,124,10,9,0,3806,56,40,0
80918,11:57:31,73938476,test,2,1,126,2,33,1,712,57,40,1
80918,11:57:31,73938476,test,2,0,128,8,11,0,794,57,38,1
80918,11:57:31,73938476,test,2,0,130,11,7,0,1112,57,37,0
80918,11:57:31,73938476,test,2,0,132,12,36,0,2071,57,36,0
80918,11:57:31,73938476,test,2,0,134,4,25,1,521,57,38,0
80918,11:57:31,73938476,test,2,1,136,3,20,0,961,55,38,0
80918,11:57:31,73938476,test,2,0,138,1,30,1,496,55,40,0
80918,11:57:31,73938476,test,2,1,140,4,4,1,281,57,40,0
80918,11:57:31,73938476,test,2,0,142,6,66,1,83,57,41,0
80918,11:57:31,73938476,test,2,1,144,11,51,0,310,55,41,0
80918,11:57:37,72372970,test,2,0,2,3,29,0,1059,0,0,0
80918,11:57:37,72372970,test,2,1,4,4,51,1,1100,100,0,1
80918,11:57:37,72372970,test,2,0,6,9,38,1,1018,100,50,0
80918,11:57:37,72372970,test,2,1,8,1,7,1,1051,100,50,0
80918,11:57:37,72372970,test,2,1,10,3,45,0,860,66,50,0
80918,11:57:37,72372970,test,2,1,12,12,57,1,812,75,50,0
80918,11:57:37,72372970,test,2,1,14,5,68,1,926,80,50,0
80918,11:57:37,72372970,test,2,0,16,10,8,0,563,80,33,0
80918,11:57:37,72372970,test,2,1,18,6,54,1,1127,83,33,0
80918,11:57:37,72372970,test,2,1,20,8,53,0,708,71,33,0
80918,11:57:37,72372970,test,2,1,22,2,39,0,1562,62,33,0
80918,11:57:37,72372970,test,2,1,24,12,50,1,1015,66,33,0
80918,11:57:37,72372970,test,2,0,26,4,49,0,1312,66,25,1
80918,11:57:37,72372970,test,2,0,28,6,34,0,1910,66,20,1
80918,11:57:37,72372970,test,2,0,30,8,69,0,813,66,16,1
80918,11:57:37,72372970,test,2,0,32,2,6,1,688,66,28,0
80918,11:57:37,72372970,test,2,0,34,5,66,0,813,66,25,1
80918,11:57:37,72372970,test,2,0,36,7,60,0,577,66,22,1
80918,11:57:37,72372970,test,2,1,38,3,65,1,941,70,22,0
80918,11:57:37,72372970,test,2,1,40,9,43,1,1121,72,22,0
80918,11:57:37,72372970,test,2,0,42,8,47,0,502,72,20,1
80918,11:57:37,72372970,test,2,0,44,2,48,0,557,72,18,0
80918,11:57:37,72372970,test,2,0,46,9,21,1,698,72,25,0
80918,11:57:37,72372970,test,2,1,48,10,64,0,1144,66,25,0
80918,11:57:37,72372970,test,2,1,50,7,19,1,710,69,25,1
80918,11:57:37,72372970,test,2,0,52,4,18,0,539,69,23,1
80918,11:57:37,72372970,test,2,0,54,1,16,0,720,69,21,0
80918,11:57:37,72372970,test,2,0,56,11,67,1,798,69,26,0
80918,11:57:37,72372970,test,2,0,58,10,33,1,880,69,31,0
80918,11:57:37,72372970,test,2,0,60,3,36,0,1112,69,29,0
80918,11:57:37,72372970,test,2,1,62,5,14,1,1014,71,29,0
80918,11:57:37,72372970,test,2,1,64,6,13,0,753,66,29,0
80918,11:57:37,72372970,test,2,0,66,6,31,0,780,66,27,1
80918,11:57:37,72372970,test,2,1,68,11,25,0,1000,62,27,0
80918,11:57:37,72372970,test,2,0,70,12,41,0,1122,62,26,0
80918,11:57:37,72372970,test,2,0,72,6,26,0,687,62,25,1
80918,11:57:37,72372970,test,2,1,74,4,28,0,1007,58,25,0
80918,11:57:37,72372970,test,2,1,76,8,22,0,969,55,25,0
80918,11:57:37,72372970,test,2,1,78,1,46,0,1076,52,25,0
80918,11:57:37,72372970,test,2,0,80,7,32,0,963,52,23,1
80918,11:57:37,72372970,test,2,1,82,2,40,0,1288,50,23,0
80918,11:57:37,72372970,test,2,0,84,10,3,0,1758,50,22,0
80918,11:57:37,72372970,test,2,0,86,9,23,0,699,50,21,0
80918,11:57:37,72372970,test,2,1,88,1,61,1,834,52,21,0
80918,11:57:37,72372970,test,2,0,90,4,70,0,538,52,20,1
80918,11:57:37,72372970,test,2,1,92,6,24,0,758,50,20,0
80918,11:57:37,72372970,test,2,1,94,5,35,0,1099,47,20,0
80918,11:57:37,72372970,test,2,0,96,11,63,1,720,47,24,0
80918,11:57:37,72372970,test,2,0,98,12,15,0,654,47,23,0
80918,11:57:37,72372970,test,2,1,100,4,30,1,765,50,23,0
80918,11:57:37,72372970,test,2,0,102,8,27,0,433,50,22,1
80918,11:57:37,72372970,test,2,1,104,10,59,1,890,52,22,0
80918,11:57:37,72372970,test,2,1,106,11,11,1,1529,53,22,0
80918,11:57:37,72372970,test,2,0,108,1,17,0,575,53,21,1
80918,11:57:37,72372970,test,2,1,110,9,12,1,699,55,21,0
80918,11:57:37,72372970,test,2,0,112,5,37,0,544,55,20,1
80918,11:57:37,72372970,test,2,1,114,8,55,0,1166,53,20,0
80918,11:57:37,72372970,test,2,1,116,12,4,1,689,55,20,0
80918,11:57:37,72372970,test,2,0,118,3,10,0,784,55,20,0
80918,11:57:37,72372970,test,2,0,120,2,58,1,762,55,22,0
80918,11:57:37,72372970,test,2,0,122,12,71,1,814,55,25,0
80918,11:57:37,72372970,test,2,1,124,7,42,1,688,56,25,1
80918,11:57:37,72372970,test,2,1,126,3,63,1,735,58,25,0
80918,11:57:37,72372970,test,2,0,128,10,60,0,604,58,24,0
80918,11:57:37,72372970,test,2,0,130,3,1,1,1566,58,26,0
80918,11:57:37,72372970,test,2,1,132,3,15,0,826,56,26,0
80918,11:57:37,72372970,test,2,0,134,9,39,0,1123,56,25,0
80918,11:57:37,72372970,test,2,1,136,11,2,1,720,57,25,0
80918,11:57:37,72372970,test,2,0,138,11,29,0,1029,57,25,0
80918,11:57:37,72372970,test,2,1,140,1,71,0,1030,55,25,0
80918,11:57:37,72372970,test,2,1,142,5,49,0,1224,54,25,0
80918,11:57:37,72372970,test,2,1,144,10,4,1,994,55,25,0
80918,12:59:31,37441758,test,2,1,2,3,4,1,445,100,0,1
80918,12:59:31,37441758,test,2,0,4,4,19,0,810,100,0,1
80918,12:59:31,37441758,test,2,1,6,1,26,1,362,100,0,1
80918,12:59:31,37441758,test,2,1,8,8,28,0,722,66,0,1
80918,12:59:31,37441758,test,2,0,10,5,55,0,626,66,0,1
80918,12:59:31,37441758,test,2,0,12,6,2,0,620,66,0,1
80918,12:59:31,37441758,test,2,0,14,12,67,0,634,66,0,1
80918,12:59:31,37441758,test,2,0,16,7,22,0,521,66,0,1
80918,12:59:31,37441758,test,2,1,18,6,44,1,531,75,0,1
80918,12:59:31,37441758,test,2,0,20,2,9,0,414,75,0,1
80918,12:59:31,37441758,test,2,1,22,5,39,1,804,80,0,1
80918,12:59:31,37441758,test,2,1,24,7,12,1,675,83,0,1
80918,12:59:31,37441758,test,2,1,26,12,1,1,671,85,0,1
80918,12:59:31,37441758,test,2,0,28,11,6,0,1249,85,0,0
80918,12:59:31,37441758,test,2,0,30,11,35,0,1288,85,0,0
80918,12:59:31,37441758,test,2,1,32,1,60,1,384,87,0,1
80918,12:59:31,37441758,test,2,0,34,2,58,0,876,87,0,1
80918,12:59:31,37441758,test,2,1,36,3,52,1,295,88,0,1
80918,12:59:31,37441758,test,2,0,38,3,63,0,406,88,0,1
80918,12:59:31,37441758,test,2,1,40,11,36,0,1906,80,0,0
80918,12:59:31,37441758,test,2,0,42,6,29,0,712,80,0,1
80918,12:59:31,37441758,test,2,1,44,8,31,0,646,72,0,1
80918,12:59:31,37441758,test,2,0,46,5,65,0,1191,72,0,1
80918,12:59:31,37441758,test,2,1,48,2,70,1,436,75,0,1
80918,12:59:31,37441758,test,2,1,50,6,59,1,529,76,0,1
80918,12:59:31,37441758,test,2,0,52,12,16,0,755,76,0,1
80918,12:59:31,37441758,test,2,1,54,9,38,1,339,78,0,1
80918,12:59:31,37441758,test,2,1,56,7,5,1,321,80,0,1
80918,12:59:31,37441758,test,2,1,58,12,40,1,358,81,0,1
80918,12:59:31,37441758,test,2,1,60,5,46,1,318,82,0,1
80918,12:59:31,37441758,test,2,1,62,4,42,1,1428,83,0,1
80918,12:59:31,37441758,test,2,1,64,10,43,1,446,84,0,1
80918,12:59:31,37441758,test,2,0,66,9,57,1,710,84,7,1
80918,12:59:31,37441758,test,2,0,68,8,32,0,495,84,6,1
80918,12:59:31,37441758,test,2,1,70,12,72,0,739,80,6,1
80918,12:59:31,37441758,test,2,0,72,1,62,0,460,80,6,1
80918,12:59:31,37441758,test,2,0,74,10,56,0,631,80,5,1
80918,12:59:31,37441758,test,2,1,76,8,15,0,394,76,5,1
80918,12:59:31,37441758,test,2,0,78,7,14,0,342,76,5,1
80918,12:59:31,37441758,test,2,0,80,4,33,0,429,76,5,1
80918,12:59:31,37441758,test,2,1,82,5,3,1,365,77,5,1
80918,12:59:31,37441758,test,2,1,84,6,10,1,432,78,5,1
80918,12:59:31,37441758,test,2,0,86,12,17,0,408,78,5,1
80918,12:59:31,37441758,test,2,1,88,4,18,1,336,79,5,1
80918,12:59:31,37441758,test,2,0,90,8,61,0,229,79,4,1
80918,12:59:31,37441758,test,2,1,92,2,7,1,264,80,4,1
80918,12:59:31,37441758,test,2,0,94,10,66,0,357,80,4,1
80918,12:59:31,37441758,test,2,1,96,3,64,1,147,80,4,1
80918,12:59:31,37441758,test,2,1,98,9,49,1,323,81,4,1
80918,12:59:31,37441758,test,2,1,100,1,30,1,246,82,4,1
80918,12:59:31,37441758,test,2,0,102,6,11,0,366,82,4,1
80918,12:59:31,37441758,test,2,1,104,11,23,1,322,82,4,1
80918,12:59:31,37441758,test,2,0,106,5,37,0,262,82,4,1
80918,12:59:31,37441758,test,2,0,108,7,48,0,134,82,4,1
80918,12:59:31,37441758,test,2,1,110,7,13,1,316,83,4,1
80918,12:59:31,37441758,test,2,0,112,3,27,0,284,83,3,1
80918,12:59:31,37441758,test,2,1,114,10,34,1,197,83,3,1
80918,12:59:31,37441758,test,2,0,116,11,45,0,778,83,3,1
80918,12:59:31,37441758,test,2,0,118,1,25,0,318,83,3,1
80918,12:59:31,37441758,test,2,0,120,4,53,0,353,83,3,1
80918,12:59:31,37441758,test,2,0,122,9,8,0,684,83,3,1
80918,12:59:31,37441758,test,2,0,124,2,71,0,476,83,3,1
80918,12:59:31,37441758,test,2,0,126,2,23,0,299,83,3,1
80918,12:59:31,37441758,test,2,0,128,9,46,0,478,83,3,1
80918,12:59:31,37441758,test,2,0,130,5,31,0,395,83,2,1
80918,12:59:31,37441758,test,2,1,132,8,50,0,343,81,2,1
80918,12:59:31,37441758,test,2,0,134,6,30,0,318,81,2,1
80918,12:59:31,37441758,test,2,0,136,12,54,0,391,81,2,1
80918,12:59:31,37441758,test,2,1,138,9,69,1,456,81,2,1
80918,12:59:31,37441758,test,2,1,140,5,41,1,300,82,2,1
80918,12:59:31,37441758,test,2,1,142,11,52,1,215,82,2,1
80918,12:59:31,37441758,test,2,1,144,7,48,1,281,83,2,1
80918,13:00:04,879040610,test,2,1,2,3,4,1,787,100,0,1
80918,13:00:04,879040610,test,2,1,4,4,2,1,532,100,0,0
80918,13:00:04,879040610,test,2,0,6,3,38,0,608,100,0,0
80918,13:00:04,879040610,test,2,1,8,11,55,1,464,100,0,0
80918,13:00:04,879040610,test,2,0,10,6,44,0,639,100,0,0
80918,13:00:04,879040610,test,2,0,12,2,1,1,983,100,33,0
80918,13:00:04,879040610,test,2,1,14,5,18,0,728,75,33,0
80918,13:00:04,879040610,test,2,0,16,12,39,1,402,75,50,0
80918,13:00:04,879040610,test,2,0,18,9,61,1,533,75,60,0
80918,13:00:04,879040610,test,2,0,20,10,50,1,495,75,66,0
80918,13:00:04,879040610,test,2,0,22,5,66,1,550,75,71,0
80918,13:00:04,879040610,test,2,1,24,1,11,0,911,60,71,0
80918,13:00:04,879040610,test,2,0,26,3,19,1,708,60,75,0
80918,13:00:04,879040610,test,2,1,28,8,9,1,472,66,75,0
80918,13:00:04,879040610,test,2,0,30,8,16,1,638,66,77,0
80918,13:00:04,879040610,test,2,1,32,7,49,1,534,71,77,0
80918,13:00:04,879040610,test,2,1,34,12,40,1,545,75,77,0
80918,13:00:04,879040610,test,2,1,36,11,31,0,1324,66,77,0
80918,13:00:04,879040610,test,2,0,38,5,53,1,457,66,80,0
80918,13:00:04,879040610,test,2,0,40,2,71,1,748,66,81,0
80918,13:00:04,879040610,test,2,0,42,10,48,1,472,66,83,0
80918,13:00:04,879040610,test,2,0,44,12,70,0,766,66,76,0
80918,13:00:04,879040610,test,2,1,46,1,36,1,474,70,76,0
80918,13:00:04,879040610,test,2,1,48,8,15,1,441,72,76,0
80918,13:00:04,879040610,test,2,1,50,7,32,1,798,75,76,0
80918,13:00:04,879040610,test,2,0,52,11,45,0,671,75,71,0
80918,13:00:04,879040610,test,2,1,54,5,64,1,661,76,71,0
80918,13:00:04,879040610,test,2,0,56,1,25,0,660,76,66,0
80918,13:00:04,879040610,test,2,1,58,9,69,1,346,78,66,0
80918,13:00:04,879040610,test,2,0,60,9,60,0,494,78,62,0
80918,13:00:04,879040610,test,2,1,62,10,63,1,387,80,62,0
80918,13:00:04,879040610,test,2,1,64,3,22,0,524,75,62,0
80918,13:00:04,879040610,test,2,0,66,7,67,0,768,75,58,0
80918,13:00:04,879040610,test,2,1,68,4,17,1,434,76,58,0
80918,13:00:04,879040610,test,2,0,70,6,68,1,498,76,61,0
80918,13:00:04,879040610,test,2,1,72,6,59,1,503,77,61,0
80918,13:00:04,879040610,test,2,1,74,2,62,1,468,78,61,0
80918,13:00:04,879040610,test,2,0,76,4,72,0,522,78,57,0
80918,13:00:04,879040610,test,2,1,78,4,35,1,585,80,57,0
80918,13:00:04,879040610,test,2,1,80,6,34,1,759,80,57,0
80918,13:00:04,879040610,test,2,0,82,5,8,0,690,80,55,0
80918,13:00:04,879040610,test,2,0,84,6,7,0,847,80,52,0
80918,13:00:04,879040610,test,2,1,86,12,58,1,662,81,52,0
80918,13:00:04,879040610,test,2,1,88,9,41,1,495,82,52,0
80918,13:00:04,879040610,test,2,1,90,7,29,1,490,83,52,0
80918,13:00:04,879040610,test,2,1,92,1,23,0,519,80,52,0
80918,13:00:04,879040610,test,2,0,94,12,30,0,603,80,50,0
80918,13:00:04,879040610,test,2,0,96,4,56,1,587,80,52,0
80918,13:00:04,879040610,test,2,0,98,11,43,1,1237,80,54,0
80918,13:00:04,879040610,test,2,1,100,3,37,1,620,80,54,0
80918,13:00:04,879040610,test,2,0,102,2,21,1,484,80,56,0
80918,13:00:04,879040610,test,2,0,104,7,3,0,1465,80,53,0
80918,13:00:04,879040610,test,2,1,106,2,12,0,728,77,53,0
80918,13:00:04,879040610,test,2,0,108,3,42,1,716,77,55,0
80918,13:00:04,879040610,test,2,1,110,11,47,1,480,78,55,0
80918,13:00:04,879040610,test,2,0,112,10,6,1,646,78,57,0
80918,13:00:04,879040610,test,2,0,114,1,33,0,516,78,55,0
80918,13:00:04,879040610,test,2,1,116,5,54,0,753,75,55,0
80918,13:00:04,879040610,test,2,0,118,8,5,0,763,75,53,0
80918,13:00:04,879040610,test,2,1,120,10,28,0,518,73,53,0
80918,13:00:04,879040610,test,2,1,122,8,65,1,746,74,53,0
80918,13:00:04,879040610,test,2,1,124,3,26,1,693,75,53,0
80918,13:00:04,879040610,test,2,0,126,9,28,0,763,75,51,0
80918,13:00:04,879040610,test,2,1,128,8,11,0,634,72,51,0
80918,13:00:04,879040610,test,2,0,130,11,10,1,750,72,53,0
80918,13:00:04,879040610,test,2,1,132,6,35,1,511,73,53,0
80918,13:00:04,879040610,test,2,0,134,10,12,0,636,73,51,0
80918,13:00:04,879040610,test,2,0,136,1,15,1,500,73,52,0
80918,13:00:04,879040610,test,2,1,138,11,16,1,672,74,52,0
80918,13:00:04,879040610,test,2,0,140,5,60,1,862,74,54,0
80918,13:00:04,879040610,test,2,1,142,5,32,1,883,75,54,0
80918,13:00:04,879040610,test,2,0,144,2,70,0,714,75,52,0
80918,12:03:36,414118202,test,2,1,2,7,26,1,648,100,0,0
80918,12:03:36,414118202,test,2,0,4,5,25,1,709,100,100,0
80918,12:03:36,414118202,test,2,1,6,12,41,1,906,100,100,0
80918,12:03:36,414118202,test,2,1,8,11,42,0,1247,66,100,0
80918,12:03:36,414118202,test,2,0,10,12,51,1,951,66,100,0
80918,12:03:36,414118202,test,2,0,12,4,9,1,858,66,100,0
80918,12:03:36,414118202,test,2,1,14,6,5,0,948,50,100,0
80918,12:03:36,414118202,test,2,0,16,7,65,0,1827,50,75,1
80918,12:03:36,414118202,test,2,0,18,6,69,0,2422,50,60,0
80918,12:03:36,414118202,test,2,0,20,10,2,1,898,50,66,0
80918,12:03:36,414118202,test,2,0,22,9,15,1,978,50,71,0
80918,12:03:36,414118202,test,2,0,24,10,45,0,1748,50,62,1
80918,12:03:36,414118202,test,2,1,26,3,13,1,729,60,62,1
80918,12:03:36,414118202,test,2,0,28,11,22,1,958,60,66,0
80918,12:03:36,414118202,test,2,1,30,9,31,1,1227,66,66,1
80918,12:03:36,414118202,test,2,1,32,1,14,0,2061,57,66,0
80918,12:03:36,414118202,test,2,1,34,12,53,0,1266,50,66,0
80918,12:03:36,414118202,test,2,1,36,5,30,1,757,55,66,1
80918,12:03:36,414118202,test,2,1,38,7,7,0,1543,50,66,0
80918,12:03:36,414118202,test,2,0,40,7,16,0,1157,50,60,0
80918,12:03:36,414118202,test,2,0,42,9,21,1,818,50,63,0
80918,12:03:36,414118202,test,2,1,44,4,54,1,1099,54,63,0
80918,12:03:36,414118202,test,2,0,46,12,56,1,1497,54,66,0
80918,12:03:36,414118202,test,2,0,48,5,43,0,738,54,61,0
80918,12:03:36,414118202,test,2,0,50,6,24,1,702,54,64,0
80918,12:03:36,414118202,test,2,1,52,3,50,1,656,58,64,1
80918,12:03:36,414118202,test,2,0,54,4,61,0,994,58,60,0
80918,12:03:36,414118202,test,2,0,56,2,37,0,1627,58,56,1
80918,12:03:36,414118202,test,2,1,58,2,44,0,1438,53,56,0
80918,12:03:36,414118202,test,2,0,60,1,35,1,1168,53,58,0
80918,12:03:36,414118202,test,2,0,62,8,48,0,2028,53,55,1
80918,12:03:36,414118202,test,2,1,64,6,71,1,772,57,55,0
80918,12:03:36,414118202,test,2,1,66,10,72,1,578,60,55,0
80918,12:03:36,414118202,test,2,1,68,8,55,0,977,56,55,0
80918,12:03:36,414118202,test,2,1,70,9,67,1,631,58,55,1
80918,12:03:36,414118202,test,2,1,72,1,33,1,578,61,55,1
80918,12:03:36,414118202,test,2,0,74,3,29,0,1063,61,52,1
80918,12:03:36,414118202,test,2,1,76,11,12,1,613,63,52,0
80918,12:03:36,414118202,test,2,1,78,9,47,1,798,65,52,1
80918,12:03:36,414118202,test,2,0,80,5,8,1,1565,65,55,0
80918,12:03:36,414118202,test,2,0,82,3,3,0,1058,65,52,1
80918,12:03:36,414118202,test,2,1,84,7,46,1,623,66,52,0
80918,12:03:36,414118202,test,2,1,86,10,27,1,498,68,52,0
80918,12:03:36,414118202,test,2,0,88,4,58,0,678,68,50,0
80918,12:03:36,414118202,test,2,1,90,11,40,0,1058,65,50,0
80918,12:03:36,414118202,test,2,0,92,10,57,0,2018,65,47,0
80918,12:03:36,414118202,test,2,0,94,12,68,1,1060,65,50,0
80918,12:03:36,414118202,test,2,0,96,8,39,1,748,65,52,0
80918,12:03:36,414118202,test,2,0,98,9,20,0,1669,65,50,1
80918,12:03:36,414118202,test,2,0,100,6,23,1,741,65,51,0
80918,12:03:36,414118202,test,2,1,102,4,70,0,829,62,51,0
80918,12:03:36,414118202,test,2,0,104,1,18,0,878,62,50,0
80918,12:03:36,414118202,test,2,1,106,1,63,1,657,64,50,1
80918,12:03:36,414118202,test,2,1,108,5,66,1,773,65,50,1
80918,12:03:36,414118202,test,2,0,110,11,19,0,1304,65,48,0
80918,12:03:36,414118202,test,2,1,112,8,10,0,928,62,48,0
80918,12:03:36,414118202,test,2,0,114,2,64,0,1268,62,46,1
80918,12:03:36,414118202,test,2,0,116,7,1,0,1664,62,45,0
80918,12:03:36,414118202,test,2,0,118,10,59,1,887,62,46,0
80918,12:03:36,414118202,test,2,0,120,5,17,1,707,62,48,0
80918,12:03:36,414118202,test,2,1,122,2,38,0,1317,60,48,0
80918,12:03:36,414118202,test,2,1,124,6,62,1,728,62,48,0
80918,12:03:36,414118202,test,2,1,126,12,28,1,1928,63,48,0
80918,12:03:36,414118202,test,2,1,128,3,7,1,1039,64,48,1
80918,12:03:36,414118202,test,2,1,130,12,15,0,1283,62,48,0
80918,12:03:36,414118202,test,2,1,132,9,43,1,1309,63,48,1
80918,12:03:36,414118202,test,2,1,134,11,27,1,664,64,48,0
80918,12:03:36,414118202,test,2,0,136,11,22,1,1168,64,50,0
80918,12:03:36,414118202,test,2,0,138,3,59,0,941,64,48,1
80918,12:03:36,414118202,test,2,0,140,12,34,0,974,64,47,0
80918,12:03:36,414118202,test,2,1,142,2,68,1,877,65,47,0
80918,12:03:36,414118202,test,2,1,144,4,20,1,2188,66,47,0
80918,04:17:10,204470556,test,2,0,2,5,28,1,1044,0,100,0
80918,04:17:10,204470556,test,2,1,4,7,51,1,1258,100,100,1
80918,04:17:10,204470556,test,2,0,6,8,18,0,1767,100,50,1
80918,04:17:10,204470556,test,2,1,8,6,43,1,582,100,50,1
80918,04:17:10,204470556,test,2,0,10,7,52,1,535,100,66,1
80918,04:17:10,204470556,test,2,0,12,6,48,0,802,100,50,1
80918,04:17:10,204470556,test,2,1,14,12,1,1,426,100,50,1
80918,04:17:10,204470556,test,2,1,16,4,65,0,290,75,50,1
80918,04:17:10,204470556,test,2,1,18,10,69,1,176,80,50,1
80918,04:17:10,204470556,test,2,1,20,3,6,1,858,83,50,1
80918,04:17:10,204470556,test,2,1,22,9,7,1,87,85,50,1
80918,04:17:10,204470556,test,2,1,24,10,41,0,413,75,50,1
80918,04:17:10,204470556,test,2,0,26,3,44,1,758,75,60,1
80918,04:17:10,204470556,test,2,1,28,2,38,1,583,77,60,1
80918,04:17:10,204470556,test,2,0,30,1,54,0,241,77,50,1
80918,04:17:10,204470556,test,2,1,32,1,23,0,665,70,50,1
80918,04:17:10,204470556,test,2,0,34,11,24,1,478,70,57,1
80918,04:17:10,204470556,test,2,1,36,5,42,0,372,63,57,1
80918,04:17:10,204470556,test,2,0,38,10,10,0,582,63,50,1
80918,04:17:10,204470556,test,2,0,40,3,47,1,343,63,55,1
80918,04:17:10,204470556,test,2,1,42,9,70,1,635,66,55,1
80918,04:17:10,204470556,test,2,0,44,4,55,1,274,66,60,1
80918,04:17:10,204470556,test,2,1,46,6,26,0,40,61,60,1
80918,04:17:10,204470556,test,2,0,48,9,31,1,168,61,63,1
80918,04:17:10,204470556,test,2,0,50,5,16,1,427,61,66,1
80918,04:17:10,204470556,test,2,1,52,3,60,0,162,57,66,1
80918,04:17:10,204470556,test,2,0,54,7,14,0,101,57,61,1
80918,04:17:10,204470556,test,2,0,56,11,3,1,19,57,64,1
80918,04:17:10,204470556,test,2,1,58,12,59,1,323,60,64,1
80918,04:17:10,204470556,test,2,1,60,8,68,1,279,62,64,1
80918,04:17:10,204470556,test,2,1,62,4,4,0,53,58,64,1
80918,04:17:10,204470556,test,2,1,64,11,62,1,261,61,64,1
80918,04:17:10,204470556,test,2,0,66,8,40,1,68,61,66,1
80918,04:17:10,204470556,test,2,0,68,6,8,1,722,61,68,1
80918,04:17:10,204470556,test,2,1,70,7,15,1,613,63,68,1
80918,04:17:10,204470556,test,2,1,72,7,61,1,1061,65,68,1
80918,04:17:10,204470556,test,2,1,74,6,57,0,434,61,68,1
80918,04:17:10,204470556,test,2,0,76,1,45,1,450,61,70,1
80918,04:17:10,204470556,test,2,0,78,12,21,0,289,61,66,1
80918,04:17:10,204470556,test,2,1,80,3,39,1,287,63,66,1
80918,04:17:10,204470556,test,2,1,82,1,30,1,324,65,66,1
80918,04:17:10,204470556,test,2,0,84,2,66,1,368,65,68,1
80918,04:17:10,204470556,test,2,1,86,2,22,1,363,66,68,1
80918,04:17:10,204470556,test,2,0,88,12,32,1,925,66,70,1
80918,04:17:10,204470556,test,2,1,90,5,64,1,1056,68,70,1
80918,04:17:10,204470556,test,2,0,92,4,2,0,1173,68,66,1
80918,04:17:10,204470556,test,2,1,94,12,36,0,1261,65,66,1
80918,04:17:10,204470556,test,2,0,96,7,53,0,969,65,63,1
80918,04:17:10,204470556,test,2,1,98,10,11,1,443,66,63,1
80918,04:17:10,204470556,test,2,0,100,8,46,0,522,66,60,1
80918,04:17:10,204470556,test,2,0,102,5,67,1,37,66,62,1
80918,04:17:10,204470556,test,2,1,104,11,71,1,21,67,62,1
80918,04:17:10,204470556,test,2,0,106,1,49,1,366,67,64,1
80918,04:17:10,204470556,test,2,1,108,8,72,1,185,68,64,1
80918,04:17:10,204470556,test,2,1,110,4,33,1,338,70,64,1
80918,04:17:10,204470556,test,2,0,112,6,25,0,910,70,61,1
80918,04:17:10,204470556,test,2,0,114,3,9,1,17,70,62,1
80918,04:17:10,204470556,test,2,0,116,9,50,0,210,70,60,1
80918,04:17:10,204470556,test,2,0,118,10,29,1,2339,70,62,1
80918,04:17:10,204470556,test,2,1,120,9,13,1,75,70,62,1
80918,04:17:10,204470556,test,2,0,122,2,63,1,1737,70,63,1
80918,04:17:10,204470556,test,2,0,124,11,56,0,442,70,61,1
80918,04:17:10,204470556,test,2,0,126,12,11,1,529,70,62,1
80918,04:17:10,204470556,test,2,0,128,1,17,1,573,70,63,1
80918,04:17:10,204470556,test,2,1,130,11,14,1,462,71,63,1
80918,04:17:10,204470556,test,2,0,132,10,61,1,484,71,64,1
80918,04:17:10,204470556,test,2,0,134,8,31,1,266,71,65,1
80918,04:17:10,204470556,test,2,1,136,4,47,1,1049,72,65,1
80918,04:17:10,204470556,test,2,0,138,11,36,0,831,72,63,1
80918,04:17:10,204470556,test,2,1,140,6,65,1,229,73,63,1
80918,04:17:10,204470556,test,2,1,142,5,56,1,734,74,63,1
80918,04:17:10,204470556,test,2,1,144,8,5,0,313,72,63,1
80918,13:08:13,257035865,test,2,1,2,12,46,1,2779,100,0,1
80918,13:08:13,257035865,test,2,0,4,9,43,1,1677,100,100,1
80918,13:08:13,257035865,test,2,1,6,6,7,0,1002,50,100,0
80918,13:08:13,257035865,test,2,0,8,10,68,1,1004,50,100,1
80918,13:08:13,257035865,test,2,0,10,12,26,1,1076,50,100,1
80918,13:08:13,257035865,test,2,1,12,2,54,0,469,33,100,0
80918,13:08:13,257035865,test,2,0,14,7,24,1,1026,33,100,1
80918,13:08:13,257035865,test,2,1,16,4,11,1,849,50,100,1
80918,13:08:13,257035865,test,2,1,18,1,1,0,762,40,100,0
80918,13:08:13,257035865,test,2,0,20,2,52,1,462,40,100,1
80918,13:08:13,257035865,test,2,1,22,5,57,0,596,33,100,0
80918,13:08:13,257035865,test,2,0,24,1,34,1,918,33,100,1
80918,13:08:13,257035865,test,2,0,26,6,36,1,1229,33,100,1
80918,13:08:13,257035865,test,2,1,28,9,6,0,457,28,100,0
80918,13:08:13,257035865,test,2,0,30,12,51,1,430,28,100,1
80918,13:08:13,257035865,test,2,0,32,6,70,1,410,28,100,1
80918,13:08:13,257035865,test,2,0,34,2,72,1,364,28,100,1
80918,13:08:13,257035865,test,2,1,36,10,65,0,492,25,100,0
80918,13:08:13,257035865,test,2,0,38,3,44,1,831,25,100,1
80918,13:08:13,257035865,test,2,1,40,9,63,0,452,22,100,0
80918,13:08:13,257035865,test,2,0,42,1,12,1,434,22,100,1
80918,13:08:13,257035865,test,2,1,44,11,49,0,425,20,100,0
80918,13:08:13,257035865,test,2,0,46,5,40,1,698,20,100,1
80918,13:08:13,257035865,test,2,1,48,8,33,0,399,18,100,0
80918,13:08:13,257035865,test,2,0,50,11,35,1,1406,18,100,1
80918,13:08:13,257035865,test,2,1,52,1,69,0,318,16,100,0
80918,13:08:13,257035865,test,2,1,54,3,38,0,391,15,100,0
80918,13:08:13,257035865,test,2,1,56,12,21,1,1286,21,100,1
80918,13:08:13,257035865,test,2,1,58,6,62,0,408,20,100,0
80918,13:08:13,257035865,test,2,0,60,7,60,1,524,20,100,1
80918,13:08:13,257035865,test,2,0,62,9,10,1,706,20,100,1
80918,13:08:13,257035865,test,2,0,64,10,31,1,343,20,100,1
80918,13:08:13,257035865,test,2,0,66,8,8,1,256,20,100,1
80918,13:08:13,257035865,test,2,0,68,4,64,1,173,20,100,1
80918,13:08:13,257035865,test,2,0,70,1,48,1,345,20,100,1
80918,13:08:13,257035865,test,2,1,72,5,15,0,352,18,100,0
80918,13:08:13,257035865,test,2,0,74,2,71,1,240,18,100,1
80918,13:08:13,257035865,test,2,0,76,10,14,1,487,18,100,1
80918,13:08:13,257035865,test,2,0,78,5,25,1,535,18,100,1
80918,13:08:13,257035865,test,2,1,80,4,5,1,510,23,100,1
80918,13:08:13,257035865,test,2,1,82,7,17,0,600,22,100,0
80918,13:08:13,257035865,test,2,1,84,2,13,0,338,21,100,0
80918,13:08:13,257035865,test,2,0,86,11,47,1,392,21,100,1
80918,13:08:13,257035865,test,2,0,88,9,27,1,620,21,100,1
80918,13:08:13,257035865,test,2,1,90,6,37,0,473,20,100,0
80918,13:08:13,257035865,test,2,0,92,4,42,1,273,20,100,1
80918,13:08:13,257035865,test,2,1,94,5,23,0,536,19,100,0
80918,13:08:13,257035865,test,2,1,96,2,2,0,777,18,100,0
80918,13:08:13,257035865,test,2,1,98,12,19,1,601,21,100,1
80918,13:08:13,257035865,test,2,1,100,11,58,0,363,20,100,0
80918,13:08:13,257035865,test,2,1,102,9,3,0,399,20,100,0
80918,13:08:13,257035865,test,2,0,104,6,32,1,290,20,100,1
80918,13:08:13,257035865,test,2,1,106,3,41,0,342,19,100,0
80918,13:08:13,257035865,test,2,0,108,12,39,1,269,19,100,1
80918,13:08:13,257035865,test,2,0,110,3,9,1,271,19,100,1
80918,13:08:13,257035865,test,2,0,112,7,22,1,236,19,100,1
80918,13:08:13,257035865,test,2,0,114,8,16,1,340,19,100,1
80918,13:08:13,257035865,test,2,1,116,4,28,1,378,22,100,1
80918,13:08:13,257035865,test,2,1,118,10,55,0,266,21,100,0
80918,13:08:13,257035865,test,2,1,120,7,4,0,367,20,100,0
80918,13:08:13,257035865,test,2,1,122,8,30,0,375,20,100,0
80918,13:08:13,257035865,test,2,1,124,1,67,0,346,19,100,0
80918,13:08:13,257035865,test,2,1,126,7,7,0,181,18,100,0
80918,13:08:13,257035865,test,2,0,128,1,69,1,331,18,100,1
80918,13:08:13,257035865,test,2,0,130,9,63,1,404,18,100,1
80918,13:08:13,257035865,test,2,1,132,5,35,0,343,18,100,1
80918,13:08:13,257035865,test,2,0,134,12,36,1,323,18,100,1
80918,13:08:13,257035865,test,2,1,136,2,49,0,227,17,100,0
80918,13:08:13,257035865,test,2,1,138,9,14,0,141,17,100,0
80918,13:08:13,257035865,test,2,1,140,1,31,0,68,16,100,0
80918,13:08:13,257035865,test,2,0,142,6,54,1,167,16,100,1
80918,13:08:13,257035865,test,2,0,144,5,41,1,262,16,100,1
80918,13:08:22,612719567,test,2,0,2,7,27,1,696,0,100,1
80918,13:08:22,612719567,test,2,0,4,2,62,0,439,0,50,1
80918,13:08:22,612719567,test,2,1,6,3,69,1,735,100,50,1
80918,13:08:22,612719567,test,2,1,8,7,33,1,403,100,50,1
80918,13:08:22,612719567,test,2,0,10,10,17,0,383,100,33,1
80918,13:08:22,612719567,test,2,1,12,12,25,1,416,100,33,1
80918,13:08:22,612719567,test,2,0,14,11,5,1,2318,100,50,0
80918,13:08:22,612719567,test,2,1,16,6,50,1,2204,100,50,1
80918,13:08:22,612719567,test,2,1,18,2,39,1,369,100,50,1
80918,13:08:22,612719567,test,2,1,20,5,44,0,597,83,50,1
80918,13:08:22,612719567,test,2,1,22,8,37,0,671,71,50,1
80918,13:08:22,612719567,test,2,1,24,4,67,0,421,62,50,1
80918,13:08:22,612719567,test,2,0,26,12,23,0,497,62,40,1
80918,13:08:22,612719567,test,2,1,28,5,56,0,2260,55,40,0
80918,13:08:22,612719567,test,2,0,30,3,46,0,1089,55,33,1
80918,13:08:22,612719567,test,2,1,32,1,70,1,241,60,33,1
80918,13:08:22,612719567,test,2,1,34,8,35,0,507,54,33,1
80918,13:08:22,612719567,test,2,0,36,9,16,0,543,54,28,1
80918,13:08:22,612719567,test,2,0,38,8,65,0,350,54,25,1
80918,13:08:22,612719567,test,2,1,40,10,26,1,916,58,25,1
80918,13:08:22,612719567,test,2,1,42,11,71,1,1679,61,25,1
80918,13:08:22,612719567,test,2,1,44,6,19,1,913,64,25,1
80918,13:08:22,612719567,test,2,1,46,2,31,1,334,66,25,1
80918,13:08:22,612719567,test,2,0,48,11,68,0,422,66,22,1
80918,13:08:22,612719567,test,2,0,50,5,40,0,342,66,20,1
80918,13:08:22,612719567,test,2,0,52,9,38,0,275,66,18,1
80918,13:08:22,612719567,test,2,1,54,9,2,1,527,68,18,1
80918,13:08:22,612719567,test,2,0,56,6,49,0,332,68,16,1
80918,13:08:22,612719567,test,2,1,58,7,42,1,274,70,16,1
80918,13:08:22,612719567,test,2,1,60,3,15,1,419,72,16,1
80918,13:08:22,612719567,test,2,0,62,4,63,0,406,72,15,1
80918,13:08:22,612719567,test,2,1,64,12,36,1,284,73,15,1
80918,13:08:22,612719567,test,2,1,66,8,6,0,334,70,15,1
80918,13:08:22,612719567,test,2,0,68,12,52,0,416,70,14,1
80918,13:08:22,612719567,test,2,1,70,4,13,0,375,66,14,1
80918,13:08:22,612719567,test,2,1,72,11,41,1,280,68,14,1
80918,13:08:22,612719567,test,2,0,74,1,9,0,294,68,13,1
80918,13:08:22,612719567,test,2,1,76,1,14,1,341,69,13,1
80918,13:08:22,612719567,test,2,1,78,12,4,1,334,70,13,1
80918,13:08:22,612719567,test,2,1,80,6,21,1,356,72,13,1
80918,13:08:22,612719567,test,2,0,82,7,29,0,371,72,12,1
80918,13:08:22,612719567,test,2,1,84,2,53,1,284,73,12,1
80918,13:08:22,612719567,test,2,1,86,7,20,1,357,74,12,1
80918,13:08:22,612719567,test,2,0,88,3,51,0,1112,74,11,1
80918,13:08:22,612719567,test,2,1,90,10,59,1,980,75,11,1
80918,13:08:22,612719567,test,2,0,92,2,58,0,437,75,11,1
80918,13:08:22,612719567,test,2,1,94,9,28,1,4152,75,11,1
80918,13:08:22,612719567,test,2,1,96,5,66,1,1485,76,11,1
80918,13:08:22,612719567,test,2,0,98,10,43,0,299,76,10,1
80918,13:08:22,612719567,test,2,0,100,5,30,0,432,76,10,1
80918,13:08:22,612719567,test,2,1,102,3,1,1,399,77,10,1
80918,13:08:22,612719567,test,2,0,104,10,12,0,391,77,9,1
80918,13:08:22,612719567,test,2,0,106,6,45,0,428,77,9,1
80918,13:08:22,612719567,test,2,1,108,5,32,1,440,78,9,1
80918,13:08:22,612719567,test,2,0,110,11,64,0,342,78,8,1
80918,13:08:22,612719567,test,2,0,112,2,55,0,446,78,8,1
80918,13:08:22,612719567,test,2,0,114,4,48,0,364,78,8,1
80918,13:08:22,612719567,test,2,0,116,3,47,0,355,78,7,1
80918,13:08:22,612719567,test,2,0,118,12,72,0,387,78,7,1
80918,13:08:22,612719567,test,2,0,120,1,24,0,344,78,7,1
80918,13:08:22,612719567,test,2,0,122,8,61,0,409,78,6,1
80918,13:08:22,612719567,test,2,0,124,9,57,0,309,78,6,1
80918,13:08:22,612719567,test,2,1,126,4,4,0,418,75,6,1
80918,13:08:22,612719567,test,2,1,128,2,48,1,352,76,6,1
80918,13:08:22,612719567,test,2,1,130,1,21,1,314,77,6,1
80918,13:08:22,612719567,test,2,0,132,7,7,0,420,77,6,1
80918,13:08:22,612719567,test,2,0,134,6,56,0,408,77,6,1
80918,13:08:22,612719567,test,2,0,136,7,9,0,629,77,6,1
80918,13:08:22,612719567,test,2,0,138,8,64,0,709,77,5,1
80918,13:08:22,612719567,test,2,0,140,10,39,0,699,77,5,1
80918,13:08:22,612719567,test,2,0,142,12,25,0,682,77,5,1
80918,13:08:22,612719567,test,2,1,144,3,53,1,391,77,5,1
80918,10:09:46,861245923,test,2,1,2,4,14,0,663,0,0,0
80918,10:09:46,861245923,test,2,0,4,8,53,0,737,0,0,0
80918,10:09:46,861245923,test,2,1,6,1,11,0,846,0,0,0
80918,10:09:46,861245923,test,2,0,8,4,52,0,957,0,0,0
80918,10:09:46,861245923,test,2,0,10,1,21,0,1656,0,0,0
80918,10:09:46,861245923,test,2,0,12,12,37,1,764,0,25,0
80918,10:09:46,861245923,test,2,0,14,7,44,0,792,0,20,0
80918,10:09:46,861245923,test,2,0,16,10,58,0,976,0,16,0
80918,10:09:46,861245923,test,2,1,18,2,8,1,630,33,16,1
80918,10:09:46,861245923,test,2,1,20,11,50,1,885,50,16,0
80918,10:09:46,861245923,test,2,0,22,3,36,1,567,50,28,0
80918,10:09:46,861245923,test,2,1,24,6,1,0,758,40,28,0
80918,10:09:46,861245923,test,2,0,26,11,20,0,782,40,25,0
80918,10:09:46,861245923,test,2,1,28,5,54,0,842,33,25,0
80918,10:09:46,861245923,test,2,1,30,9,26,0,608,28,25,0
80918,10:09:46,861245923,test,2,0,32,4,31,0,996,28,22,0
80918,10:09:46,861245923,test,2,0,34,6,16,0,1087,28,20,1
80918,10:09:46,861245923,test,2,0,36,9,32,1,659,28,27,0
80918,10:09:46,861245923,test,2,0,38,7,48,0,787,28,25,0
80918,10:09:46,861245923,test,2,1,40,10,3,1,1077,37,25,0
80918,10:09:46,861245923,test,2,0,42,3,63,1,1075,37,30,0
80918,10:09:46,861245923,test,2,0,44,1,29,1,574,37,35,0
80918,10:09:46,861245923,test,2,1,46,4,39,1,507,44,35,0
80918,10:09:46,861245923,test,2,0,48,8,49,1,509,44,40,0
80918,10:09:46,861245923,test,2,0,50,10,19,1,623,44,43,0
80918,10:09:46,861245923,test,2,0,52,12,34,0,966,44,41,0
80918,10:09:46,861245923,test,2,0,54,5,45,0,750,44,38,0
80918,10:09:46,861245923,test,2,1,56,1,72,1,1456,50,38,1
80918,10:09:46,861245923,test,2,1,58,12,69,1,625,54,38,0
80918,10:09:46,861245923,test,2,0,60,2,62,0,725,54,36,1
80918,10:09:46,861245923,test,2,1,62,6,64,0,847,50,36,0
80918,10:09:46,861245923,test,2,1,64,9,9,1,582,53,36,0
80918,10:09:46,861245923,test,2,1,66,2,71,0,746,50,36,0
80918,10:09:46,861245923,test,2,1,68,8,41,0,937,46,36,0
80918,10:09:46,861245923,test,2,0,70,7,38,0,1323,46,35,1
80918,10:09:46,861245923,test,2,0,72,5,4,0,1070,46,33,1
80918,10:09:46,861245923,test,2,0,74,3,46,1,732,46,36,0
80918,10:09:46,861245923,test,2,0,76,6,35,1,537,46,39,0
80918,10:09:46,861245923,test,2,1,78,7,6,1,599,50,39,1
80918,10:09:46,861245923,test,2,1,80,5,68,1,503,52,39,1
80918,10:09:46,861245923,test,2,0,82,11,60,0,742,52,37,0
80918,10:09:46,861245923,test,2,1,84,11,57,1,575,55,37,0
80918,10:09:46,861245923,test,2,0,86,4,55,0,582,55,36,1
80918,10:09:46,861245923,test,2,0,88,2,25,0,3438,55,34,1
80918,10:09:46,861245923,test,2,0,90,10,28,1,624,55,37,0
80918,10:09:46,861245923,test,2,0,92,1,5,0,894,55,35,0
80918,10:09:46,861245923,test,2,1,94,3,65,1,1290,57,35,1
80918,10:09:46,861245923,test,2,1,96,2,30,1,523,60,35,1
80918,10:09:46,861245923,test,2,0,98,12,43,1,669,60,37,0
80918,10:09:46,861245923,test,2,1,100,9,40,1,726,61,37,1
80918,10:09:46,861245923,test,2,0,102,9,23,1,568,61,40,0
80918,10:09:46,861245923,test,2,1,104,12,12,1,717,63,40,0
80918,10:09:46,861245923,test,2,0,106,8,18,0,1038,63,38,1
80918,10:09:46,861245923,test,2,0,108,3,2,1,741,63,40,0
80918,10:09:46,861245923,test,2,0,110,12,22,1,650,63,42,0
80918,10:09:46,861245923,test,2,1,112,8,66,0,598,60,42,1
80918,10:09:46,861245923,test,2,1,114,3,47,1,632,62,42,1
80918,10:09:46,861245923,test,2,1,116,6,70,1,536,64,42,0
80918,10:09:46,861245923,test,2,0,118,10,67,1,526,64,44,0
80918,10:09:46,861245923,test,2,0,120,8,27,1,501,64,45,0
80918,10:09:46,861245923,test,2,1,122,7,7,1,546,65,45,0
80918,10:09:46,861245923,test,2,1,124,10,42,1,707,66,45,0
80918,10:09:46,861245923,test,2,1,126,1,3,1,509,67,45,1
80918,10:09:46,861245923,test,2,1,128,4,61,1,732,68,45,0
80918,10:09:46,861245923,test,2,1,130,5,57,1,570,70,45,0
80918,10:09:46,861245923,test,2,1,132,11,53,0,776,67,45,0
80918,10:09:46,861245923,test,2,1,134,8,18,0,676,65,45,1
80918,10:09:46,861245923,test,2,1,136,2,52,1,804,66,45,1
80918,10:09:46,861245923,test,2,0,138,1,44,0,900,66,44,0
80918,10:09:46,861245923,test,2,1,140,6,5,1,666,67,44,0
80918,10:09:46,861245923,test,2,1,142,10,58,0,809,65,44,0
80918,10:09:46,861245923,test,2,1,144,3,55,1,902,66,44,1
80918,13:14:28,99792694,test,2,0,2,5,24,1,577,0,100,0
80918,13:14:28,99792694,test,2,1,4,6,50,0,649,0,100,0
80918,13:14:28,99792694,test,2,1,6,1,4,1,614,50,100,1
80918,13:14:28,99792694,test,2,0,8,7,51,1,575,50,100,0
80918,13:14:28,99792694,test,2,1,10,2,42,1,490,66,100,0
80918,13:14:28,99792694,test,2,0,12,12,52,1,535,66,100,0
80918,13:14:28,99792694,test,2,0,14,1,63,0,396,66,75,1
80918,13:14:28,99792694,test,2,0,16,2,67,1,410,66,80,0
80918,13:14:28,99792694,test,2,1,18,8,66,0,647,50,80,0
80918,13:14:28,99792694,test,2,1,20,10,18,1,547,60,80,0
80918,13:14:28,99792694,test,2,0,22,10,10,1,437,60,83,0
80918,13:14:28,99792694,test,2,0,24,9,21,0,439,60,71,1
80918,13:14:28,99792694,test,2,0,26,8,16,1,376,60,75,0
80918,13:14:28,99792694,test,2,1,28,9,57,0,411,50,75,0
80918,13:14:28,99792694,test,2,1,30,7,25,1,498,57,75,0
80918,13:14:28,99792694,test,2,0,32,3,53,0,890,57,66,1
80918,13:14:28,99792694,test,2,0,34,6,34,1,794,57,70,0
80918,13:14:28,99792694,test,2,0,36,2,39,1,532,57,72,0
80918,13:14:28,99792694,test,2,1,38,4,55,1,528,62,72,0
80918,13:14:28,99792694,test,2,0,40,1,38,0,329,62,66,1
80918,13:14:28,99792694,test,2,1,42,9,23,1,401,66,66,0
80918,13:14:28,99792694,test,2,0,44,12,68,1,362,66,69,0
80918,13:14:28,99792694,test,2,0,46,9,15,0,177,66,64,0
80918,13:14:28,99792694,test,2,0,48,5,36,1,486,66,66,0
80918,13:14:28,99792694,test,2,0,50,11,46,1,307,66,68,0
80918,13:14:28,99792694,test,2,1,52,8,19,0,294,60,68,0
80918,13:14:28,99792694,test,2,1,54,7,27,1,268,63,68,0
80918,13:14:28,99792694,test,2,0,56,4,9,1,445,63,70,0
80918,13:14:28,99792694,test,2,1,58,2,12,0,486,58,70,0
80918,13:14:28,99792694,test,2,1,60,10,47,1,392,61,70,0
80918,13:14:28,99792694,test,2,1,62,5,72,1,417,64,70,0
80918,13:14:28,99792694,test,2,1,64,12,58,0,325,60,70,1
80918,13:14:28,99792694,test,2,1,66,1,5,1,398,62,70,0
80918,13:14:28,99792694,test,2,0,68,10,33,0,567,62,66,1
80918,13:14:28,99792694,test,2,0,70,7,65,1,385,62,68,0
80918,13:14:28,99792694,test,2,1,72,11,60,1,387,64,68,0
80918,13:14:28,99792694,test,2,0,74,2,35,0,211,64,65,1
80918,13:14:28,99792694,test,2,1,76,6,2,1,444,66,65,0
80918,13:14:28,99792694,test,2,0,78,3,1,1,483,66,66,0
80918,13:14:28,99792694,test,2,0,80,11,22,1,520,66,68,0
80918,13:14:28,99792694,test,2,0,82,7,45,1,474,66,69,0
80918,13:14:28,99792694,test,2,1,84,3,49,1,317,68,69,0
80918,13:14:28,99792694,test,2,0,86,8,56,0,262,68,66,1
80918,13:14:28,99792694,test,2,0,88,12,8,1,502,68,68,0
80918,13:14:28,99792694,test,2,0,90,9,41,0,78,68,65,1
80918,13:14:28,99792694,test,2,1,92,1,69,1,503,70,65,1
80918,13:14:28,99792694,test,2,0,94,10,70,0,700,70,62,1
80918,13:14:28,99792694,test,2,0,96,5,29,1,450,70,64,0
80918,13:14:28,99792694,test,2,1,98,10,61,0,524,66,64,1
80918,13:14:28,99792694,test,2,1,100,11,43,1,479,68,64,0
80918,13:14:28,99792694,test,2,1,102,2,6,1,366,69,64,0
80918,13:14:28,99792694,test,2,1,104,8,64,0,451,66,64,0
80918,13:14:28,99792694,test,2,0,106,6,17,1,399,66,65,0
80918,13:14:28,99792694,test,2,0,108,1,28,0,228,66,63,1
80918,13:14:28,99792694,test,2,1,110,12,37,1,339,68,63,0
80918,13:14:28,99792694,test,2,1,112,4,32,1,593,69,63,0
80918,13:14:28,99792694,test,2,1,114,6,40,0,401,66,63,1
80918,13:14:28,99792694,test,2,1,116,3,31,1,308,67,63,0
80918,13:14:28,99792694,test,2,1,118,7,59,1,380,68,63,0
80918,13:14:28,99792694,test,2,1,120,9,26,1,425,70,63,0
80918,13:14:28,99792694,test,2,1,122,5,13,0,206,67,63,1
80918,13:14:28,99792694,test,2,0,124,4,3,1,320,67,64,0
80918,13:14:28,99792694,test,2,1,126,10,4,0,403,65,64,0
80918,13:14:28,99792694,test,2,1,128,5,2,1,273,66,64,0
80918,13:14:28,99792694,test,2,0,130,3,70,1,132,66,65,0
80918,13:14:28,99792694,test,2,1,132,1,54,1,439,67,65,0
80918,13:14:28,99792694,test,2,1,134,3,63,1,394,68,65,0
80918,13:14:28,99792694,test,2,0,136,7,67,1,679,68,66,0
80918,13:14:28,99792694,test,2,0,138,1,42,0,120,68,64,1
80918,13:14:28,99792694,test,2,0,140,11,9,1,449,68,65,0
80918,13:14:28,99792694,test,2,0,142,12,3,0,371,68,63,1
80918,13:14:28,99792694,test,2,1,144,6,25,0,642,66,63,1
80918,13:12:52,995276234,test,2,0,2,8,1,0,1340,0,0,0
80918,13:12:52,995276234,test,2,1,4,3,46,1,815,100,0,0
80918,13:12:52,995276234,test,2,1,6,2,67,0,1623,50,0,0
80918,13:12:52,995276234,test,2,0,8,6,72,1,1087,50,50,0
80918,13:12:52,995276234,test,2,1,10,8,33,0,5597,33,50,0
80918,13:12:52,995276234,test,2,0,12,9,17,0,3308,33,33,0
80918,13:12:52,995276234,test,2,0,14,2,56,1,1041,33,50,0
80918,13:12:52,995276234,test,2,0,16,3,52,0,1344,33,40,0
80918,13:12:52,995276234,test,2,1,18,4,16,0,996,25,40,0
80918,13:12:52,995276234,test,2,0,20,10,70,0,1213,25,33,0
80918,13:12:52,995276234,test,2,0,22,1,60,1,757,25,42,0
80918,13:12:52,995276234,test,2,1,24,1,43,1,1703,40,42,1
80918,13:12:52,995276234,test,2,1,26,11,5,1,661,50,42,0
80918,13:12:52,995276234,test,2,0,28,7,23,0,1212,50,37,0
80918,13:12:52,995276234,test,2,1,30,6,11,1,693,57,37,0
80918,13:12:52,995276234,test,2,0,32,9,12,1,713,57,44,0
80918,13:12:52,995276234,test,2,0,34,10,62,1,966,57,50,0
80918,13:12:52,995276234,test,2,1,36,8,59,0,999,50,50,0
80918,13:12:52,995276234,test,2,0,38,5,71,1,952,50,54,0
80918,13:12:52,995276234,test,2,0,40,11,35,0,1514,50,50,0
80918,13:12:52,995276234,test,2,1,42,3,64,1,671,55,50,0
80918,13:12:52,995276234,test,2,0,44,8,14,1,972,55,53,0
80918,13:12:52,995276234,test,2,1,46,10,9,0,910,50,53,0
80918,13:12:52,995276234,test,2,1,48,7,13,1,714,54,53,0
80918,13:12:52,995276234,test,2,0,50,12,61,0,791,54,50,0
80918,13:12:52,995276234,test,2,0,52,3,41,0,2064,54,46,0
80918,13:12:52,995276234,test,2,1,54,1,10,1,1350,58,46,0
80918,13:12:52,995276234,test,2,1,56,4,7,1,1824,61,46,0
80918,13:12:52,995276234,test,2,1,58,12,30,1,1087,64,46,0
80918,13:12:52,995276234,test,2,0,60,4,45,1,1678,64,50,0
80918,13:12:52,995276234,test,2,1,62,11,47,0,3100,60,50,0
80918,13:12:52,995276234,test,2,1,64,2,42,0,3664,56,50,0
80918,13:12:52,995276234,test,2,0,66,1,68,1,1022,56,52,0
80918,13:12:52,995276234,test,2,0,68,2,53,0,1637,56,50,0
80918,13:12:52,995276234,test,2,0,70,6,28,1,717,56,52,0
80918,13:12:52,995276234,test,2,0,72,6,20,1,608,56,55,0
80918,13:12:52,995276234,test,2,0,74,9,34,0,1681,56,52,0
80918,13:12:52,995276234,test,2,0,76,4,6,0,1111,56,50,0
80918,13:12:52,995276234,test,2,1,78,9,3,1,971,58,50,0
80918,13:12:52,995276234,test,2,0,80,1,54,1,725,58,52,0
80918,13:12:52,995276234,test,2,1,82,6,26,0,3305,55,52,0
80918,13:12:52,995276234,test,2,0,84,10,44,1,1422,55,54,0
80918,13:12:52,995276234,test,2,0,86,3,31,0,1246,55,52,0
80918,13:12:52,995276234,test,2,1,88,5,37,1,765,57,52,0
80918,13:12:52,995276234,test,2,1,90,1,21,1,750,60,52,0
80918,13:12:52,995276234,test,2,1,92,11,66,1,609,61,52,0
80918,13:12:52,995276234,test,2,0,94,5,27,0,906,61,50,0
80918,13:12:52,995276234,test,2,1,96,6,48,1,806,63,50,0
80918,13:12:52,995276234,test,2,1,98,8,29,1,1054,65,50,0
80918,13:12:52,995276234,test,2,1,100,7,19,0,1221,62,50,0
80918,13:12:52,995276234,test,2,0,102,8,69,0,1589,62,48,0
80918,13:12:52,995276234,test,2,1,104,10,57,0,902,60,48,0
80918,13:12:52,995276234,test,2,1,106,9,39,1,915,61,48,0
80918,13:12:52,995276234,test,2,1,108,4,40,0,2359,59,48,0
80918,13:12:52,995276234,test,2,1,110,12,58,1,545,60,48,0
80918,13:12:52,995276234,test,2,0,112,7,2,0,1412,60,46,0
80918,13:12:52,995276234,test,2,0,114,2,50,1,805,60,48,0
80918,13:12:52,995276234,test,2,1,116,2,65,1,2150,62,48,0
80918,13:12:52,995276234,test,2,1,118,3,18,0,1088,60,48,0
80918,13:12:52,995276234,test,2,0,120,11,32,1,542,60,50,0
80918,13:12:52,995276234,test,2,0,122,12,38,1,624,60,51,0
80918,13:12:52,995276234,test,2,1,124,5,36,1,840,61,51,0
80918,13:12:52,995276234,test,2,1,126,6,31,1,1807,62,51,0
80918,13:12:52,995276234,test,2,0,128,7,29,1,656,62,53,0
80918,13:12:52,995276234,test,2,1,130,4,1,0,823,60,53,0
80918,13:12:52,995276234,test,2,0,132,8,10,0,1119,60,51,0
80918,13:12:52,995276234,test,2,1,134,7,47,0,931,58,51,0
80918,13:12:52,995276234,test,2,1,136,10,36,1,615,60,51,0
80918,13:12:52,995276234,test,2,0,138,2,3,1,759,60,52,0
80918,13:12:52,995276234,test,2,0,140,12,55,1,530,60,54,0
80918,13:12:52,995276234,test,2,0,142,5,59,1,549,60,55,0
80918,13:12:52,995276234,test,2,1,144,1,18,0,1544,58,55,0
80918,12:14:01,199138224,test,2,0,2,3,47,1,1237,0,100,0
80918,12:14:01,199138224,test,2,0,4,10,64,1,1028,0,100,0
80918,12:14:01,199138224,test,2,1,6,4,44,0,1300,0,100,0
80918,12:14:01,199138224,test,2,1,8,5,41,1,1441,50,100,0
80918,12:14:01,199138224,test,2,0,10,9,39,0,1680,50,66,0
80918,12:14:01,199138224,test,2,0,12,1,38,0,1918,50,50,1
80918,12:14:01,199138224,test,2,0,14,12,59,1,1570,50,60,0
80918,12:14:01,199138224,test,2,1,16,3,54,1,1452,66,60,0
80918,12:14:01,199138224,test,2,0,18,5,9,0,987,66,50,0
80918,12:14:01,199138224,test,2,0,20,6,55,1,1060,66,57,0
80918,12:14:01,199138224,test,2,1,22,11,1,1,882,75,57,0
80918,12:14:01,199138224,test,2,1,24,12,61,0,1256,60,57,0
80918,12:14:01,199138224,test,2,0,26,1,68,0,798,60,50,0
80918,12:14:01,199138224,test,2,1,28,7,72,0,839,50,50,0
80918,12:14:01,199138224,test,2,0,30,6,27,1,1207,50,55,0
80918,12:14:01,199138224,test,2,1,32,2,12,1,1247,57,55,0
80918,12:14:01,199138224,test,2,1,34,12,67,0,910,50,55,0
80918,12:14:01,199138224,test,2,1,36,4,34,0,963,44,55,0
80918,12:14:01,199138224,test,2,1,38,11,14,1,693,50,55,0
80918,12:14:01,199138224,test,2,1,40,3,31,1,1635,54,55,0
80918,12:14:01,199138224,test,2,0,42,4,24,0,1626,54,50,0
80918,12:14:01,199138224,test,2,1,44,1,49,1,1738,58,50,0
80918,12:14:01,199138224,test,2,0,46,3,22,0,661,58,45,0
80918,12:14:01,199138224,test,2,1,48,8,57,1,924,61,45,0
80918,12:14:01,199138224,test,2,1,50,10,65,1,855,64,45,0
80918,12:14:01,199138224,test,2,0,52,5,29,1,1142,64,50,0
80918,12:14:01,199138224,test,2,1,54,9,69,1,1193,66,50,0
80918,12:14:01,199138224,test,2,0,56,8,40,1,1642,66,53,0
80918,12:14:01,199138224,test,2,0,58,7,16,0,898,66,50,0
80918,12:14:01,199138224,test,2,0,60,11,10,0,2007,66,46,0
80918,12:14:01,199138224,test,2,1,62,2,13,1,1239,68,46,0
80918,12:14:01,199138224,test,2,1,64,5,50,0,2943,64,46,0
80918,12:14:01,199138224,test,2,0,66,12,7,0,698,64,43,0
80918,12:14:01,199138224,test,2,0,68,9,17,0,759,64,41,0
80918,12:14:01,199138224,test,2,0,70,10,8,1,754,64,44,0
80918,12:14:01,199138224,test,2,0,72,2,56,1,796,64,47,0
80918,12:14:01,199138224,test,2,1,74,6,25,0,709,61,47,0
80918,12:14:01,199138224,test,2,0,76,11,26,0,610,61,45,0
80918,12:14:01,199138224,test,2,1,78,7,70,0,1306,57,45,0
80918,12:14:01,199138224,test,2,0,80,5,19,1,567,57,47,0
80918,12:14:01,199138224,test,2,1,82,9,20,0,689,55,47,0
80918,12:14:01,199138224,test,2,0,84,8,42,1,694,55,50,0
80918,12:14:01,199138224,test,2,1,86,12,32,1,1211,57,50,0
80918,12:14:01,199138224,test,2,1,88,7,71,1,668,59,50,0
80918,12:14:01,199138224,test,2,0,90,7,15,1,802,59,52,0
80918,12:14:01,199138224,test,2,1,92,10,43,0,722,56,52,0
80918,12:14:01,199138224,test,2,1,94,8,63,0,686,54,52,0
80918,12:14:01,199138224,test,2,0,96,1,6,1,891,54,54,0
80918,12:14:01,199138224,test,2,1,98,6,36,1,761,56,54,0
80918,12:14:01,199138224,test,2,0,100,12,52,0,587,56,52,0
80918,12:14:01,199138224,test,2,0,102,10,48,1,580,56,53,0
80918,12:14:01,199138224,test,2,0,104,4,18,1,622,56,55,0
80918,12:14:01,199138224,test,2,1,106,1,37,0,958,53,55,0
80918,12:14:01,199138224,test,2,1,108,3,23,1,3025,55,55,1
80918,12:14:01,199138224,test,2,0,110,2,66,0,769,55,53,0
80918,12:14:01,199138224,test,2,1,112,5,5,0,643,53,53,0
80918,12:14:01,199138224,test,2,0,114,3,21,0,770,53,51,0
80918,12:14:01,199138224,test,2,0,116,6,11,0,1708,53,50,0
80918,12:14:01,199138224,test,2,1,118,11,58,1,553,55,50,0
80918,12:14:01,199138224,test,2,1,120,2,53,0,555,53,50,0
80918,12:14:01,199138224,test,2,1,122,4,45,0,942,51,50,0
80918,12:14:01,199138224,test,2,0,124,9,4,1,1041,51,51,0
80918,12:14:01,199138224,test,2,1,126,9,36,1,1129,53,51,0
80918,12:14:01,199138224,test,2,0,128,3,28,0,1220,53,50,0
80918,12:14:01,199138224,test,2,1,130,1,64,0,1268,51,50,0
80918,12:14:01,199138224,test,2,1,132,12,57,1,586,52,50,0
80918,12:14:01,199138224,test,2,0,134,2,33,0,1947,52,48,0
80918,12:14:01,199138224,test,2,0,136,7,58,1,1102,52,50,0
80918,12:14:01,199138224,test,2,0,138,10,11,0,715,52,48,0
80918,12:14:01,199138224,test,2,0,140,12,25,0,744,52,47,0
80918,12:14:01,199138224,test,2,1,142,11,55,1,731,54,47,0
80918,12:14:01,199138224,test,2,1,144,7,42,1,591,55,47,0
80918,13:15:39,4793598,test,2,1,2,11,32,0,462,0,0,0
80918,13:15:39,4793598,test,2,1,4,4,57,0,455,0,0,0
80918,13:15:39,4793598,test,2,0,6,3,72,0,470,0,0,0
80918,13:15:39,4793598,test,2,1,8,1,63,1,463,33,0,0
80918,13:15:39,4793598,test,2,0,10,9,24,1,404,33,50,0
80918,13:15:39,4793598,test,2,0,12,7,68,0,393,33,33,0
80918,13:15:39,4793598,test,2,1,14,3,70,0,532,25,33,0
80918,13:15:39,4793598,test,2,1,16,5,26,0,382,20,33,0
80918,13:15:39,4793598,test,2,0,18,2,29,1,428,20,50,0
80918,13:15:39,4793598,test,2,1,20,7,49,1,406,33,50,0
80918,13:15:39,4793598,test,2,1,22,12,37,0,467,28,50,0
80918,13:15:39,4793598,test,2,1,24,3,2,0,448,25,50,0
80918,13:15:39,4793598,test,2,1,26,8,41,0,408,22,50,0
80918,13:15:39,4793598,test,2,0,28,11,40,0,437,22,40,0
80918,13:15:39,4793598,test,2,1,30,6,36,1,429,30,40,0
80918,13:15:39,4793598,test,2,1,32,12,19,1,395,36,40,1
80918,13:15:39,4793598,test,2,0,34,6,59,0,450,36,33,0
80918,13:15:39,4793598,test,2,0,36,10,22,0,463,36,28,0
80918,13:15:39,4793598,test,2,0,38,9,27,1,494,36,37,0
80918,13:15:39,4793598,test,2,0,40,1,66,0,421,36,33,0
80918,13:15:39,4793598,test,2,0,42,7,64,0,415,36,30,0
80918,13:15:39,4793598,test,2,0,44,10,65,1,521,36,36,0
80918,13:15:39,4793598,test,2,1,46,7,8,0,401,33,36,0
80918,13:15:39,4793598,test,2,0,48,6,46,1,467,33,41,0
80918,13:15:39,4793598,test,2,1,50,10,53,0,361,30,41,0
80918,13:15:39,4793598,test,2,0,52,8,17,1,409,30,46,0
80918,13:15:39,4793598,test,2,0,54,12,50,1,593,30,50,0
80918,13:15:39,4793598,test,2,0,56,5,42,0,359,30,46,0
80918,13:15:39,4793598,test,2,0,58,11,45,0,407,30,43,0
80918,13:15:39,4793598,test,2,0,60,4,44,0,448,30,41,0
80918,13:15:39,4793598,test,2,0,62,2,21,0,387,30,38,0
80918,13:15:39,4793598,test,2,1,64,1,6,1,682,35,38,0
80918,13:15:39,4793598,test,2,1,66,5,13,0,391,33,38,0
80918,13:15:39,4793598,test,2,1,68,2,51,0,369,31,38,0
80918,13:15:39,4793598,test,2,0,70,3,7,0,347,31,36,0
80918,13:15:39,4793598,test,2,1,72,11,56,0,359,29,36,0
80918,13:15:39,4793598,test,2,0,74,11,23,0,415,29,35,0
80918,13:15:39,4793598,test,2,0,76,1,55,0,351,29,33,0
80918,13:15:39,4793598,test,2,1,78,4,10,0,369,27,33,0
80918,13:15:39,4793598,test,2,0,80,3,31,0,333,27,31,0
80918,13:15:39,4793598,test,2,0,82,2,18,0,377,27,30,0
80918,13:15:39,4793598,test,2,0,84,8,4,0,359,27,29,0
80918,13:15:39,4793598,test,2,0,86,9,67,0,563,27,28,0
80918,13:15:39,4793598,test,2,1,88,9,60,0,499,26,28,0
80918,13:15:39,4793598,test,2,1,90,8,33,0,390,25,28,0
80918,13:15:39,4793598,test,2,1,92,4,9,1,401,28,28,0
80918,13:15:39,4793598,test,2,0,94,10,25,0,436,28,26,0
