"date","time","subject","blockcode","blocknum","trialcode","trialnum","values.primestim","values.targetstim","correct","latency","trial.prime_positive.totalpercentcorrect","trial.prime_negative.totalpercentcorrect"
"021719","15:37:51","206664142","test","2","prime_positive","1","10","29","1","244","100","0"
"021719","15:37:51","206664142","test","2","intention_check","2","10","29","1","1138","100","0"
"021719","15:37:51","206664142","test","2","prime_positive","3","6","5","1","298","100","0"
"021719","15:37:51","206664142","test","2","intention_check","4","6","5","1","704","100","0"
"021719","15:37:51","206664142","test","2","prime_positive","5","2","8","0","0","66","0"
"021719","09:49:36","886642803","test","2","prime_negative","1","7","56","1","5680","0","100"
"021719","09:49:36","886642803","test","2","intention_check","2","7","56","0","2500","0","100"
"021719","09:49:36","886642803","test","2","prime_negative","3","11","29","0","2334","0","50"
"021719","09:49:36","886642803","test","2","intention_check","4","11","29","1","688","0","50"
"021719","09:49:36","886642803","test","2","prime_negative","5","9","12","0","4368","0","33"
"021719","09:49:36","886642803","test","2","intention_check","6","9","12","1","690","0","33"
"021719","09:49:36","886642803","test","2","prime_negative","7","1","55","1","973","0","50"
"021719","09:49:36","886642803","test","2","intention_check","8","1","55","0","2500","0","50"
"021719","09:49:36","886642803","test","2","prime_positive","9","6","47","0","2179","0","50"
"021719","09:49:36","886642803","test","2","intention_check","10","6","47","0","2500","0","50"
"021719","09:49:36","886642803","test","2","prime_positive","11","11","27","1","6163","50","50"
"021719","09:49:36","886642803","test","2","intention_check","12","11","27","1","524","50","50"
"021719","09:49:36","886642803","test","2","prime_negative","13","8","35","0","1757","50","40"
"021719","09:49:36","886642803","test","2","intention_check","14","8","35","0","2500","50","40"
"021719","09:49:36","886642803","test","2","prime_negative","15","10","2","1","1409","50","50"
"021719","09:49:36","886642803","test","2","intention_check","16","10","2","0","2500","50","50"
"021719","09:49:36","886642803","test","2","prime_positive","17","10","10","1","604","66","50"
"021719","09:49:36","886642803","test","2","intention_check","18","10","10","0","2500","66","50"
"021719","09:49:36","886642803","test","2","prime_negative","19","3","32","0","4071","66","42"
"021719","09:49:36","886642803","test","2","intention_check","20","3","32","1","1352","66","42"
"021719","09:49:36","886642803","test","2","prime_negative","21","5","11","1","973","66","50"
"021719","09:49:36","886642803","test","2","intention_check","22","5","11","0","2500","66","50"
"021719","09:49:36","886642803","test","2","prime_positive","23","9","22","1","2450","75","50"
"021719","09:49:36","886642803","test","2","intention_check","24","9","22","1","459","75","50"
"021719","09:49:36","886642803","test","2","prime_positive","25","5","23","0","862","60","50"
"021719","09:49:36","886642803","test","2","intention_check","26","5","23","0","2500","60","50"
"021719","09:49:36","886642803","test","2","prime_negative","27","12","59","1","798","60","55"
"021719","09:49:36","886642803","test","2","intention_check","28","12","59","0","2500","60","55"
"021719","09:49:36","886642803","test","2","prime_positive","29","1","28","1","2720","66","55"
"021719","09:49:36","886642803","test","2","intention_check","30","1","28","1","448","66","55"
"021719","09:49:36","886642803","test","2","prime_positive","31","12","18","1","987","71","55"
"021719","09:49:36","886642803","test","2","intention_check","32","12","18","0","2500","71","55"
"021719","09:49:36","886642803","test","2","prime_negative","33","4","7","0","988","71","50"
"021719","09:49:36","886642803","test","2","intention_check","34","4","7","0","2500","71","50"
"021719","09:49:36","886642803","test","2","prime_negative","35","6","39","0","2336","71","45"
"021719","09:49:36","886642803","test","2","intention_check","36","6","39","1","1287","71","45"
"021719","09:49:36","886642803","test","2","prime_negative","37","2","4","0","1126","71","41"
"021719","09:49:36","886642803","test","2","intention_check","38","2","4","1","1494","71","41"
"021719","09:49:36","886642803","test","2","prime_positive","39","4","21","0","1319","62","41"
"021719","09:49:36","886642803","test","2","intention_check","40","4","21","0","2500","62","41"
"021719","09:49:36","886642803","test","2","prime_positive","41","8","40","1","2556","66","41"
"021719","09:49:36","886642803","test","2","intention_check","42","8","40","0","2500","66","41"
"021719","09:49:36","886642803","test","2","prime_negative","43","9","44","0","1893","66","38"
"021719","09:49:36","886642803","test","2","intention_check","44","9","44","0","2500","66","38"
"021719","09:49:36","886642803","test","2","prime_negative","45","8","24","1","1132","66","42"
"021719","09:49:36","886642803","test","2","intention_check","46","8","24","0","2500","66","42"
"021719","09:49:36","886642803","test","2","prime_negative","47","7","54","1","1411","66","46"
"021719","09:49:36","886642803","test","2","intention_check","48","7","54","0","2500","66","46"
"021719","09:49:36","886642803","test","2","prime_negative","49","12","33","0","700","66","43"
"021719","09:49:36","886642803","test","2","intention_check","50","12","33","0","2500","66","43"
"021719","09:49:36","886642803","test","2","prime_positive","51","3","13","1","765","70","43"
"021719","09:49:36","886642803","test","2","intention_check","52","3","13","0","2500","70","43"
"021719","09:49:36","886642803","test","2","prime_negative","53","1","25","0","1013","70","41"
"021719","09:49:36","886642803","test","2","intention_check","54","1","25","0","2500","70","41"
"021719","09:49:36","886642803","test","2","prime_positive","55","7","50","1","982","72","41"
"021719","09:49:36","886642803","test","2","intention_check","56","7","50","0","2500","72","41"
"021719","09:49:36","886642803","test","2","prime_positive","57","2","3","0","1258","66","41"
"021719","09:49:36","886642803","test","2","intention_check","58","2","3","0","2500","66","41"
"021719","09:49:36","886642803","test","2","prime_positive","59","3","53","1","483","69","41"
"021719","09:49:36","886642803","test","2","intention_check","60","3","53","0","2500","69","41"
"021719","09:49:36","886642803","test","2","prime_positive","61","12","6","0","781","64","41"
"021719","09:49:36","886642803","test","2","intention_check","62","12","6","0","2500","64","41"
"021719","09:49:36","886642803","test","2","prime_positive","63","7","45","0","894","60","41"
"021719","09:49:36","886642803","test","2","intention_check","64","7","45","0","2500","60","41"
"021719","09:49:36","886642803","test","2","prime_positive","65","5","14","1","655","62","41"
"021719","09:49:36","886642803","test","2","intention_check","66","5","14","0","2500","62","41"
"021719","09:49:36","886642803","test","2","prime_positive","67","6","58","1","813","64","41"
"021719","09:49:36","886642803","test","2","intention_check","68","6","58","0","2500","64","41"
"021719","09:49:36","886642803","test","2","prime_negative","69","6","41","0","526","64","38"
"021719","09:49:36","886642803","test","2","intention_check","70","6","41","0","2500","64","38"
"021719","09:49:36","886642803","test","2","prime_positive","71","8","26","0","1735","61","38"
"021719","09:49:36","886642803","test","2","intention_check","72","8","26","0","2500","61","38"
"021719","09:49:36","886642803","test","2","prime_positive","73","2","46","0","1584","57","38"
"021719","09:49:36","886642803","test","2","intention_check","74","2","46","0","2500","57","38"
"021719","09:49:36","886642803","test","2","prime_positive","75","11","15","1","602","60","38"
"021719","09:49:36","886642803","test","2","intention_check","76","11","15","0","2500","60","38"
"021719","09:49:36","886642803","test","2","prime_negative","77","10","30","0","494","60","36"
"021719","09:49:36","886642803","test","2","intention_check","78","10","30","0","2500","60","36"
"021719","09:49:36","886642803","test","2","prime_negative","79","2","52","1","676","60","40"
"021719","09:49:36","886642803","test","2","intention_check","80","2","52","0","2500","60","40"
"021719","09:49:36","886642803","test","2","prime_negative","81","5","9","0","1441","60","38"
"021719","09:49:36","886642803","test","2","intention_check","82","5","9","0","2500","60","38"
"021719","09:49:36","886642803","test","2","prime_negative","83","4","43","0","569","60","36"
"021719","09:49:36","886642803","test","2","intention_check","84","4","43","0","2500","60","36"
"021719","09:49:36","886642803","test","2","prime_positive","85","10","1","0","684","57","36"
"021719","09:49:36","886642803","test","2","intention_check","86","10","1","0","2500","57","36"
"021719","09:49:36","886642803","test","2","prime_negative","87","11","34","0","638","57","34"
"021719","09:49:36","886642803","test","2","intention_check","88","11","34","0","2500","57","34"
"021719","09:49:36","886642803","test","2","prime_positive","89","4","38","0","537","54","34"
"021719","09:49:36","886642803","test","2","intention_check","90","4","38","0","2500","54","34"
"021719","09:49:36","886642803","test","2","prime_negative","91","3","60","1","4056","54","37"
"021719","09:49:36","886642803","test","2","intention_check","92","3","60","1","461","54","37"
"021719","09:49:36","886642803","test","2","prime_positive","93","1","16","0","998","52","37"
"021719","09:49:36","886642803","test","2","intention_check","94","1","16","0","2500","52","37"
"021719","09:49:36","886642803","test","2","prime_positive","95","9","8","1","4405","54","37"
"021719","09:49:36","886642803","test","2","intention_check","96","9","8","1","253","54","37"
"021719","09:49:36","886642803","test","2","prime_positive","97","1","5","1","3670","56","37"
"021719","09:49:36","886642803","test","2","intention_check","98","1","5","1","502","56","37"
"021719","09:49:36","886642803","test","2","prime_positive","99","9","37","1","6258","57","37"
"021719","09:49:36","886642803","test","2","intention_check","100","9","37","0","2500","57","37"
"021719","09:49:36","886642803","test","2","prime_positive","101","6","42","0","553","55","37"
"021719","09:49:36","886642803","test","2","intention_check","102","6","42","0","2500","55","37"
"021719","09:49:36","886642803","test","2","prime_negative","103","6","31","1","1465","55","40"
"021719","09:49:36","886642803","test","2","intention_check","104","6","31","0","2500","55","40"
"021719","09:49:36","886642803","test","2","prime_negative","105","7","51","1","571","55","42"
"021719","09:49:36","886642803","test","2","intention_check","106","7","51","0","2500","55","42"
"021719","09:49:36","886642803","test","2","prime_positive","107","10","57","1","619","57","42"
"021719","09:49:36","886642803","test","2","intention_check","108","10","57","0","2500","57","42"
"021719","09:49:36","886642803","test","2","prime_negative","109","4","48","1","1367","57","44"
"021719","09:49:36","886642803","test","2","intention_check","110","4","48","0","2500","57","44"
"021719","09:49:36","886642803","test","2","prime_negative","111","5","17","1","773","57","46"
"021719","09:49:36","886642803","test","2","intention_check","112","5","17","0","2500","57","46"
"021719","09:49:36","886642803","test","2","prime_positive","113","7","36","1","971","58","46"
"021719","09:49:36","886642803","test","2","intention_check","114","7","36","0","2500","58","46"
"021719","09:49:36","886642803","test","2","prime_positive","115","8","20","1","603","60","46"
"021719","09:49:36","886642803","test","2","intention_check","116","8","20","0","2500","60","46"
"021719","09:49:36","886642803","test","2","prime_negative","117","12","19","0","1880","60","44"
"021719","09:49:36","886642803","test","2","intention_check","118","12","19","0","2500","60","44"
"021719","09:49:36","886642803","test","2","prime_negative","119","10","49","1","4626","60","46"
"021719","09:49:36","886642803","test","2","intention_check","120","10","49","0","2500","60","46"
"021719","14:59:13","766228610","test","2","prime_negative","1","2","49","1","1895","0","100"
"021719","14:59:13","766228610","test","2","intention_check","2","2","49","0","2500","0","100"
"021719","14:59:13","766228610","test","2","prime_negative","3","11","5","1","1656","0","100"
"021719","14:59:13","766228610","test","2","intention_check","4","11","5","0","2500","0","100"
"021719","14:59:13","766228610","test","2","prime_negative","5","9","44","0","2175","0","66"
"021719","14:59:13","766228610","test","2","intention_check","6","9","44","0","2500","0","66"
"021719","14:59:13","766228610","test","2","prime_positive","7","9","1","0","1570","0","66"
"021719","14:59:13","766228610","test","2","intention_check","8","9","1","0","2500","0","66"
"021719","14:59:13","766228610","test","2","prime_positive","9","4","22","0","4255","0","66"
"021719","14:59:13","766228610","test","2","intention_check","10","4","22","0","2500","0","66"
"021719","14:59:13","766228610","test","2","prime_negative","11","6","58","1","2434","0","75"
"021719","14:59:13","766228610","test","2","intention_check","12","6","58","0","2500","0","75"
"021719","14:59:13","766228610","test","2","prime_negative","13","1","31","0","1938","0","60"
"021719","14:59:13","766228610","test","2","intention_check","14","1","31","1","677","0","60"
"021719","14:59:13","766228610","test","2","prime_positive","15","12","28","1","1600","33","60"
"021719","14:59:13","766228610","test","2","intention_check","16","12","28","1","601","33","60"
"021719","14:59:13","766228610","test","2","prime_positive","17","10","52","0","860","25","60"
"021719","14:59:13","766228610","test","2","intention_check","18","10","52","0","2500","25","60"
"021719","14:59:13","766228610","test","2","prime_negative","19","5","48","0","1357","25","50"
"021719","14:59:13","766228610","test","2","intention_check","20","5","48","0","2500","25","50"
"021719","14:59:13","766228610","test","2","prime_negative","21","4","25","1","1570","25","57"
"021719","14:59:13","766228610","test","2","intention_check","22","4","25","0","2500","25","57"
"021719","14:59:13","766228610","test","2","prime_negative","23","8","29","0","1901","25","50"
"021719","14:59:13","766228610","test","2","intention_check","24","8","29","0","2500","25","50"
"021719","14:59:13","766228610","test","2","prime_negative","25","12","55","0","929","25","44"
"021719","14:59:13","766228610","test","2","intention_check","26","12","55","0","2500","25","44"
"021719","14:59:13","766228610","test","2","prime_negative","27","3","21","1","958","25","50"
"021719","14:59:13","766228610","test","2","intention_check","28","3","21","0","2500","25","50"
"021719","14:59:13","766228610","test","2","prime_positive","29","7","24","0","1475","20","50"
"021719","14:59:13","766228610","test","2","intention_check","30","7","24","0","2500","20","50"
"021719","14:59:13","766228610","test","2","prime_negative","31","7","51","1","1597","20","54"
"021719","14:59:13","766228610","test","2","intention_check","32","7","51","0","2500","20","54"
"021719","14:59:13","766228610","test","2","prime_positive","33","5","4","1","686","33","54"
"021719","14:59:13","766228610","test","2","intention_check","34","5","4","0","2500","33","54"
"021719","14:59:13","766228610","test","2","prime_positive","35","8","10","1","778","42","54"
"021719","14:59:13","766228610","test","2","intention_check","36","8","10","0","2500","42","54"
"021719","14:59:13","766228610","test","2","prime_positive","37","6","54","0","1214","37","54"
"021719","14:59:13","766228610","test","2","intention_check","38","6","54","0","2500","37","54"
"021719","14:59:13","766228610","test","2","prime_negative","39","10","41","0","894","37","50"
"021719","14:59:13","766228610","test","2","intention_check","40","10","41","0","2500","37","50"
"021719","14:59:13","766228610","test","2","prime_negative","41","6","13","0","605","37","46"
"021719","14:59:13","766228610","test","2","intention_check","42","6","13","0","2500","37","46"
"021719","14:59:13","766228610","test","2","prime_positive","43","11","15","0","832","33","46"
"021719","14:59:13","766228610","test","2","intention_check","44","11","15","0","2500","33","46"
"021719","14:59:13","766228610","test","2","prime_positive","45","2","35","1","671","40","46"
"021719","14:59:13","766228610","test","2","intention_check","46","2","35","0","2500","40","46"
"021719","14:59:13","766228610","test","2","prime_positive","47","1","39","1","482","45","46"
"021719","14:59:13","766228610","test","2","intention_check","48","1","39","0","2500","45","46"
"021719","14:59:13","766228610","test","2","prime_positive","49","3","45","0","1198","41","46"
"021719","14:59:13","766228610","test","2","intention_check","50","3","45","0","2500","41","46"
"021719","14:59:13","766228610","test","2","prime_positive","51","1","23","1","1564","46","46"
"021719","14:59:13","766228610","test","2","intention_check","52","1","23","0","2500","46","46"
"021719","14:59:13","766228610","test","2","prime_positive","53","7","36","0","775","42","46"
"021719","14:59:13","766228610","test","2","intention_check","54","7","36","0","2500","42","46"
"021719","14:59:13","766228610","test","2","prime_positive","55","5","32","1","1293","46","46"
"021719","14:59:13","766228610","test","2","intention_check","56","5","32","1","641","46","46"
"021719","14:59:13","766228610","test","2","prime_negative","57","12","60","0","1125","46","42"
"021719","14:59:13","766228610","test","2","intention_check","58","12","60","0","2500","46","42"
"021719","14:59:13","766228610","test","2","prime_negative","59","11","20","0","635","46","40"
"021719","14:59:13","766228610","test","2","intention_check","60","11","20","0","2500","46","40"
"021719","14:59:13","766228610","test","2","prime_positive","61","3","17","1","1619","50","40"
"021719","14:59:13","766228610","test","2","intention_check","62","3","17","1","1231","50","40"
"021719","14:59:13","766228610","test","2","prime_positive","63","12","2","0","1346","47","40"
"021719","14:59:13","766228610","test","2","intention_check","64","12","2","0","2500","47","40"
"021719","14:59:13","766228610","test","2","prime_negative","65","7","38","0","972","47","37"
"021719","14:59:13","766228610","test","2","intention_check","66","7","38","0","2500","47","37"
"021719","14:59:13","766228610","test","2","prime_positive","67","10","8","1","1947","50","37"
"021719","14:59:13","766228610","test","2","intention_check","68","10","8","0","2500","50","37"
"021719","14:59:13","766228610","test","2","prime_negative","69","9","9","1","1082","50","41"
"021719","14:59:13","766228610","test","2","intention_check","70","9","9","0","2500","50","41"
"021719","14:59:13","766228610","test","2","prime_negative","71","3","6","1","1084","50","44"
"021719","14:59:13","766228610","test","2","intention_check","72","3","6","0","2500","50","44"
"021719","14:59:13","766228610","test","2","prime_negative","73","1","18","1","1036","50","47"
"021719","14:59:13","766228610","test","2","intention_check","74","1","18","0","2500","50","47"
"021719","14:59:13","766228610","test","2","prime_positive","75","4","56","0","710","47","47"
"021719","14:59:13","766228610","test","2","intention_check","76","4","56","0","2500","47","47"
"021719","14:59:13","766228610","test","2","prime_negative","77","2","53","0","1133","47","45"
"021719","14:59:13","766228610","test","2","intention_check","78","2","53","0","2500","47","45"
"021719","14:59:13","766228610","test","2","prime_positive","79","9","33","0","1786","45","45"
"021719","14:59:13","766228610","test","2","intention_check","80","9","33","0","2500","45","45"
"021719","14:59:13","766228610","test","2","prime_positive","81","6","34","1","874","47","45"
"021719","14:59:13","766228610","test","2","intention_check","82","6","34","0","2500","47","45"
"021719","14:59:13","766228610","test","2","prime_positive","83","11","19","0","1172","45","45"
"021719","14:59:13","766228610","test","2","intention_check","84","11","19","0","2500","45","45"
"021719","14:59:13","766228610","test","2","prime_negative","85","5","46","0","1206","45","42"
"021719","14:59:13","766228610","test","2","intention_check","86","5","46","0","2500","45","42"
"021719","14:59:13","766228610","test","2","prime_negative","87","10","3","0","876","45","40"
"021719","14:59:13","766228610","test","2","intention_check","88","10","3","0","2500","45","40"
"021719","14:59:13","766228610","test","2","prime_positive","89","2","11","0","908","43","40"
"021719","14:59:13","766228610","test","2","intention_check","90","2","11","0","2500","43","40"
"021719","14:59:13","766228610","test","2","prime_positive","91","8","16","1","391","45","40"
"021719","14:59:13","766228610","test","2","intention_check","92","8","16","0","2500","45","40"
"021719","14:59:13","766228610","test","2","prime_negative","93","8","47","0","1103","45","39"
"021719","14:59:13","766228610","test","2","intention_check","94","8","47","0","2500","45","39"
"021719","14:59:13","766228610","test","2","prime_negative","95","4","14","0","1073","45","37"
"021719","14:59:13","766228610","test","2","intention_check","96","4","14","0","2500","45","37"
"021719","14:59:13","766228610","test","2","prime_positive","97","7","7","1","1062","48","37"
"021719","14:59:13","766228610","test","2","intention_check","98","7","7","0","2500","48","37"
"021719","14:59:13","766228610","test","2","prime_negative","99","1","43","0","1051","48","36"
"021719","14:59:13","766228610","test","2","intention_check","100","1","43","0","2500","48","36"
"021719","14:59:13","766228610","test","2","prime_negative","101","8","12","1","2088","48","38"
"021719","14:59:13","766228610","test","2","intention_check","102","8","12","0","2500","48","38"
"021719","14:59:13","766228610","test","2","prime_negative","103","2","30","0","1633","48","37"
"021719","14:59:13","766228610","test","2","intention_check","104","2","30","1","457","48","37"
"021719","14:59:13","766228610","test","2","prime_positive","105","1","57","0","1061","46","37"
"021719","14:59:13","766228610","test","2","intention_check","106","1","57","0","2500","46","37"
"021719","14:59:13","766228610","test","2","prime_positive","107","5","26","0","1782","44","37"
"021719","14:59:13","766228610","test","2","intention_check","108","5","26","0","2500","44","37"
"021719","14:59:13","766228610","test","2","prime_negative","109","3","59","1","1020","44","39"
"021719","14:59:13","766228610","test","2","intention_check","110","3","59","0","2500","44","39"
"021719","14:59:13","766228610","test","2","prime_positive","111","10","37","1","769","46","39"
"021719","14:59:13","766228610","test","2","intention_check","112","10","37","0","2500","46","39"
"021719","14:59:13","766228610","test","2","prime_negative","113","6","50","1","884","46","41"
"021719","14:59:13","766228610","test","2","intention_check","114","6","50","0","2500","46","41"
"021719","14:59:13","766228610","test","2","prime_positive","115","2","42","0","646","44","41"
"021719","14:59:13","766228610","test","2","intention_check","116","2","42","0","2500","44","41"
"021719","14:59:13","766228610","test","2","prime_positive","117","3","27","1","646","46","41"
"021719","14:59:13","766228610","test","2","intention_check","118","3","27","1","693","46","41"
"021719","14:59:13","766228610","test","2","prime_negative","119","4","40","0","518","46","40"
"021719","14:59:13","766228610","test","2","intention_check","120","4","40","0","2500","46","40"
"021719","15:04:51","113460491","test","2","prime_positive","1","1","1","1","2002","100","0"
"021719","15:04:51","113460491","test","2","intention_check","2","1","1","0","2500","100","0"
"021719","15:04:51","113460491","test","2","prime_positive","3","11","20","0","1585","50","0"
"021719","15:04:51","113460491","test","2","intention_check","4","11","20","0","2500","50","0"
"021719","15:04:51","113460491","test","2","prime_positive","5","3","54","1","544","66","0"
"021719","15:04:51","113460491","test","2","intention_check","6","3","54","1","1149","66","0"
"021719","15:04:51","113460491","test","2","prime_negative","7","7","22","0","1348","66","0"
"021719","15:04:51","113460491","test","2","intention_check","8","7","22","1","305","66","0"
"021719","15:04:51","113460491","test","2","prime_positive","9","5","44","0","1142","50","0"
"021719","15:04:51","113460491","test","2","intention_check","10","5","44","0","2500","50","0"
"021719","15:04:51","113460491","test","2","prime_negative","11","6","56","0","630","50","0"
"021719","15:04:51","113460491","test","2","intention_check","12","6","56","0","2500","50","0"
"021719","15:04:51","113460491","test","2","prime_positive","13","12","16","1","976","60","0"
"021719","15:04:51","113460491","test","2","intention_check","14","12","16","0","2500","60","0"
"021719","15:04:51","113460491","test","2","prime_positive","15","4","24","1","944","66","0"
"021719","15:04:51","113460491","test","2","intention_check","16","4","24","0","2500","66","0"
"021719","15:04:51","113460491","test","2","prime_positive","17","10","32","1","1110","71","0"
"021719","15:04:51","113460491","test","2","intention_check","18","10","32","0","2500","71","0"
"021719","15:04:51","113460491","test","2","prime_negative","19","2","50","0","1755","71","0"
"021719","15:04:51","113460491","test","2","intention_check","20","2","50","0","2500","71","0"
"021719","15:04:51","113460491","test","2","prime_negative","21","1","21","1","1455","71","25"
"021719","15:04:51","113460491","test","2","intention_check","22","1","21","0","2500","71","25"
"021719","15:04:51","113460491","test","2","prime_negative","23","11","51","1","1587","71","40"
"021719","15:04:51","113460491","test","2","intention_check","24","11","51","0","2500","71","40"
"021719","15:04:51","113460491","test","2","prime_positive","25","9","31","1","1458","75","40"
"021719","15:04:51","113460491","test","2","intention_check","26","9","31","0","2500","75","40"
"021719","15:04:51","113460491","test","2","prime_negative","27","5","52","1","1154","75","50"
"021719","15:04:51","113460491","test","2","intention_check","28","5","52","0","2500","75","50"
"021719","15:04:51","113460491","test","2","prime_positive","29","8","33","1","2395","77","50"
"021719","15:04:51","113460491","test","2","intention_check","30","8","33","0","2500","77","50"
"021719","15:04:51","113460491","test","2","prime_positive","31","2","34","1","1434","80","50"
"021719","15:04:51","113460491","test","2","intention_check","32","2","34","0","2500","80","50"
"021719","15:04:51","113460491","test","2","prime_negative","33","10","58","1","778","80","57"
"021719","15:04:51","113460491","test","2","intention_check","34","10","58","0","2500","80","57"
"021719","15:04:51","113460491","test","2","prime_positive","35","7","23","1","612","81","57"
"021719","15:04:51","113460491","test","2","intention_check","36","7","23","0","2500","81","57"
"021719","15:04:51","113460491","test","2","prime_positive","37","6","17","1","926","83","57"
"021719","15:04:51","113460491","test","2","intention_check","38","6","17","0","2500","83","57"
"021719","15:04:51","113460491","test","2","prime_positive","39","4","15","1","652","84","57"
"021719","15:04:51","113460491","test","2","intention_check","40","4","15","0","2500","84","57"
"021719","15:04:51","113460491","test","2","prime_positive","41","6","37","1","1007","85","57"
"021719","15:04:51","113460491","test","2","intention_check","42","6","37","0","2500","85","57"
"021719","15:04:51","113460491","test","2","prime_positive","43","8","45","1","1387","86","57"
"021719","15:04:51","113460491","test","2","intention_check","44","8","45","0","2500","86","57"
"021719","15:04:51","113460491","test","2","prime_negative","45","12","11","1","871","86","62"
"021719","15:04:51","113460491","test","2","intention_check","46","12","11","0","2500","86","62"
"021719","15:04:51","113460491","test","2","prime_negative","47","8","26","1","1062","86","66"
"021719","15:04:51","113460491","test","2","intention_check","48","8","26","0","2500","86","66"
"021719","15:04:51","113460491","test","2","prime_negative","49","3","36","0","1511","86","60"
"021719","15:04:51","113460491","test","2","intention_check","50","3","36","0","2500","86","60"
"021719","15:04:51","113460491","test","2","prime_negative","51","4","7","0","632","86","54"
"021719","15:04:51","113460491","test","2","intention_check","52","4","7","0","2500","86","54"
"021719","15:04:51","113460491","test","2","prime_positive","53","11","27","0","725","81","54"
"021719","15:04:51","113460491","test","2","intention_check","54","11","27","0","2500","81","54"
"021719","15:04:51","113460491","test","2","prime_negative","55","9","43","0","991","81","50"
"021719","15:04:51","113460491","test","2","intention_check","56","9","43","0","2500","81","50"
"021719","15:04:51","113460491","test","2","prime_negative","57","10","10","1","1088","81","53"
"021719","15:04:51","113460491","test","2","intention_check","58","10","10","0","2500","81","53"
"021719","15:04:51","113460491","test","2","prime_positive","59","7","12","1","1191","82","53"
"021719","15:04:51","113460491","test","2","intention_check","60","7","12","0","2500","82","53"
"021719","15:04:51","113460491","test","2","prime_negative","61","11","55","1","799","82","57"
"021719","15:04:51","113460491","test","2","intention_check","62","11","55","0","2500","82","57"
"021719","15:04:51","113460491","test","2","prime_positive","63","5","40","1","831","83","57"
"021719","15:04:51","113460491","test","2","intention_check","64","5","40","0","2500","83","57"
"021719","15:04:51","113460491","test","2","prime_negative","65","4","3","0","1461","83","53"
"021719","15:04:51","113460491","test","2","intention_check","66","4","3","0","2500","83","53"
"021719","15:04:51","113460491","test","2","prime_negative","67","8","42","0","1309","83","50"
"021719","15:04:51","113460491","test","2","intention_check","68","8","42","0","2500","83","50"
"021719","15:04:51","113460491","test","2","prime_negative","69","7","25","0","1456","83","47"
"021719","15:04:51","113460491","test","2","intention_check","70","7","25","0","2500","83","47"
"021719","15:04:51","113460491","test","2","prime_negative","71","1","8","1","1890","83","50"
"021719","15:04:51","113460491","test","2","intention_check","72","1","8","0","2500","83","50"
"021719","15:04:51","113460491","test","2","prime_negative","73","5","2","0","784","83","47"
"021719","15:04:51","113460491","test","2","intention_check","74","5","2","0","2500","83","47"
"021719","15:04:51","113460491","test","2","prime_positive","75","2","41","0","834","78","47"
"021719","15:04:51","113460491","test","2","intention_check","76","2","41","0","2500","78","47"
"021719","15:04:51","113460491","test","2","prime_negative","77","6","53","0","1637","78","45"
"021719","15:04:51","113460491","test","2","intention_check","78","6","53","0","2500","78","45"
"021719","15:04:51","113460491","test","2","prime_positive","79","1","38","1","1164","80","45"
"021719","15:04:51","113460491","test","2","intention_check","80","1","38","0","2500","80","45"
"021719","15:04:51","113460491","test","2","prime_positive","81","10","39","0","1307","76","45"
"021719","15:04:51","113460491","test","2","intention_check","82","10","39","0","2500","76","45"
"021719","15:04:51","113460491","test","2","prime_negative","83","2","47","0","1182","76","42"
"021719","15:04:51","113460491","test","2","intention_check","84","2","47","0","2500","76","42"
"021719","15:04:51","113460491","test","2","prime_negative","85","9","60","0","1054","76","40"
"021719","15:04:51","113460491","test","2","intention_check","86","9","60","0","2500","76","40"
"021719","15:04:51","113460491","test","2","prime_negative","87","3","28","0","1112","76","39"
"021719","15:04:51","113460491","test","2","intention_check","88","3","28","0","2500","76","39"
"021719","15:04:51","113460491","test","2","prime_negative","89","12","49","1","764","76","41"
"021719","15:04:51","113460491","test","2","intention_check","90","12","49","0","2500","76","41"
"021719","15:04:51","113460491","test","2","prime_negative","91","3","29","1","1419","76","44"
"021719","15:04:51","113460491","test","2","intention_check","92","3","29","0","2500","76","44"
"021719","15:04:51","113460491","test","2","prime_negative","93","1","14","1","766","76","46"
"021719","15:04:51","113460491","test","2","intention_check","94","1","14","0","2500","76","46"
"021719","15:04:51","113460491","test","2","prime_positive","95","12","57","0","1729","72","46"
"021719","15:04:51","113460491","test","2","intention_check","96","12","57","0","2500","72","46"
"021719","15:04:51","113460491","test","2","prime_negative","97","7","13","1","1971","72","48"
"021719","15:04:51","113460491","test","2","intention_check","98","7","13","0","2500","72","48"
"021719","15:04:51","113460491","test","2","prime_negative","99","5","9","1","886","72","50"
"021719","15:04:51","113460491","test","2","intention_check","100","5","9","0","2500","72","50"
"021719","15:04:51","113460491","test","2","prime_positive","101","3","46","1","1209","73","50"
"021719","15:04:51","113460491","test","2","intention_check","102","3","46","0","2500","73","50"
"021719","15:04:51","113460491","test","2","prime_positive","103","9","59","1","862","75","50"
"021719","15:04:51","113460491","test","2","intention_check","104","9","59","0","2500","75","50"
"021719","15:04:51","113460491","test","2","prime_positive","105","2","35","1","700","76","50"
"021719","15:04:51","113460491","test","2","intention_check","106","2","35","0","2500","76","50"
"021719","15:04:51","113460491","test","2","prime_positive","107","4","4","1","2066","76","50"
"021719","15:04:51","113460491","test","2","intention_check","108","4","4","0","2500","76","50"
"021719","15:04:51","113460491","test","2","prime_negative","109","8","30","1","1291","76","51"
"021719","15:04:51","113460491","test","2","intention_check","110","8","30","0","2500","76","51"
"021719","15:04:51","113460491","test","2","prime_negative","111","2","5","1","669","76","53"
"021719","15:04:51","113460491","test","2","intention_check","112","2","5","0","2500","76","53"
"021719","15:04:51","113460491","test","2","prime_positive","113","8","48","1","678","77","53"
"021719","15:04:51","113460491","test","2","intention_check","114","8","48","0","2500","77","53"
"021719","15:04:51","113460491","test","2","prime_positive","115","11","19","1","1892","78","53"
"021719","15:04:51","113460491","test","2","intention_check","116","11","19","0","2500","78","53"
"021719","15:04:51","113460491","test","2","prime_positive","117","3","6","1","1614","79","53"
"021719","15:04:51","113460491","test","2","intention_check","118","3","6","0","2500","79","53"
"021719","15:04:51","113460491","test","2","prime_positive","119","1","18","1","1161","80","53"
"021719","15:04:51","113460491","test","2","intention_check","120","1","18","0","2500","80","53"
"021719","15:06:25","272486146","test","2","prime_positive","1","5","37","1","1752","100","0"
"021719","15:06:25","272486146","test","2","intention_check","2","5","37","0","2500","100","0"
"021719","15:06:25","272486146","test","2","prime_negative","3","2","58","0","2668","100","0"
"021719","15:06:25","272486146","test","2","intention_check","4","2","58","0","2500","100","0"
"021719","15:06:25","272486146","test","2","prime_positive","5","10","38","1","1036","100","0"
"021719","15:06:25","272486146","test","2","intention_check","6","10","38","0","2500","100","0"
"021719","15:06:25","272486146","test","2","prime_negative","7","6","50","1","861","100","50"
"021719","15:06:25","272486146","test","2","intention_check","8","6","50","0","2500","100","50"
"021719","15:06:25","272486146","test","2","prime_negative","9","5","1","0","1020","100","33"
"021719","15:06:25","272486146","test","2","intention_check","10","5","1","0","2500","100","33"
"021719","15:06:25","272486146","test","2","prime_positive","11","3","17","1","894","100","33"
"021719","15:06:25","272486146","test","2","intention_check","12","3","17","0","2500","100","33"
"021719","15:06:25","272486146","test","2","prime_negative","13","7","4","0","1302","100","25"
"021719","15:06:25","272486146","test","2","intention_check","14","7","4","0","2500","100","25"
"021719","15:06:25","272486146","test","2","prime_negative","15","1","48","1","204","100","40"
"021719","15:06:25","272486146","test","2","intention_check","16","1","48","0","2500","100","40"
"021719","15:06:25","272486146","test","2","prime_negative","17","4","46","1","543","100","50"
"021719","15:06:25","272486146","test","2","intention_check","18","4","46","0","2500","100","50"
"021719","15:06:25","272486146","test","2","prime_negative","19","8","39","1","812","100","57"
"021719","15:06:25","272486146","test","2","intention_check","20","8","39","0","2500","100","57"
"021719","15:06:25","272486146","test","2","prime_positive","21","1","25","1","454","100","57"
"021719","15:06:25","272486146","test","2","intention_check","22","1","25","0","2500","100","57"
"021719","15:06:25","272486146","test","2","prime_negative","23","12","52","1","822","100","62"
"021719","15:06:25","272486146","test","2","intention_check","24","12","52","0","2500","100","62"
"021719","15:06:25","272486146","test","2","prime_positive","25","11","54","1","712","100","62"
"021719","15:06:25","272486146","test","2","intention_check","26","11","54","0","2500","100","62"
"021719","15:06:25","272486146","test","2","prime_negative","27","10","35","1","1494","100","66"
"021719","15:06:25","272486146","test","2","intention_check","28","10","35","0","2500","100","66"
"021719","15:06:25","272486146","test","2","prime_negative","29","3","7","0","565","100","60"
"021719","15:06:25","272486146","test","2","intention_check","30","3","7","0","2500","100","60"
"021719","15:06:25","272486146","test","2","prime_positive","31","9","21","1","673","100","60"
"021719","15:06:25","272486146","test","2","intention_check","32","9","21","0","2500","100","60"
"021719","15:06:25","272486146","test","2","prime_negative","33","9","19","1","1072","100","63"
"021719","15:06:25","272486146","test","2","intention_check","34","9","19","0","2500","100","63"
"021719","15:06:25","272486146","test","2","prime_positive","35","6","26","0","904","85","63"
"021719","15:06:25","272486146","test","2","intention_check","36","6","26","0","2500","85","63"
"021719","15:06:25","272486146","test","2","prime_negative","37","11","29","1","967","85","66"
"021719","15:06:25","272486146","test","2","intention_check","38","11","29","0","2500","85","66"
"021719","15:06:25","272486146","test","2","prime_negative","39","9","43","1","787","85","69"
"021719","15:06:25","272486146","test","2","intention_check","40","9","43","0","2500","85","69"
"021719","15:06:25","272486146","test","2","prime_positive","41","12","47","0","958","75","69"
"021719","15:06:25","272486146","test","2","intention_check","42","12","47","0","2500","75","69"
"021719","15:06:25","272486146","test","2","prime_negative","43","3","12","1","747","75","71"
"021719","15:06:25","272486146","test","2","intention_check","44","3","12","0","2500","75","71"
"021719","15:06:25","272486146","test","2","prime_positive","45","7","31","1","735","77","71"
"021719","15:06:25","272486146","test","2","intention_check","46","7","31","0","2500","77","71"
"021719","15:06:25","272486146","test","2","prime_positive","47","4","14","1","628","80","71"
"021719","15:06:25","272486146","test","2","intention_check","48","4","14","0","2500","80","71"
"021719","15:06:25","272486146","test","2","prime_positive","49","8","41","0","1190","72","71"
"021719","15:06:25","272486146","test","2","intention_check","50","8","41","0","2500","72","71"
"021719","15:06:25","272486146","test","2","prime_negative","51","4","8","1","761","72","73"
"021719","15:06:25","272486146","test","2","intention_check","52","4","8","0","2500","72","73"
"021719","15:06:25","272486146","test","2","prime_negative","53","10","13","1","644","72","75"
"021719","15:06:25","272486146","test","2","intention_check","54","10","13","0","2500","72","75"
"021719","15:06:25","272486146","test","2","prime_positive","55","2","9","1","533","75","75"
"021719","15:06:25","272486146","test","2","intention_check","56","2","9","0","2500","75","75"
"021719","15:06:25","272486146","test","2","prime_negative","57","8","49","1","666","75","76"
"021719","15:06:25","272486146","test","2","intention_check","58","8","49","0","2500","75","76"
"021719","15:06:25","272486146","test","2","prime_positive","59","2","51","1","539","76","76"
"021719","15:06:25","272486146","test","2","intention_check","60","2","51","0","2500","76","76"
"021719","15:06:25","272486146","test","2","prime_positive","61","5","20","0","895","71","76"
"021719","15:06:25","272486146","test","2","intention_check","62","5","20","0","2500","71","76"
"021719","15:06:25","272486146","test","2","prime_negative","63","12","27","0","1181","71","72"
"021719","15:06:25","272486146","test","2","intention_check","64","12","27","0","2500","71","72"
"021719","15:06:25","272486146","test","2","prime_negative","65","11","53","1","337","71","73"
"021719","15:06:25","272486146","test","2","intention_check","66","11","53","0","2500","71","73"
"021719","15:06:25","272486146","test","2","prime_negative","67","7","34","0","958","71","70"
"021719","15:06:25","272486146","test","2","intention_check","68","7","34","0","2500","71","70"
"021719","15:06:25","272486146","test","2","prime_negative","69","5","60","1","730","71","71"
"021719","15:06:25","272486146","test","2","intention_check","70","5","60","0","2500","71","71"
"021719","15:06:25","272486146","test","2","prime_positive","71","11","44","1","919","73","71"
"021719","15:06:25","272486146","test","2","intention_check","72","11","44","0","2500","73","71"
"021719","15:06:25","272486146","test","2","prime_positive","73","6","32","1","1005","75","71"
"021719","15:06:25","272486146","test","2","intention_check","74","6","32","0","2500","75","71"
"021719","15:06:25","272486146","test","2","prime_negative","75","2","59","1","681","75","72"
"021719","15:06:25","272486146","test","2","intention_check","76","2","59","0","2500","75","72"
"021719","15:06:25","272486146","test","2","prime_negative","77","6","55","1","592","75","73"
"021719","15:06:25","272486146","test","2","intention_check","78","6","55","0","2500","75","73"
"021719","15:06:25","272486146","test","2","prime_positive","79","9","10","1","634","76","73"
"021719","15:06:25","272486146","test","2","intention_check","80","9","10","0","2500","76","73"
"021719","15:06:25","272486146","test","2","prime_negative","81","1","36","1","747","76","75"
"021719","15:06:25","272486146","test","2","intention_check","82","1","36","0","2500","76","75"
"021719","15:06:25","272486146","test","2","prime_negative","83","7","24","1","888","76","76"
"021719","15:06:25","272486146","test","2","intention_check","84","7","24","0","2500","76","76"
"021719","15:06:25","272486146","test","2","prime_positive","85","1","33","0","703","72","76"
"021719","15:06:25","272486146","test","2","intention_check","86","1","33","0","2500","72","76"
"021719","15:06:25","272486146","test","2","prime_positive","87","3","42","0","550","68","76"
"021719","15:06:25","272486146","test","2","intention_check","88","3","42","0","2500","68","76"
"021719","15:06:25","272486146","test","2","prime_negative","89","6","18","1","555","68","76"
"021719","15:06:25","272486146","test","2","intention_check","90","6","18","0","2500","68","76"
"021719","15:06:25","272486146","test","2","prime_negative","91","2","28","0","648","68","74"
"021719","15:06:25","272486146","test","2","intention_check","92","2","28","0","2500","68","74"
"021719","15:06:25","272486146","test","2","prime_positive","93","10","6","0","744","65","74"
"021719","15:06:25","272486146","test","2","intention_check","94","10","6","0","2500","65","74"
"021719","15:06:25","272486146","test","2","prime_positive","95","8","40","1","509","66","74"
"021719","15:06:25","272486146","test","2","intention_check","96","8","40","0","2500","66","74"
"021719","15:06:25","272486146","test","2","prime_positive","97","7","57","1","635","68","74"
"021719","15:06:25","272486146","test","2","intention_check","98","7","57","0","2500","68","74"
"021719","15:06:25","272486146","test","2","prime_positive","99","4","5","0","604","65","74"
"021719","15:06:25","272486146","test","2","intention_check","100","4","5","0","2500","65","74"
"021719","15:06:25","272486146","test","2","prime_positive","101","12","22","0","775","62","74"
"021719","15:06:25","272486146","test","2","intention_check","102","12","22","0","2500","62","74"
"021719","15:06:25","272486146","test","2","prime_negative","103","4","16","1","619","62","75"
"021719","15:06:25","272486146","test","2","intention_check","104","4","16","0","2500","62","75"
"021719","15:06:25","272486146","test","2","prime_positive","105","8","2","1","780","64","75"
"021719","15:06:25","272486146","test","2","intention_check","106","8","2","0","2500","64","75"
"021719","15:06:25","272486146","test","2","prime_negative","107","9","11","1","487","64","75"
"021719","15:06:25","272486146","test","2","intention_check","108","9","11","0","2500","64","75"
"021719","15:06:25","272486146","test","2","prime_negative","109","11","56","1","376","64","76"
"021719","15:06:25","272486146","test","2","intention_check","110","11","56","0","2500","64","76"
"021719","15:06:25","272486146","test","2","prime_positive","111","6","3","0","418","61","76"
"021719","15:06:25","272486146","test","2","intention_check","112","6","3","0","2500","61","76"
"021719","15:06:25","272486146","test","2","prime_positive","113","9","23","0","548","59","76"
"021719","15:06:25","272486146","test","2","intention_check","114","9","23","0","2500","59","76"
"021719","15:06:25","272486146","test","2","prime_positive","115","5","45","1","1434","60","76"
"021719","15:06:25","272486146","test","2","intention_check","116","5","45","0","2500","60","76"
"021719","15:06:25","272486146","test","2","prime_positive","117","12","15","1","522","62","76"
"021719","15:06:25","272486146","test","2","intention_check","118","12","15","0","2500","62","76"
"021719","15:06:25","272486146","test","2","prime_positive","119","7","30","0","577","60","76"
"021719","15:06:25","272486146","test","2","intention_check","120","7","30","0","2500","60","76"
"021719","10:07:05","275523320","test","2","prime_positive","1","3","32","1","1573","100","0"
"021719","10:07:05","275523320","test","2","intention_check","2","3","32","1","830","100","0"
"021719","10:07:05","275523320","test","2","prime_positive","3","6","11","0","941","50","0"
"021719","10:07:05","275523320","test","2","intention_check","4","6","11","0","2500","50","0"
"021719","10:07:05","275523320","test","2","prime_positive","5","2","27","1","2344","66","0"
"021719","10:07:05","275523320","test","2","intention_check","6","2","27","1","96","66","0"
"021719","10:07:05","275523320","test","2","prime_negative","7","1","1","0","1002","66","0"
"021719","10:07:05","275523320","test","2","intention_check","8","1","1","0","2500","66","0"
"021719","10:07:05","275523320","test","2","prime_positive","9","5","58","0","797","50","0"
"021719","10:07:05","275523320","test","2","intention_check","10","5","58","0","2500","50","0"
"021719","10:07:05","275523320","test","2","prime_positive","11","7","30","0","1349","40","0"
"021719","10:07:05","275523320","test","2","intention_check","12","7","30","0","2500","40","0"
"021719","10:07:05","275523320","test","2","prime_positive","13","12","6","0","2510","33","0"
"021719","10:07:05","275523320","test","2","intention_check","14","12","6","1","569","33","0"
"021719","10:07:05","275523320","test","2","prime_positive","15","4","25","1","1636","42","0"
"021719","10:07:05","275523320","test","2","intention_check","16","4","25","0","2500","42","0"
"021719","10:07:05","275523320","test","2","prime_positive","17","9","44","0","1245","37","0"
"021719","10:07:05","275523320","test","2","intention_check","18","9","44","0","2500","37","0"
"021719","10:07:05","275523320","test","2","prime_positive","19","8","4","0","782","33","0"
"021719","10:07:05","275523320","test","2","intention_check","20","8","4","0","2500","33","0"
"021719","10:07:05","275523320","test","2","prime_negative","21","3","39","0","2453","33","0"
"021719","10:07:05","275523320","test","2","intention_check","22","3","39","1","598","33","0"
"021719","10:07:05","275523320","test","2","prime_negative","23","10","60","0","701","33","0"
"021719","10:07:05","275523320","test","2","intention_check","24","10","60","0","2500","33","0"
"021719","10:07:05","275523320","test","2","prime_positive","25","10","35","0","983","30","0"
"021719","10:07:05","275523320","test","2","intention_check","26","10","35","0","2500","30","0"
"021719","10:07:05","275523320","test","2","prime_negative","27","2","21","0","493","30","0"
"021719","10:07:05","275523320","test","2","intention_check","28","2","21","0","2500","30","0"
"021719","10:07:05","275523320","test","2","prime_negative","29","12","13","1","1181","30","20"
"021719","10:07:05","275523320","test","2","intention_check","30","12","13","0","2500","30","20"
"021719","10:07:05","275523320","test","2","prime_negative","31","5","36","0","1484","30","16"
"021719","10:07:05","275523320","test","2","intention_check","32","5","36","0","2500","30","16"
"021719","10:07:05","275523320","test","2","prime_negative","33","7","40","0","1361","30","14"
"021719","10:07:05","275523320","test","2","intention_check","34","7","40","1","1320","30","14"
"021719","10:07:05","275523320","test","2","prime_negative","35","11","16","0","996","30","12"
"021719","10:07:05","275523320","test","2","intention_check","36","11","16","0","2500","30","12"
"021719","10:07:05","275523320","test","2","prime_negative","37","4","47","0","1013","30","11"
"021719","10:07:05","275523320","test","2","intention_check","38","4","47","0","2500","30","11"
"021719","10:07:05","275523320","test","2","prime_positive","39","11","48","1","1698","36","11"
"021719","10:07:05","275523320","test","2","intention_check","40","11","48","0","2500","36","11"
"021719","10:07:05","275523320","test","2","prime_negative","41","8","51","0","2943","36","10"
"021719","10:07:05","275523320","test","2","intention_check","42","8","51","0","2500","36","10"
"021719","10:07:05","275523320","test","2","prime_negative","43","9","18","0","1263","36","9"
"021719","10:07:05","275523320","test","2","intention_check","44","9","18","1","253","36","9"
"021719","10:07:05","275523320","test","2","prime_positive","45","1","29","0","1125","33","9"
"021719","10:07:05","275523320","test","2","intention_check","46","1","29","0","2500","33","9"
"021719","10:07:05","275523320","test","2","prime_positive","47","8","56","1","2076","38","9"
"021719","10:07:05","275523320","test","2","intention_check","48","8","56","1","212","38","9"
"021719","10:07:05","275523320","test","2","prime_negative","49","6","34","0","896","38","8"
"021719","10:07:05","275523320","test","2","intention_check","50","6","34","0","2500","38","8"
"021719","10:07:05","275523320","test","2","prime_positive","51","7","20","0","632","35","8"
"021719","10:07:05","275523320","test","2","intention_check","52","7","20","0","2500","35","8"
"021719","10:07:05","275523320","test","2","prime_negative","53","7","8","0","1407","35","7"
"021719","10:07:05","275523320","test","2","intention_check","54","7","8","1","596","35","7"
"021719","10:07:05","275523320","test","2","prime_negative","55","9","31","0","709","35","7"
"021719","10:07:05","275523320","test","2","intention_check","56","9","31","0","2500","35","7"
"021719","10:07:05","275523320","test","2","prime_positive","57","1","57","1","1422","40","7"
"021719","10:07:05","275523320","test","2","intention_check","58","1","57","1","1243","40","7"
"021719","10:07:05","275523320","test","2","prime_positive","59","5","23","1","1289","43","7"
"021719","10:07:05","275523320","test","2","intention_check","60","5","23","1","502","43","7"
"021719","10:07:05","275523320","test","2","prime_positive","61","9","28","1","1642","47","7"
"021719","10:07:05","275523320","test","2","intention_check","62","9","28","1","1344","47","7"
"021719","10:07:05","275523320","test","2","prime_positive","63","4","33","1","1439","50","7"
"021719","10:07:05","275523320","test","2","intention_check","64","4","33","0","2500","50","7"
"021719","10:07:05","275523320","test","2","prime_positive","65","11","37","1","567","52","7"
"021719","10:07:05","275523320","test","2","intention_check","66","11","37","1","215","52","7"
"021719","10:07:05","275523320","test","2","prime_positive","67","6","38","0","548","50","7"
"021719","10:07:05","275523320","test","2","intention_check","68","6","38","0","2500","50","7"
"021719","10:07:05","275523320","test","2","prime_negative","69","2","43","0","380","50","6"
"021719","10:07:05","275523320","test","2","intention_check","70","2","43","1","687","50","6"
"021719","10:07:05","275523320","test","2","prime_positive","71","10","55","1","1786","52","6"
"021719","10:07:05","275523320","test","2","intention_check","72","10","55","0","2500","52","6"
"021719","10:07:05","275523320","test","2","prime_negative","73","3","24","0","502","52","6"
"021719","10:07:05","275523320","test","2","intention_check","74","3","24","1","1358","52","6"
"021719","10:07:05","275523320","test","2","prime_positive","75","2","19","0","961","50","6"
"021719","10:07:05","275523320","test","2","intention_check","76","2","19","0","2500","50","6"
"021719","10:07:05","275523320","test","2","prime_positive","77","12","41","1","2207","52","6"
"021719","10:07:05","275523320","test","2","intention_check","78","12","41","0","2500","52","6"
"021719","10:07:05","275523320","test","2","prime_negative","79","12","26","0","971","52","5"
"021719","10:07:05","275523320","test","2","intention_check","80","12","26","0","2500","52","5"
"021719","10:07:05","275523320","test","2","prime_negative","81","10","49","1","669","52","11"
"021719","10:07:05","275523320","test","2","intention_check","82","10","49","0","2500","52","11"
"021719","10:07:05","275523320","test","2","prime_positive","83","3","10","0","784","50","11"
"021719","10:07:05","275523320","test","2","intention_check","84","3","10","0","2500","50","11"
"021719","10:07:05","275523320","test","2","prime_positive","85","7","17","0","543","48","11"
"021719","10:07:05","275523320","test","2","intention_check","86","7","17","0","2500","48","11"
"021719","10:07:05","275523320","test","2","prime_positive","87","8","2","1","784","50","11"
"021719","10:07:05","275523320","test","2","intention_check","88","8","2","0","2500","50","11"
"021719","10:07:05","275523320","test","2","prime_negative","89","11","42","1","1801","50","15"
"021719","10:07:05","275523320","test","2","intention_check","90","11","42","0","2500","50","15"
"021719","10:07:05","275523320","test","2","prime_positive","91","1","50","1","968","51","15"
"021719","10:07:05","275523320","test","2","intention_check","92","1","50","1","602","51","15"
"021719","10:07:05","275523320","test","2","prime_negative","93","5","59","0","595","51","15"
"021719","10:07:05","275523320","test","2","intention_check","94","5","59","0","2500","51","15"
"021719","10:07:05","275523320","test","2","prime_negative","95","6","46","0","1009","51","14"
"021719","10:07:05","275523320","test","2","intention_check","96","6","46","1","1377","51","14"
"021719","10:07:05","275523320","test","2","prime_negative","97","1","54","0","918","51","13"
"021719","10:07:05","275523320","test","2","intention_check","98","1","54","1","472","51","13"
"021719","10:07:05","275523320","test","2","prime_negative","99","4","52","1","1345","51","17"
"021719","10:07:05","275523320","test","2","intention_check","100","4","52","0","2500","51","17"
"021719","10:07:05","275523320","test","2","prime_negative","101","8","9","1","1025","51","20"
"021719","10:07:05","275523320","test","2","intention_check","102","8","9","0","2500","51","20"
"021719","10:07:05","275523320","test","2","prime_positive","103","6","15","0","548","50","20"
"021719","10:07:05","275523320","test","2","intention_check","104","6","15","0","2500","50","20"
"021719","10:07:05","275523320","test","2","prime_negative","105","12","7","1","1390","50","24"
"021719","10:07:05","275523320","test","2","intention_check","106","12","7","0","2500","50","24"
"021719","10:07:05","275523320","test","2","prime_negative","107","8","5","1","1043","50","26"
"021719","10:07:05","275523320","test","2","intention_check","108","8","5","0","2500","50","26"
"021719","10:07:05","275523320","test","2","prime_negative","109","11","22","0","509","50","25"
"021719","10:07:05","275523320","test","2","intention_check","110","11","22","0","2500","50","25"
"021719","10:07:05","275523320","test","2","prime_negative","111","3","14","0","528","50","25"
"021719","10:07:05","275523320","test","2","intention_check","112","3","14","0","2500","50","25"
"021719","10:07:05","275523320","test","2","prime_negative","113","2","12","0","425","50","24"
"021719","10:07:05","275523320","test","2","intention_check","114","2","12","1","1066","50","24"
"021719","10:07:05","275523320","test","2","prime_positive","115","4","53","0","2347","48","24"
"021719","10:07:05","275523320","test","2","intention_check","116","4","53","1","577","48","24"
"021719","10:07:05","275523320","test","2","prime_positive","117","10","45","0","674","46","24"
"021719","10:07:05","275523320","test","2","intention_check","118","10","45","0","2500","46","24"
"021719","10:07:05","275523320","test","2","prime_negative","119","9","3","1","875","46","26"
"021719","10:07:05","275523320","test","2","intention_check","120","9","3","0","2500","46","26"
"021819","03:13:38","566506627","test","2","prime_negative","1","6","49","0","678","0","0"
"021819","03:13:38","566506627","test","2","intention_check","2","6","49","1","1296","0","0"
"021819","03:13:38","566506627","test","2","prime_negative","3","5","43","0","311","0","0"
"021819","03:13:38","566506627","test","2","intention_check","4","5","43","1","928","0","0"
"021819","03:13:38","566506627","test","2","prime_positive","5","2","7","1","519","100","0"
"021819","03:13:38","566506627","test","2","intention_check","6","2","7","1","983","100","0"
"021819","03:13:38","566506627","test","2","prime_negative","7","10","1","0","758","100","0"
"021819","03:13:38","566506627","test","2","intention_check","8","10","1","1","581","100","0"
"021819","03:13:38","566506627","test","2","prime_negative","9","2","28","0","284","100","0"
"021819","03:13:38","566506627","test","2","intention_check","10","2","28","1","349","100","0"
"021819","03:13:38","566506627","test","2","prime_negative","11","12","34","0","380","100","0"
"021819","03:13:38","566506627","test","2","intention_check","12","12","34","1","186","100","0"
"021819","03:13:38","566506627","test","2","prime_positive","13","8","44","1","505","100","0"
"021819","03:13:38","566506627","test","2","intention_check","14","8","44","1","210","100","0"
"021819","03:13:38","566506627","test","2","prime_positive","15","7","10","1","393","100","0"
"021819","03:13:38","566506627","test","2","intention_check","16","7","10","1","566","100","0"
"021819","03:13:38","566506627","test","2","prime_positive","17","1","41","1","789","100","0"
"021819","03:13:38","566506627","test","2","intention_check","18","1","41","1","626","100","0"
"021819","03:13:38","566506627","test","2","prime_positive","19","6","18","1","617","100","0"
"021819","03:13:38","566506627","test","2","intention_check","20","6","18","1","349","100","0"
"021819","03:13:38","566506627","test","2","prime_positive","21","12","46","0","660","83","0"
"021819","03:13:38","566506627","test","2","intention_check","22","12","46","1","503","83","0"
"021819","03:13:38","566506627","test","2","prime_positive","23","9","9","1","414","85","0"
"021819","03:13:38","566506627","test","2","intention_check","24","9","9","1","515","85","0"
"021819","03:13:38","566506627","test","2","prime_negative","25","1","5","0","297","85","0"
"021819","03:13:38","566506627","test","2","intention_check","26","1","5","1","490","85","0"
"021819","03:13:38","566506627","test","2","prime_negative","27","9","53","0","185","85","0"
"021819","03:13:38","566506627","test","2","intention_check","28","9","53","1","494","85","0"
"021819","03:13:38","566506627","test","2","prime_negative","29","8","36","0","262","85","0"
"021819","03:13:38","566506627","test","2","intention_check","30","8","36","1","520","85","0"
"021819","03:13:38","566506627","test","2","prime_negative","31","3","13","0","231","85","0"
"021819","03:13:38","566506627","test","2","intention_check","32","3","13","1","507","85","0"
"021819","03:13:38","566506627","test","2","prime_positive","33","3","30","1","218","87","0"
"021819","03:13:38","566506627","test","2","intention_check","34","3","30","1","742","87","0"
"021819","03:13:38","566506627","test","2","prime_positive","35","10","25","1","285","88","0"
"021819","03:13:38","566506627","test","2","intention_check","36","10","25","1","502","88","0"
"021819","03:13:38","566506627","test","2","prime_positive","37","4","14","1","373","90","0"
"021819","03:13:38","566506627","test","2","intention_check","38","4","14","1","395","90","0"
"021819","03:13:38","566506627","test","2","prime_positive","39","5","12","1","306","90","0"
"021819","03:13:38","566506627","test","2","intention_check","40","5","12","1","323","90","0"
"021819","03:13:38","566506627","test","2","prime_positive","41","11","50","1","394","91","0"
"021819","03:13:38","566506627","test","2","intention_check","42","11","50","1","263","91","0"
"021819","03:13:38","566506627","test","2","prime_negative","43","4","22","0","374","91","0"
"021819","03:13:38","566506627","test","2","intention_check","44","4","22","1","244","91","0"
"021819","03:13:38","566506627","test","2","prime_positive","45","5","17","1","339","92","0"
"021819","03:13:38","566506627","test","2","intention_check","46","5","17","1","187","92","0"
"021819","03:13:38","566506627","test","2","prime_positive","47","3","19","1","281","92","0"
"021819","03:13:38","566506627","test","2","intention_check","48","3","19","1","227","92","0"
"021819","03:13:38","566506627","test","2","prime_negative","49","7","57","0","307","92","0"
"021819","03:13:38","566506627","test","2","intention_check","50","7","57","1","123","92","0"
"021819","03:13:38","566506627","test","2","prime_positive","51","6","21","1","346","93","0"
"021819","03:13:38","566506627","test","2","intention_check","52","6","21","1","257","93","0"
"021819","03:13:38","566506627","test","2","prime_negative","53","11","48","1","2520","93","8"
"021819","03:13:38","566506627","test","2","intention_check","54","11","48","0","2500","93","8"
"021819","03:13:38","566506627","test","2","prime_positive","55","9","20","1","336","93","8"
"021819","03:13:38","566506627","test","2","intention_check","56","9","20","1","159","93","8"
"021819","03:13:38","566506627","test","2","prime_positive","57","8","16","1","414","94","8"
"021819","03:13:38","566506627","test","2","intention_check","58","8","16","1","243","94","8"
"021819","03:13:38","566506627","test","2","prime_positive","59","7","27","1","338","94","8"
"021819","03:13:38","566506627","test","2","intention_check","60","7","27","1","225","94","8"
"021819","03:13:38","566506627","test","2","prime_negative","61","12","35","0","504","94","7"
"021819","03:13:38","566506627","test","2","intention_check","62","12","35","1","153","94","7"
"021819","03:13:38","566506627","test","2","prime_negative","63","8","40","0","224","94","7"
"021819","03:13:38","566506627","test","2","intention_check","64","8","40","1","140","94","7"
"021819","03:13:38","566506627","test","2","prime_negative","65","2","47","0","339","94","6"
"021819","03:13:38","566506627","test","2","intention_check","66","2","47","1","266","94","6"
"021819","03:13:38","566506627","test","2","prime_negative","67","6","37","0","369","94","6"
"021819","03:13:38","566506627","test","2","intention_check","68","6","37","1","159","94","6"
"021819","03:13:38","566506627","test","2","prime_negative","69","4","15","0","126","94","5"
"021819","03:13:38","566506627","test","2","intention_check","70","4","15","1","182","94","5"
"021819","03:13:38","566506627","test","2","prime_positive","71","11","33","1","509","94","5"
"021819","03:13:38","566506627","test","2","intention_check","72","11","33","1","182","94","5"
"021819","03:13:38","566506627","test","2","prime_negative","73","5","38","0","277","94","5"
"021819","03:13:38","566506627","test","2","intention_check","74","5","38","1","207","94","5"
"021819","03:13:38","566506627","test","2","prime_positive","75","4","60","1","389","95","5"
"021819","03:13:38","566506627","test","2","intention_check","76","4","60","1","243","95","5"
"021819","03:13:38","566506627","test","2","prime_positive","77","10","6","1","410","95","5"
"021819","03:13:38","566506627","test","2","intention_check","78","10","6","1","518","95","5"
"021819","03:13:38","566506627","test","2","prime_positive","79","1","45","1","310","95","5"
"021819","03:13:38","566506627","test","2","intention_check","80","1","45","1","414","95","5"
"021819","03:13:38","566506627","test","2","prime_negative","81","9","58","0","357","95","5"
"021819","03:13:38","566506627","test","2","intention_check","82","9","58","1","180","95","5"
"021819","03:13:38","566506627","test","2","prime_positive","83","2","52","1","419","95","5"
"021819","03:13:38","566506627","test","2","intention_check","84","2","52","1","279","95","5"
"021819","03:13:38","566506627","test","2","prime_negative","85","3","51","0","454","95","5"
"021819","03:13:38","566506627","test","2","intention_check","86","3","51","1","168","95","5"
"021819","03:13:38","566506627","test","2","prime_positive","87","12","55","0","439","91","5"
"021819","03:13:38","566506627","test","2","intention_check","88","12","55","1","171","91","5"
"021819","03:13:38","566506627","test","2","prime_positive","89","7","11","1","274","92","5"
"021819","03:13:38","566506627","test","2","intention_check","90","7","11","1","244","92","5"
"021819","03:13:38","566506627","test","2","prime_positive","91","6","42","1","419","92","5"
"021819","03:13:38","566506627","test","2","intention_check","92","6","42","1","287","92","5"
"021819","03:13:38","566506627","test","2","prime_negative","93","11","4","1","2222","92","9"
"021819","03:13:38","566506627","test","2","intention_check","94","11","4","1","178","92","9"
"021819","03:13:38","566506627","test","2","prime_positive","95","8","32","1","353","92","9"
"021819","03:13:38","566506627","test","2","intention_check","96","8","32","1","336","92","9"
"021819","03:13:38","566506627","test","2","prime_positive","97","9","31","1","407","92","9"
"021819","03:13:38","566506627","test","2","intention_check","98","9","31","1","827","92","9"
"021819","03:13:38","566506627","test","2","prime_negative","99","10","24","0","298","92","9"
"021819","03:13:38","566506627","test","2","intention_check","100","10","24","1","372","92","9"
"021819","03:13:38","566506627","test","2","prime_negative","101","7","56","0","282","92","8"
"021819","03:13:38","566506627","test","2","intention_check","102","7","56","1","244","92","8"
"021819","03:13:38","566506627","test","2","prime_positive","103","10","26","1","266","93","8"
"021819","03:13:38","566506627","test","2","intention_check","104","10","26","1","285","93","8"
"021819","03:13:38","566506627","test","2","prime_negative","105","1","2","0","219","93","8"
"021819","03:13:38","566506627","test","2","intention_check","106","1","2","1","239","93","8"
"021819","03:13:38","566506627","test","2","prime_negative","107","4","23","0","470","93","8"
"021819","03:13:38","566506627","test","2","intention_check","108","4","23","1","280","93","8"
"021819","03:13:38","566506627","test","2","prime_negative","109","2","8","0","199","93","7"
"021819","03:13:38","566506627","test","2","intention_check","110","2","8","1","420","93","7"
"021819","03:13:38","566506627","test","2","prime_negative","111","9","29","0","163","93","7"
"021819","03:13:38","566506627","test","2","intention_check","112","9","29","1","233","93","7"
"021819","03:13:38","566506627","test","2","prime_negative","113","10","59","0","176","93","7"
"021819","03:13:38","566506627","test","2","intention_check","114","10","59","1","246","93","7"
"021819","03:13:38","566506627","test","2","prime_positive","115","2","3","1","397","93","7"
"021819","03:13:38","566506627","test","2","intention_check","116","2","3","1","162","93","7"
"021819","03:13:38","566506627","test","2","prime_negative","117","6","54","0","353","93","6"
"021819","03:13:38","566506627","test","2","intention_check","118","6","54","1","688","93","6"
"021819","03:13:38","566506627","test","2","prime_negative","119","5","39","0","343","93","6"
"021819","03:13:38","566506627","test","2","intention_check","120","5","39","1","278","93","6"
"021719","16:13:51","521153975","test","2","prime_positive","1","2","16","0","1342","0","0"
"021719","16:13:51","521153975","test","2","intention_check","2","2","16","0","2500","0","0"
"021719","16:13:51","521153975","test","2","prime_negative","3","9","42","1","1114","0","100"
"021719","16:13:51","521153975","test","2","intention_check","4","9","42","0","2500","0","100"
"021719","16:13:51","521153975","test","2","prime_positive","5","12","51","1","661","50","100"
"021719","16:13:51","521153975","test","2","intention_check","6","12","51","0","2500","50","100"
"021719","16:13:51","521153975","test","2","prime_negative","7","8","4","0","1998","50","50"
"021719","16:13:51","521153975","test","2","intention_check","8","8","4","1","2202","50","50"
"021719","16:13:51","521153975","test","2","prime_positive","9","9","19","0","1130","33","50"
"021719","16:13:51","521153975","test","2","intention_check","10","9","19","0","2500","33","50"
"021719","16:13:51","521153975","test","2","prime_positive","11","5","22","1","530","50","50"
"021719","16:13:51","521153975","test","2","intention_check","12","5","22","0","2500","50","50"
"021719","16:13:51","521153975","test","2","prime_negative","13","11","18","1","711","50","66"
"021719","16:13:51","521153975","test","2","intention_check","14","11","18","0","2500","50","66"
"021719","16:13:51","521153975","test","2","prime_positive","15","11","20","0","750","40","66"
"021719","16:13:51","521153975","test","2","intention_check","16","11","20","0","2500","40","66"
"021719","16:13:51","521153975","test","2","prime_negative","17","1","43","0","817","40","50"
"021719","16:13:51","521153975","test","2","intention_check","18","1","43","1","742","40","50"
"021719","16:13:51","521153975","test","2","prime_negative","19","4","1","0","1221","40","40"
"021719","16:13:51","521153975","test","2","intention_check","20","4","1","1","751","40","40"
"021719","16:13:51","521153975","test","2","prime_positive","21","3","52","1","450","50","40"
"021719","16:13:51","521153975","test","2","intention_check","22","3","52","0","2500","50","40"
"021719","16:13:51","521153975","test","2","prime_negative","23","2","32","0","1225","50","33"
"021719","16:13:51","521153975","test","2","intention_check","24","2","32","1","989","50","33"
"021719","16:13:51","521153975","test","2","prime_negative","25","6","45","1","617","50","42"
"021719","16:13:51","521153975","test","2","intention_check","26","6","45","0","2500","50","42"
"021719","16:13:51","521153975","test","2","prime_positive","27","8","34","1","808","57","42"
"021719","16:13:51","521153975","test","2","intention_check","28","8","34","1","1354","57","42"
"021719","16:13:51","521153975","test","2","prime_negative","29","10","48","1","882","57","50"
"021719","16:13:51","521153975","test","2","intention_check","30","10","48","0","2500","57","50"
"021719","16:13:51","521153975","test","2","prime_positive","31","7","60","1","716","62","50"
"021719","16:13:51","521153975","test","2","intention_check","32","7","60","0","2500","62","50"
"021719","16:13:51","521153975","test","2","prime_negative","33","5","12","1","695","62","55"
"021719","16:13:51","521153975","test","2","intention_check","34","5","12","0","2500","62","55"
"021719","16:13:51","521153975","test","2","prime_positive","35","1","36","0","1169","55","55"
"021719","16:13:51","521153975","test","2","intention_check","36","1","36","0","2500","55","55"
"021719","16:13:51","521153975","test","2","prime_negative","37","7","44","1","563","55","60"
"021719","16:13:51","521153975","test","2","intention_check","38","7","44","0","2500","55","60"
"021719","16:13:51","521153975","test","2","prime_negative","39","3","37","1","768","55","63"
"021719","16:13:51","521153975","test","2","intention_check","40","3","37","0","2500","55","63"
"021719","16:13:51","521153975","test","2","prime_positive","41","10","47","1","499","60","63"
"021719","16:13:51","521153975","test","2","intention_check","42","10","47","1","1224","60","63"
"021719","16:13:51","521153975","test","2","prime_positive","43","6","8","1","735","63","63"
"021719","16:13:51","521153975","test","2","intention_check","44","6","8","0","2500","63","63"
"021719","16:13:51","521153975","test","2","prime_positive","45","4","24","1","541","66","63"
"021719","16:13:51","521153975","test","2","intention_check","46","4","24","0","2500","66","63"
"021719","16:13:51","521153975","test","2","prime_positive","47","5","3","1","373","69","63"
"021719","16:13:51","521153975","test","2","intention_check","48","5","3","1","1932","69","63"
"021719","16:13:51","521153975","test","2","prime_positive","49","11","26","0","922","64","63"
"021719","16:13:51","521153975","test","2","intention_check","50","11","26","0","2500","64","63"
"021719","16:13:51","521153975","test","2","prime_positive","51","6","7","0","783","60","63"
"021719","16:13:51","521153975","test","2","intention_check","52","6","7","0","2500","60","63"
"021719","16:13:51","521153975","test","2","prime_negative","53","12","6","0","635","60","58"
"021719","16:13:51","521153975","test","2","intention_check","54","12","6","0","2500","60","58"
"021719","16:13:51","521153975","test","2","prime_positive","55","9","38","1","1033","62","58"
"021719","16:13:51","521153975","test","2","intention_check","56","9","38","0","2500","62","58"
"021719","16:13:51","521153975","test","2","prime_negative","57","7","50","1","494","62","61"
"021719","16:13:51","521153975","test","2","intention_check","58","7","50","0","2500","62","61"
"021719","16:13:51","521153975","test","2","prime_positive","59","10","30","0","859","58","61"
"021719","16:13:51","521153975","test","2","intention_check","60","10","30","0","2500","58","61"
"021719","16:13:51","521153975","test","2","prime_negative","61","2","10","0","917","58","57"
"021719","16:13:51","521153975","test","2","intention_check","62","2","10","1","1033","58","57"
"021719","16:13:51","521153975","test","2","prime_positive","63","12","28","1","659","61","57"
"021719","16:13:51","521153975","test","2","intention_check","64","12","28","1","1584","61","57"
"021719","16:13:51","521153975","test","2","prime_negative","65","6","54","0","875","61","53"
"021719","16:13:51","521153975","test","2","intention_check","66","6","54","0","2500","61","53"
"021719","16:13:51","521153975","test","2","prime_negative","67","10","17","0","908","61","50"
"021719","16:13:51","521153975","test","2","intention_check","68","10","17","0","2500","61","50"
"021719","16:13:51","521153975","test","2","prime_negative","69","3","56","1","2124","61","52"
"021719","16:13:51","521153975","test","2","intention_check","70","3","56","0","2500","61","52"
"021719","16:13:51","521153975","test","2","prime_negative","71","4","35","1","909","61","55"
"021719","16:13:51","521153975","test","2","intention_check","72","4","35","0","2500","61","55"
"021719","16:13:51","521153975","test","2","prime_negative","73","1","39","1","380","61","57"
"021719","16:13:51","521153975","test","2","intention_check","74","1","39","0","2500","61","57"
"021719","16:13:51","521153975","test","2","prime_negative","75","11","13","1","829","61","60"
"021719","16:13:51","521153975","test","2","intention_check","76","11","13","0","2500","61","60"
"021719","16:13:51","521153975","test","2","prime_positive","77","8","2","0","753","57","60"
"021719","16:13:51","521153975","test","2","intention_check","78","8","2","0","2500","57","60"
"021719","16:13:51","521153975","test","2","prime_positive","79","1","9","1","752","60","60"
"021719","16:13:51","521153975","test","2","intention_check","80","1","9","0","2500","60","60"
"021719","16:13:51","521153975","test","2","prime_positive","81","3","55","1","1091","61","60"
"021719","16:13:51","521153975","test","2","intention_check","82","3","55","1","1367","61","60"
"021719","16:13:51","521153975","test","2","prime_positive","83","4","31","0","809","59","60"
"021719","16:13:51","521153975","test","2","intention_check","84","4","31","0","2500","59","60"
"021719","16:13:51","521153975","test","2","prime_negative","85","12","5","1","660","59","61"
"021719","16:13:51","521153975","test","2","intention_check","86","12","5","0","2500","59","61"
"021719","16:13:51","521153975","test","2","prime_negative","87","8","33","1","1037","59","63"
"021719","16:13:51","521153975","test","2","intention_check","88","8","33","0","2500","59","63"
"021719","16:13:51","521153975","test","2","prime_negative","89","9","25","1","637","59","65"
"021719","16:13:51","521153975","test","2","intention_check","90","9","25","0","2500","59","65"
"021719","16:13:51","521153975","test","2","prime_positive","91","7","27","1","546","60","65"
"021719","16:13:51","521153975","test","2","intention_check","92","7","27","0","2500","60","65"
"021719","16:13:51","521153975","test","2","prime_positive","93","2","29","1","631","62","65"
"021719","16:13:51","521153975","test","2","intention_check","94","2","29","0","2500","62","65"
"021719","16:13:51","521153975","test","2","prime_negative","95","5","49","1","911","62","66"
"021719","16:13:51","521153975","test","2","intention_check","96","5","49","0","2500","62","66"
"021719","16:13:51","521153975","test","2","prime_positive","97","2","41","1","554","64","66"
"021719","16:13:51","521153975","test","2","intention_check","98","2","41","0","2500","64","66"
"021719","16:13:51","521153975","test","2","prime_negative","99","5","11","1","374","64","68"
"021719","16:13:51","521153975","test","2","intention_check","100","5","11","0","2500","64","68"
"021719","16:13:51","521153975","test","2","prime_positive","101","8","23","0","483","61","68"
"021719","16:13:51","521153975","test","2","intention_check","102","8","23","0","2500","61","68"
"021719","16:13:51","521153975","test","2","prime_negative","103","1","58","1","842","61","69"
"021719","16:13:51","521153975","test","2","intention_check","104","1","58","0","2500","61","69"
"021719","16:13:51","521153975","test","2","prime_negative","105","6","14","1","823","61","70"
"021719","16:13:51","521153975","test","2","intention_check","106","6","14","0","2500","61","70"
"021719","16:13:51","521153975","test","2","prime_positive","107","1","59","1","398","62","70"
"021719","16:13:51","521153975","test","2","intention_check","108","1","59","0","2500","62","70"
"021719","16:13:51","521153975","test","2","prime_negative","109","7","21","0","711","62","67"
"021719","16:13:51","521153975","test","2","intention_check","110","7","21","0","2500","62","67"
"021719","16:13:51","521153975","test","2","prime_positive","111","11","15","1","650","64","67"
"021719","16:13:51","521153975","test","2","intention_check","112","11","15","0","2500","64","67"
"021719","16:13:51","521153975","test","2","prime_negative","113","12","46","0","721","64","65"
"021719","16:13:51","521153975","test","2","intention_check","114","12","46","0","2500","64","65"
"021719","16:13:51","521153975","test","2","prime_negative","115","9","53","1","485","64","66"
"021719","16:13:51","521153975","test","2","intention_check","116","9","53","0","2500","64","66"
"021719","16:13:51","521153975","test","2","prime_positive","117","7","57","1","165","65","66"
"021719","16:13:51","521153975","test","2","intention_check","118","7","57","0","2500","65","66"
"021719","16:13:51","521153975","test","2","prime_positive","119","6","40","0","4503","63","66"
"021719","16:13:51","521153975","test","2","intention_check","120","6","40","0","2500","63","66"
"021719","16:15:45","181883259","test","2","prime_negative","1","4","2","1","1296","0","100"
"021719","16:15:45","181883259","test","2","intention_check","2","4","2","0","2500","0","100"
"021719","16:15:45","181883259","test","2","prime_negative","3","3","31","0","2572","0","50"
"021719","16:15:45","181883259","test","2","intention_check","4","3","31","1","1024","0","50"
"021719","16:15:45","181883259","test","2","prime_positive","5","3","27","1","533","100","50"
"021719","16:15:45","181883259","test","2","intention_check","6","3","27","0","2500","100","50"
"021719","16:15:45","181883259","test","2","prime_negative","7","9","18","1","986","100","66"
"021719","16:15:45","181883259","test","2","intention_check","8","9","18","0","2500","100","66"
"021719","16:15:45","181883259","test","2","prime_positive","9","8","42","1","688","100","66"
"021719","16:15:45","181883259","test","2","intention_check","10","8","42","0","2500","100","66"
"021719","16:15:45","181883259","test","2","prime_negative","11","5","60","1","690","100","75"
"021719","16:15:45","181883259","test","2","intention_check","12","5","60","0","2500","100","75"
"021719","16:15:45","181883259","test","2","prime_positive","13","9","3","1","602","100","75"
"021719","16:15:45","181883259","test","2","intention_check","14","9","3","0","2500","100","75"
"021719","16:15:45","181883259","test","2","prime_negative","15","11","54","1","620","100","80"
"021719","16:15:45","181883259","test","2","intention_check","16","11","54","0","2500","100","80"
"021719","16:15:45","181883259","test","2","prime_negative","17","10","8","1","567","100","83"
"021719","16:15:45","181883259","test","2","intention_check","18","10","8","0","2500","100","83"
"021719","16:15:45","181883259","test","2","prime_negative","19","7","48","0","1017","100","71"
"021719","16:15:45","181883259","test","2","intention_check","20","7","48","1","543","100","71"
"021719","16:15:45","181883259","test","2","prime_positive","21","7","32","1","613","100","71"
"021719","16:15:45","181883259","test","2","intention_check","22","7","32","0","2500","100","71"
"021719","16:15:45","181883259","test","2","prime_positive","23","5","6","1","522","100","71"
"021719","16:15:45","181883259","test","2","intention_check","24","5","6","0","2500","100","71"
"021719","16:15:45","181883259","test","2","prime_negative","25","2","33","0","1105","100","62"
"021719","16:15:45","181883259","test","2","intention_check","26","2","33","1","252","100","62"
"021719","16:15:45","181883259","test","2","prime_positive","27","4","19","0","1189","83","62"
"021719","16:15:45","181883259","test","2","intention_check","28","4","19","1","723","83","62"
"021719","16:15:45","181883259","test","2","prime_positive","29","12","13","1","619","85","62"
"021719","16:15:45","181883259","test","2","intention_check","30","12","13","0","2500","85","62"
"021719","16:15:45","181883259","test","2","prime_negative","31","8","51","1","717","85","66"
"021719","16:15:45","181883259","test","2","intention_check","32","8","51","0","2500","85","66"
"021719","16:15:45","181883259","test","2","prime_negative","33","12","14","1","565","85","70"
"021719","16:15:45","181883259","test","2","intention_check","34","12","14","0","2500","85","70"
"021719","16:15:45","181883259","test","2","prime_negative","35","6","58","0","837","85","63"
"021719","16:15:45","181883259","test","2","intention_check","36","6","58","1","510","85","63"
"021719","16:15:45","181883259","test","2","prime_positive","37","6","21","1","325","87","63"
"021719","16:15:45","181883259","test","2","intention_check","38","6","21","0","2500","87","63"
"021719","16:15:45","181883259","test","2","prime_negative","39","1","20","0","638","87","58"
"021719","16:15:45","181883259","test","2","intention_check","40","1","20","1","463","87","58"
"021719","16:15:45","181883259","test","2","prime_positive","41","2","7","1","470","88","58"
"021719","16:15:45","181883259","test","2","intention_check","42","2","7","0","2500","88","58"
"021719","16:15:45","181883259","test","2","prime_negative","43","7","45","0","670","88","53"
"021719","16:15:45","181883259","test","2","intention_check","44","7","45","1","442","88","53"
"021719","16:15:45","181883259","test","2","prime_negative","45","6","1","0","749","88","50"
"021719","16:15:45","181883259","test","2","intention_check","46","6","1","1","474","88","50"
"021719","16:15:45","181883259","test","2","prime_negative","47","11","17","1","374","88","53"
"021719","16:15:45","181883259","test","2","intention_check","48","11","17","0","2500","88","53"
"021719","16:15:45","181883259","test","2","prime_positive","49","10","49","1","346","90","53"
"021719","16:15:45","181883259","test","2","intention_check","50","10","49","0","2500","90","53"
"021719","16:15:45","181883259","test","2","prime_negative","51","2","44","0","673","90","50"
"021719","16:15:45","181883259","test","2","intention_check","52","2","44","1","455","90","50"
"021719","16:15:45","181883259","test","2","prime_positive","53","11","38","1","532","90","50"
"021719","16:15:45","181883259","test","2","intention_check","54","11","38","0","2500","90","50"
"021719","16:15:45","181883259","test","2","prime_positive","55","1","12","1","1446","91","50"
"021719","16:15:45","181883259","test","2","intention_check","56","1","12","0","2500","91","50"
"021719","16:15:45","181883259","test","2","prime_positive","57","5","23","1","277","92","50"
"021719","16:15:45","181883259","test","2","intention_check","58","5","23","0","2500","92","50"
"021719","16:15:45","181883259","test","2","prime_positive","59","4","43","0","431","85","50"
"021719","16:15:45","181883259","test","2","intention_check","60","4","43","1","524","85","50"
"021719","16:15:45","181883259","test","2","prime_negative","61","5","5","1","837","85","52"
"021719","16:15:45","181883259","test","2","intention_check","62","5","5","0","2500","85","52"
"021719","16:15:45","181883259","test","2","prime_positive","63","3","4","1","415","86","52"
"021719","16:15:45","181883259","test","2","intention_check","64","3","4","0","2500","86","52"
"021719","16:15:45","181883259","test","2","prime_negative","65","9","10","1","405","86","55"
"021719","16:15:45","181883259","test","2","intention_check","66","9","10","0","2500","86","55"
"021719","16:15:45","181883259","test","2","prime_negative","67","8","15","1","380","86","57"
"021719","16:15:45","181883259","test","2","intention_check","68","8","15","0","2500","86","57"
"021719","16:15:45","181883259","test","2","prime_positive","69","12","29","1","372","87","57"
"021719","16:15:45","181883259","test","2","intention_check","70","12","29","0","2500","87","57"
"021719","16:15:45","181883259","test","2","prime_negative","71","4","16","1","782","87","60"
"021719","16:15:45","181883259","test","2","intention_check","72","4","16","0","2500","87","60"
"021719","16:15:45","181883259","test","2","prime_positive","73","2","41","1","203","88","60"
"021719","16:15:45","181883259","test","2","intention_check","74","2","41","0","2500","88","60"
"021719","16:15:45","181883259","test","2","prime_negative","75","12","50","1","279","88","61"
"021719","16:15:45","181883259","test","2","intention_check","76","12","50","0","2500","88","61"
"021719","16:15:45","181883259","test","2","prime_negative","77","1","26","0","473","88","59"
"021719","16:15:45","181883259","test","2","intention_check","78","1","26","1","485","88","59"
"021719","16:15:45","181883259","test","2","prime_positive","79","7","55","1","362","88","59"
"021719","16:15:45","181883259","test","2","intention_check","80","7","55","0","2500","88","59"
"021719","16:15:45","181883259","test","2","prime_positive","81","10","35","1","341","89","59"
"021719","16:15:45","181883259","test","2","intention_check","82","10","35","0","2500","89","59"
"021719","16:15:45","181883259","test","2","prime_negative","83","3","11","0","548","89","56"
"021719","16:15:45","181883259","test","2","intention_check","84","3","11","1","463","89","56"
"021719","16:15:45","181883259","test","2","prime_negative","85","10","25","1","363","89","58"
"021719","16:15:45","181883259","test","2","intention_check","86","10","25","0","2500","89","58"
"021719","16:15:45","181883259","test","2","prime_negative","87","12","24","1","584","89","60"
"021719","16:15:45","181883259","test","2","intention_check","88","12","24","0","2500","89","60"
"021719","16:15:45","181883259","test","2","prime_negative","89","2","39","0","385","89","57"
"021719","16:15:45","181883259","test","2","intention_check","90","2","39","1","457","89","57"
"021719","16:15:45","181883259","test","2","prime_negative","91","10","30","1","417","89","59"
"021719","16:15:45","181883259","test","2","intention_check","92","10","30","0","2500","89","59"
"021719","16:15:45","181883259","test","2","prime_positive","93","1","46","1","356","90","59"
"021719","16:15:45","181883259","test","2","intention_check","94","1","46","0","2500","90","59"
"021719","16:15:45","181883259","test","2","prime_negative","95","4","22","1","375","90","60"
"021719","16:15:45","181883259","test","2","intention_check","96","4","22","0","2500","90","60"
"021719","16:15:45","181883259","test","2","prime_positive","97","9","57","1","258","90","60"
"021719","16:15:45","181883259","test","2","intention_check","98","9","57","0","2500","90","60"
"021719","16:15:45","181883259","test","2","prime_positive","99","8","36","1","339","90","60"
"021719","16:15:45","181883259","test","2","intention_check","100","8","36","0","2500","90","60"
"021719","16:15:45","181883259","test","2","prime_positive","101","6","59","1","191","91","60"
"021719","16:15:45","181883259","test","2","intention_check","102","6","59","0","2500","91","60"
"021719","16:15:45","181883259","test","2","prime_positive","103","11","53","1","238","91","60"
"021719","16:15:45","181883259","test","2","intention_check","104","11","53","0","2500","91","60"
"021719","16:15:45","181883259","test","2","prime_positive","105","10","37","1","241","92","60"
"021719","16:15:45","181883259","test","2","intention_check","106","10","37","0","2500","92","60"
"021719","16:15:45","181883259","test","2","prime_positive","107","6","52","1","338","92","60"
"021719","16:15:45","181883259","test","2","intention_check","108","6","52","0","2500","92","60"
"021719","16:15:45","181883259","test","2","prime_negative","109","3","47","0","372","92","58"
"021719","16:15:45","181883259","test","2","intention_check","110","3","47","1","534","92","58"
"021719","16:15:45","181883259","test","2","prime_positive","111","11","34","1","352","92","58"
"021719","16:15:45","181883259","test","2","intention_check","112","11","34","0","2500","92","58"
"021719","16:15:45","181883259","test","2","prime_positive","113","4","28","0","528","89","58"
"021719","16:15:45","181883259","test","2","intention_check","114","4","28","1","510","89","58"
"021719","16:15:45","181883259","test","2","prime_negative","115","7","40","0","712","89","56"
"021719","16:15:45","181883259","test","2","intention_check","116","7","40","1","459","89","56"
"021719","16:15:45","181883259","test","2","prime_positive","117","3","9","1","369","89","56"
"021719","16:15:45","181883259","test","2","intention_check","118","3","9","0","2500","89","56"
"021719","16:15:45","181883259","test","2","prime_positive","119","8","56","1","379","90","56"
"021719","16:15:45","181883259","test","2","intention_check","120","8","56","0","2500","90","56"
"021719","16:17:35","9223988","test","2","prime_positive","1","8","44","0","1213","0","0"
"021719","16:17:35","9223988","test","2","intention_check","2","8","44","0","2500","0","0"
"021719","16:17:35","9223988","test","2","prime_positive","3","9","20","0","741","0","0"
"021719","16:17:35","9223988","test","2","intention_check","4","9","20","0","2500","0","0"
"021719","16:17:35","9223988","test","2","prime_negative","5","12","18","0","617","0","0"
"021719","16:17:35","9223988","test","2","intention_check","6","12","18","0","2500","0","0"
"021719","16:17:35","9223988","test","2","prime_negative","7","6","42","0","530","0","0"
"021719","16:17:35","9223988","test","2","intention_check","8","6","42","0","2500","0","0"
"021719","16:17:35","9223988","test","2","prime_negative","9","5","23","0","588","0","0"
"021719","16:17:35","9223988","test","2","intention_check","10","5","23","0","2500","0","0"
"021719","16:17:35","9223988","test","2","prime_positive","11","12","5","0","540","0","0"
"021719","16:17:35","9223988","test","2","intention_check","12","12","5","0","2500","0","0"
"021719","16:17:35","9223988","test","2","prime_negative","13","7","19","0","508","0","0"
"021719","16:17:35","9223988","test","2","intention_check","14","7","19","0","2500","0","0"
"021719","16:17:35","9223988","test","2","prime_positive","15","4","30","0","664","0","0"
"021719","16:17:35","9223988","test","2","intention_check","16","4","30","0","2500","0","0"
"021719","16:17:35","9223988","test","2","prime_negative","17","9","16","0","452","0","0"
"021719","16:17:35","9223988","test","2","intention_check","18","9","16","0","2500","0","0"
"021719","16:17:35","9223988","test","2","prime_positive","19","2","43","0","403","0","0"
"021719","16:17:35","9223988","test","2","intention_check","20","2","43","0","2500","0","0"
"021719","16:17:35","9223988","test","2","prime_positive","21","6","54","0","439","0","0"
"021719","16:17:35","9223988","test","2","intention_check","22","6","54","0","2500","0","0"
"021719","16:17:35","9223988","test","2","prime_positive","23","7","10","0","477","0","0"
"021719","16:17:35","9223988","test","2","intention_check","24","7","10","0","2500","0","0"
"021719","16:17:35","9223988","test","2","prime_negative","25","10","9","0","636","0","0"
"021719","16:17:35","9223988","test","2","intention_check","26","10","9","0","2500","0","0"
"021719","16:17:35","9223988","test","2","prime_positive","27","3","22","0","456","0","0"
"021719","16:17:35","9223988","test","2","intention_check","28","3","22","0","2500","0","0"
"021719","16:17:35","9223988","test","2","prime_negative","29","2","60","0","935","0","0"
"021719","16:17:35","9223988","test","2","intention_check","30","2","60","0","2500","0","0"
"021719","16:17:35","9223988","test","2","prime_positive","31","10","3","0","664","0","0"
"021719","16:17:35","9223988","test","2","intention_check","32","10","3","0","2500","0","0"
"021719","16:17:35","9223988","test","2","prime_negative","33","8","59","0","884","0","0"
"021719","16:17:35","9223988","test","2","intention_check","34","8","59","0","2500","0","0"
"021719","16:17:35","9223988","test","2","prime_negative","35","11","55","0","706","0","0"
"021719","16:17:35","9223988","test","2","intention_check","36","11","55","0","2500","0","0"
"021719","16:17:35","9223988","test","2","prime_positive","37","1","15","0","819","0","0"
"021719","16:17:35","9223988","test","2","intention_check","38","1","15","0","2500","0","0"
"021719","16:17:35","9223988","test","2","prime_positive","39","5","7","0","631","0","0"
"021719","16:17:35","9223988","test","2","intention_check","40","5","7","0","2500","0","0"
"021719","16:17:35","9223988","test","2","prime_negative","41","4","36","0","650","0","0"
"021719","16:17:35","9223988","test","2","intention_check","42","4","36","0","2500","0","0"
"021719","16:17:35","9223988","test","2","prime_negative","43","1","38","0","500","0","0"
"021719","16:17:35","9223988","test","2","intention_check","44","1","38","0","2500","0","0"
"021719","16:17:35","9223988","test","2","prime_positive","45","11","37","0","583","0","0"
"021719","16:17:35","9223988","test","2","intention_check","46","11","37","0","2500","0","0"
"021719","16:17:35","9223988","test","2","prime_positive","47","7","11","0","569","0","0"
"021719","16:17:35","9223988","test","2","intention_check","48","7","11","0","2500","0","0"
"021719","16:17:35","9223988","test","2","prime_negative","49","3","48","0","711","0","0"
"021719","16:17:35","9223988","test","2","intention_check","50","3","48","0","2500","0","0"
"021719","16:17:35","9223988","test","2","prime_positive","51","1","8","0","1267","0","0"
"021719","16:17:35","9223988","test","2","intention_check","52","1","8","0","2500","0","0"
"021719","16:17:35","9223988","test","2","prime_positive","53","12","32","0","580","0","0"
"021719","16:17:35","9223988","test","2","intention_check","54","12","32","0","2500","0","0"
"021719","16:17:35","9223988","test","2","prime_negative","55","1","26","0","599","0","0"
"021719","16:17:35","9223988","test","2","intention_check","56","1","26","0","2500","0","0"
"021719","16:17:35","9223988","test","2","prime_positive","57","5","25","0","455","0","0"
"021719","16:17:35","9223988","test","2","intention_check","58","5","25","0","2500","0","0"
"021719","16:17:35","9223988","test","2","prime_positive","59","4","29","0","404","0","0"
"021719","16:17:35","9223988","test","2","intention_check","60","4","29","0","2500","0","0"
"021719","16:17:35","9223988","test","2","prime_negative","61","9","35","0","353","0","0"
"021719","16:17:35","9223988","test","2","intention_check","62","9","35","0","2500","0","0"
"021719","16:17:35","9223988","test","2","prime_positive","63","6","46","0","323","0","0"
"021719","16:17:35","9223988","test","2","intention_check","64","6","46","0","2500","0","0"
"021719","16:17:35","9223988","test","2","prime_negative","65","12","33","0","479","0","0"
"021719","16:17:35","9223988","test","2","intention_check","66","12","33","0","2500","0","0"
"021719","16:17:35","9223988","test","2","prime_positive","67","8","45","0","4611","0","0"
"021719","16:17:35","9223988","test","2","intention_check","68","8","45","0","2500","0","0"
"021719","16:17:35","9223988","test","2","prime_negative","69","10","49","0","438","0","0"
"021719","16:17:35","9223988","test","2","intention_check","70","10","49","0","2500","0","0"
"021719","16:17:35","9223988","test","2","prime_negative","71","8","1","0","429","0","0"
"021719","16:17:35","9223988","test","2","intention_check","72","8","1","0","2500","0","0"
"021719","16:17:35","9223988","test","2","prime_positive","73","2","6","0","368","0","0"
"021719","16:17:35","9223988","test","2","intention_check","74","2","6","0","2500","0","0"
"021719","16:17:35","9223988","test","2","prime_negative","75","5","2","0","353","0","0"
"021719","16:17:35","9223988","test","2","intention_check","76","5","2","0","2500","0","0"
"021719","16:17:35","9223988","test","2","prime_positive","77","9","56","0","359","0","0"
"021719","16:17:35","9223988","test","2","intention_check","78","9","56","0","2500","0","0"
"021719","16:17:35","9223988","test","2","prime_positive","79","3","41","0","373","0","0"
"021719","16:17:35","9223988","test","2","intention_check","80","3","41","0","2500","0","0"
"021719","16:17:35","9223988","test","2","prime_positive","81","10","53","0","388","0","0"
"021719","16:17:35","9223988","test","2","intention_check","82","10","53","0","2500","0","0"
"021719","16:17:35","9223988","test","2","prime_positive","83","11","52","0","314","0","0"
"021719","16:17:35","9223988","test","2","intention_check","84","11","52","0","2500","0","0"
"021719","16:17:35","9223988","test","2","prime_negative","85","7","47","0","382","0","0"
"021719","16:17:35","9223988","test","2","intention_check","86","7","47","0","2500","0","0"
"021719","16:17:35","9223988","test","2","prime_positive","87","8","50","0","397","0","0"
"021719","16:17:35","9223988","test","2","intention_check","88","8","50","0","2500","0","0"
